Instructions.started,Instructions.stopped,key_resp.keys,key_resp.rt,key_resp.duration,participant,session,date,expName,psychopyVersion,OS,frameRate,realeye-tester-id,realeye-tester-quality_grade,Trial_noX.started,Trial_noX.stopped,response.keys,response.corr,response.rt,response.duration,trials_noX.thisRepN,trials_noX.thisTrialN,trials_noX.thisN,trials_noX.thisIndex,trials_noX.ran,letter,corrAns,BlockBreak.started,BlockBreak.stopped,key_instruct.keys,key_instruct.rt,key_instruct.duration,End_NoX.started,End_NoX.stopped,key_resp_end_noX.keys,key_resp_end_noX.rt,key_resp_end_noX.duration
1E-04,18.3334,space,18.3058,,R_1b9er7B5oUU2GB3,001,2025-07-31_12h38.59.428,continuous_performance_test,2024.2.4,Win32,166.6666667,4374ae1e-80b2-4b5e-a2ad-6b3c67ac53d1,6,,,,,,,,,,,,,,,,,,,,,,,
,,,,,R_1b9er7B5oUU2GB3,001,2025-07-31_12h38.59.428,continuous_performance_test,2024.2.4,Win32,166.6666667,4374ae1e-80b2-4b5e-a2ad-6b3c67ac53d1,6,18.3422,20.0886,space,1,0.4307,,0,0,0,20,1,U,space,,,,,,,,,,
,,,,,R_1b9er7B5oUU2GB3,001,2025-07-31_12h38.59.428,continuous_performance_test,2024.2.4,Win32,166.6666667,4374ae1e-80b2-4b5e-a2ad-6b3c67ac53d1,6,20.0902,21.7895,space,1,0.2867,,0,1,1,23,1,Y,space,,,,,,,,,,
,,,,,R_1b9er7B5oUU2GB3,001,2025-07-31_12h38.59.428,continuous_performance_test,2024.2.4,Win32,166.6666667,4374ae1e-80b2-4b5e-a2ad-6b3c67ac53d1,6,21.7906,23.6866,space,1,0.2372,,0,2,2,13,1,N,space,,,,,,,,,,
,,,,,R_1b9er7B5oUU2GB3,001,2025-07-31_12h38.59.428,continuous_performance_test,2024.2.4,Win32,166.6666667,4374ae1e-80b2-4b5e-a2ad-6b3c67ac53d1,6,23.6875,25.4373,space,1,0.3764,,0,3,3,24,1,Z,space,,,,,,,,,,
,,,,,R_1b9er7B5oUU2GB3,001,2025-07-31_12h38.59.428,continuous_performance_test,2024.2.4,Win32,166.6666667,4374ae1e-80b2-4b5e-a2ad-6b3c67ac53d1,6,25.4387,27.3354,space,1,0.3471,,0,4,4,8,1,I,space,,,,,,,,,,
,,,,,R_1b9er7B5oUU2GB3,001,2025-07-31_12h38.59.428,continuous_performance_test,2024.2.4,Win32,166.6666667,4374ae1e-80b2-4b5e-a2ad-6b3c67ac53d1,6,27.3364,29.2365,space,1,0.3151,,0,5,5,12,1,M,space,,,,,,,,,,
,,,,,R_1b9er7B5oUU2GB3,001,2025-07-31_12h38.59.428,continuous_performance_test,2024.2.4,Win32,166.6666667,4374ae1e-80b2-4b5e-a2ad-6b3c67ac53d1,6,29.2376,30.8849,space,1,0.3334,,0,6,6,19,1,T,space,,,,,,,,,,
,,,,,R_1b9er7B5oUU2GB3,001,2025-07-31_12h38.59.428,continuous_performance_test,2024.2.4,Win32,166.6666667,4374ae1e-80b2-4b5e-a2ad-6b3c67ac53d1,6,30.8863,32.5814,space,1,0.2964,,0,7,7,5,1,F,space,,,,,,,,,,
,,,,,R_1b9er7B5oUU2GB3,001,2025-07-31_12h38.59.428,continuous_performance_test,2024.2.4,Win32,166.6666667,4374ae1e-80b2-4b5e-a2ad-6b3c67ac53d1,6,32.5826,34.4782,space,1,0.2969,,0,8,8,16,1,Q,space,,,,,,,,,,
,,,,,R_1b9er7B5oUU2GB3,001,2025-07-31_12h38.59.428,continuous_performance_test,2024.2.4,Win32,166.6666667,4374ae1e-80b2-4b5e-a2ad-6b3c67ac53d1,6,34.4793,36.278,space,1,0.3958,,0,9,9,11,1,L,space,,,,,,,,,,
,,,,,R_1b9er7B5oUU2GB3,001,2025-07-31_12h38.59.428,continuous_performance_test,2024.2.4,Win32,166.6666667,4374ae1e-80b2-4b5e-a2ad-6b3c67ac53d1,6,36.2788,37.8778,space,1,0.4254,,0,10,10,9,1,J,space,,,,,,,,,,
,,,,,R_1b9er7B5oUU2GB3,001,2025-07-31_12h38.59.428,continuous_performance_test,2024.2.4,Win32,166.6666667,4374ae1e-80b2-4b5e-a2ad-6b3c67ac53d1,6,37.8789,39.5745,space,1,0.2792,,0,11,11,1,1,B,space,,,,,,,,,,
,,,,,R_1b9er7B5oUU2GB3,001,2025-07-31_12h38.59.428,continuous_performance_test,2024.2.4,Win32,166.6666667,4374ae1e-80b2-4b5e-a2ad-6b3c67ac53d1,6,39.5757,41.5743,,1,,,0,12,12,28,1,X,,,,,,,,,,,
,,,,,R_1b9er7B5oUU2GB3,001,2025-07-31_12h38.59.428,continuous_performance_test,2024.2.4,Win32,166.6666667,4374ae1e-80b2-4b5e-a2ad-6b3c67ac53d1,6,41.5755,43.5239,space,1,0.2851,,0,13,13,14,1,O,space,,,,,,,,,,
,,,,,R_1b9er7B5oUU2GB3,001,2025-07-31_12h38.59.428,continuous_performance_test,2024.2.4,Win32,166.6666667,4374ae1e-80b2-4b5e-a2ad-6b3c67ac53d1,6,43.5247,45.3739,space,1,0.3093,,0,14,14,3,1,D,space,,,,,,,,,,
,,,,,R_1b9er7B5oUU2GB3,001,2025-07-31_12h38.59.428,continuous_performance_test,2024.2.4,Win32,166.6666667,4374ae1e-80b2-4b5e-a2ad-6b3c67ac53d1,6,45.3749,47.3736,,1,,,0,15,15,27,1,X,,,,,,,,,,,
,,,,,R_1b9er7B5oUU2GB3,001,2025-07-31_12h38.59.428,continuous_performance_test,2024.2.4,Win32,166.6666667,4374ae1e-80b2-4b5e-a2ad-6b3c67ac53d1,6,47.3749,49.3247,space,1,0.2559,,0,16,16,2,1,C,space,,,,,,,,,,
,,,,,R_1b9er7B5oUU2GB3,001,2025-07-31_12h38.59.428,continuous_performance_test,2024.2.4,Win32,166.6666667,4374ae1e-80b2-4b5e-a2ad-6b3c67ac53d1,6,49.3256,51.0761,space,1,0.5664,,0,17,17,22,1,W,space,,,,,,,,,,
,,,,,R_1b9er7B5oUU2GB3,001,2025-07-31_12h38.59.428,continuous_performance_test,2024.2.4,Win32,166.6666667,4374ae1e-80b2-4b5e-a2ad-6b3c67ac53d1,6,51.077,52.9233,space,0,0.2182,,0,18,18,29,1,X,,,,,,,,,,,
,,,,,R_1b9er7B5oUU2GB3,001,2025-07-31_12h38.59.428,continuous_performance_test,2024.2.4,Win32,166.6666667,4374ae1e-80b2-4b5e-a2ad-6b3c67ac53d1,6,52.9249,54.6223,space,1,0.5198,,0,19,19,21,1,V,space,,,,,,,,,,
,,,,,R_1b9er7B5oUU2GB3,001,2025-07-31_12h38.59.428,continuous_performance_test,2024.2.4,Win32,166.6666667,4374ae1e-80b2-4b5e-a2ad-6b3c67ac53d1,6,54.6231,56.6206,space,0,0.2911,,0,20,20,25,1,X,,,,,,,,,,,
,,,,,R_1b9er7B5oUU2GB3,001,2025-07-31_12h38.59.428,continuous_performance_test,2024.2.4,Win32,166.6666667,4374ae1e-80b2-4b5e-a2ad-6b3c67ac53d1,6,56.6213,58.3665,,1,,,0,21,21,26,1,X,,,,,,,,,,,
,,,,,R_1b9er7B5oUU2GB3,001,2025-07-31_12h38.59.428,continuous_performance_test,2024.2.4,Win32,166.6666667,4374ae1e-80b2-4b5e-a2ad-6b3c67ac53d1,6,58.3672,60.2636,space,1,0.4371,,0,22,22,6,1,G,space,,,,,,,,,,
,,,,,R_1b9er7B5oUU2GB3,001,2025-07-31_12h38.59.428,continuous_performance_test,2024.2.4,Win32,166.6666667,4374ae1e-80b2-4b5e-a2ad-6b3c67ac53d1,6,60.265,62.2622,space,1,0.3275,,0,23,23,17,1,R,space,,,,,,,,,,
,,,,,R_1b9er7B5oUU2GB3,001,2025-07-31_12h38.59.428,continuous_performance_test,2024.2.4,Win32,166.6666667,4374ae1e-80b2-4b5e-a2ad-6b3c67ac53d1,6,62.2631,64.2133,space,1,0.2975,,0,24,24,4,1,E,space,,,,,,,,,,
,,,,,R_1b9er7B5oUU2GB3,001,2025-07-31_12h38.59.428,continuous_performance_test,2024.2.4,Win32,166.6666667,4374ae1e-80b2-4b5e-a2ad-6b3c67ac53d1,6,64.2143,65.7649,space,1,0.3766,,0,25,25,7,1,H,space,,,,,,,,,,
,,,,,R_1b9er7B5oUU2GB3,001,2025-07-31_12h38.59.428,continuous_performance_test,2024.2.4,Win32,166.6666667,4374ae1e-80b2-4b5e-a2ad-6b3c67ac53d1,6,65.7662,67.3612,space,1,0.5212,,0,26,26,0,1,A,space,,,,,,,,,,
,,,,,R_1b9er7B5oUU2GB3,001,2025-07-31_12h38.59.428,continuous_performance_test,2024.2.4,Win32,166.6666667,4374ae1e-80b2-4b5e-a2ad-6b3c67ac53d1,6,67.3621,68.9583,space,1,0.3638,,0,27,27,10,1,K,space,,,,,,,,,,
,,,,,R_1b9er7B5oUU2GB3,001,2025-07-31_12h38.59.428,continuous_performance_test,2024.2.4,Win32,166.6666667,4374ae1e-80b2-4b5e-a2ad-6b3c67ac53d1,6,68.9592,70.9137,space,1,0.3762,,0,28,28,15,1,P,space,,,,,,,,,,
,,,,,R_1b9er7B5oUU2GB3,001,2025-07-31_12h38.59.428,continuous_performance_test,2024.2.4,Win32,166.6666667,4374ae1e-80b2-4b5e-a2ad-6b3c67ac53d1,6,70.9149,72.7637,space,1,0.2902,,0,29,29,18,1,S,space,,,,,,,,,,
,,,,,R_1b9er7B5oUU2GB3,001,2025-07-31_12h38.59.428,continuous_performance_test,2024.2.4,Win32,166.6666667,4374ae1e-80b2-4b5e-a2ad-6b3c67ac53d1,6,87.7698,89.368,,0,,,0,0,0,24,1,Z,space,72.7642,87.7619,,,,,,,,
,,,,,R_1b9er7B5oUU2GB3,001,2025-07-31_12h38.59.428,continuous_performance_test,2024.2.4,Win32,166.6666667,4374ae1e-80b2-4b5e-a2ad-6b3c67ac53d1,6,89.369,91.3187,space,1,0.7676,,0,1,1,23,1,Y,space,,,,,,,,,,
,,,,,R_1b9er7B5oUU2GB3,001,2025-07-31_12h38.59.428,continuous_performance_test,2024.2.4,Win32,166.6666667,4374ae1e-80b2-4b5e-a2ad-6b3c67ac53d1,6,91.3195,93.2699,space,0,0.4303,,0,2,2,26,1,X,,,,,,,,,,,
,,,,,R_1b9er7B5oUU2GB3,001,2025-07-31_12h38.59.428,continuous_performance_test,2024.2.4,Win32,166.6666667,4374ae1e-80b2-4b5e-a2ad-6b3c67ac53d1,6,93.2708,95.2697,space,1,0.3457,,0,3,3,3,1,D,space,,,,,,,,,,
,,,,,R_1b9er7B5oUU2GB3,001,2025-07-31_12h38.59.428,continuous_performance_test,2024.2.4,Win32,166.6666667,4374ae1e-80b2-4b5e-a2ad-6b3c67ac53d1,6,95.2705,97.2738,space,1,0.4129,,0,4,4,20,1,U,space,,,,,,,,,,
,,,,,R_1b9er7B5oUU2GB3,001,2025-07-31_12h38.59.428,continuous_performance_test,2024.2.4,Win32,166.6666667,4374ae1e-80b2-4b5e-a2ad-6b3c67ac53d1,6,97.2748,99.0752,space,1,0.3819,,0,5,5,13,1,N,space,,,,,,,,,,
,,,,,R_1b9er7B5oUU2GB3,001,2025-07-31_12h38.59.428,continuous_performance_test,2024.2.4,Win32,166.6666667,4374ae1e-80b2-4b5e-a2ad-6b3c67ac53d1,6,99.076,100.6215,space,1,0.5095,,0,6,6,11,1,L,space,,,,,,,,,,
,,,,,R_1b9er7B5oUU2GB3,001,2025-07-31_12h38.59.428,continuous_performance_test,2024.2.4,Win32,166.6666667,4374ae1e-80b2-4b5e-a2ad-6b3c67ac53d1,6,100.6224,102.172,space,1,0.352,,0,7,7,12,1,M,space,,,,,,,,,,
,,,,,R_1b9er7B5oUU2GB3,001,2025-07-31_12h38.59.428,continuous_performance_test,2024.2.4,Win32,166.6666667,4374ae1e-80b2-4b5e-a2ad-6b3c67ac53d1,6,102.1728,103.7715,space,1,0.3708,,0,8,8,7,1,H,space,,,,,,,,,,
,,,,,R_1b9er7B5oUU2GB3,001,2025-07-31_12h38.59.428,continuous_performance_test,2024.2.4,Win32,166.6666667,4374ae1e-80b2-4b5e-a2ad-6b3c67ac53d1,6,103.7722,105.4681,space,1,0.3585,,0,9,9,17,1,R,space,,,,,,,,,,
,,,,,R_1b9er7B5oUU2GB3,001,2025-07-31_12h38.59.428,continuous_performance_test,2024.2.4,Win32,166.6666667,4374ae1e-80b2-4b5e-a2ad-6b3c67ac53d1,6,105.4687,107.2678,space,1,0.3943,,0,10,10,10,1,K,space,,,,,,,,,,
,,,,,R_1b9er7B5oUU2GB3,001,2025-07-31_12h38.59.428,continuous_performance_test,2024.2.4,Win32,166.6666667,4374ae1e-80b2-4b5e-a2ad-6b3c67ac53d1,6,107.2683,108.9652,,1,,,0,11,11,27,1,X,,,,,,,,,,,
,,,,,R_1b9er7B5oUU2GB3,001,2025-07-31_12h38.59.428,continuous_performance_test,2024.2.4,Win32,166.6666667,4374ae1e-80b2-4b5e-a2ad-6b3c67ac53d1,6,108.966,110.8129,space,1,0.2914,,0,12,12,16,1,Q,space,,,,,,,,,,
,,,,,R_1b9er7B5oUU2GB3,001,2025-07-31_12h38.59.428,continuous_performance_test,2024.2.4,Win32,166.6666667,4374ae1e-80b2-4b5e-a2ad-6b3c67ac53d1,6,110.8137,112.6129,space,1,0.3759,,0,13,13,22,1,W,space,,,,,,,,,,
,,,,,R_1b9er7B5oUU2GB3,001,2025-07-31_12h38.59.428,continuous_performance_test,2024.2.4,Win32,166.6666667,4374ae1e-80b2-4b5e-a2ad-6b3c67ac53d1,6,112.6137,114.2608,space,1,0.5339,,0,14,14,0,1,A,space,,,,,,,,,,
,,,,,R_1b9er7B5oUU2GB3,001,2025-07-31_12h38.59.428,continuous_performance_test,2024.2.4,Win32,166.6666667,4374ae1e-80b2-4b5e-a2ad-6b3c67ac53d1,6,114.2616,115.9576,space,1,0.3839,,0,15,15,5,1,F,space,,,,,,,,,,
,,,,,R_1b9er7B5oUU2GB3,001,2025-07-31_12h38.59.428,continuous_performance_test,2024.2.4,Win32,166.6666667,4374ae1e-80b2-4b5e-a2ad-6b3c67ac53d1,6,115.9586,117.7575,space,1,0.327,,0,16,16,9,1,J,space,,,,,,,,,,
,,,,,R_1b9er7B5oUU2GB3,001,2025-07-31_12h38.59.428,continuous_performance_test,2024.2.4,Win32,166.6666667,4374ae1e-80b2-4b5e-a2ad-6b3c67ac53d1,6,117.7582,119.3086,,1,,,0,17,17,29,1,X,,,,,,,,,,,
,,,,,R_1b9er7B5oUU2GB3,001,2025-07-31_12h38.59.428,continuous_performance_test,2024.2.4,Win32,166.6666667,4374ae1e-80b2-4b5e-a2ad-6b3c67ac53d1,6,119.3092,120.9085,space,1,0.2913,,0,18,18,4,1,E,space,,,,,,,,,,
,,,,,R_1b9er7B5oUU2GB3,001,2025-07-31_12h38.59.428,continuous_performance_test,2024.2.4,Win32,166.6666667,4374ae1e-80b2-4b5e-a2ad-6b3c67ac53d1,6,120.9091,122.6051,space,1,0.3273,,0,19,19,14,1,O,space,,,,,,,,,,
,,,,,R_1b9er7B5oUU2GB3,001,2025-07-31_12h38.59.428,continuous_performance_test,2024.2.4,Win32,166.6666667,4374ae1e-80b2-4b5e-a2ad-6b3c67ac53d1,6,122.6056,124.3021,space,1,0.3889,,0,20,20,19,1,T,space,,,,,,,,,,
,,,,,R_1b9er7B5oUU2GB3,001,2025-07-31_12h38.59.428,continuous_performance_test,2024.2.4,Win32,166.6666667,4374ae1e-80b2-4b5e-a2ad-6b3c67ac53d1,6,124.3028,125.9015,space,1,0.4488,,0,21,21,2,1,C,space,,,,,,,,,,
,,,,,R_1b9er7B5oUU2GB3,001,2025-07-31_12h38.59.428,continuous_performance_test,2024.2.4,Win32,166.6666667,4374ae1e-80b2-4b5e-a2ad-6b3c67ac53d1,6,125.902,127.7041,,1,,,0,22,22,28,1,X,,,,,,,,,,,
,,,,,R_1b9er7B5oUU2GB3,001,2025-07-31_12h38.59.428,continuous_performance_test,2024.2.4,Win32,166.6666667,4374ae1e-80b2-4b5e-a2ad-6b3c67ac53d1,6,127.7049,129.702,space,1,0.3346,,0,23,23,6,1,G,space,,,,,,,,,,
,,,,,R_1b9er7B5oUU2GB3,001,2025-07-31_12h38.59.428,continuous_performance_test,2024.2.4,Win32,166.6666667,4374ae1e-80b2-4b5e-a2ad-6b3c67ac53d1,6,129.7026,131.4515,space,1,0.4261,,0,24,24,21,1,V,space,,,,,,,,,,
,,,,,R_1b9er7B5oUU2GB3,001,2025-07-31_12h38.59.428,continuous_performance_test,2024.2.4,Win32,166.6666667,4374ae1e-80b2-4b5e-a2ad-6b3c67ac53d1,6,131.4521,132.9993,space,1,0.3526,,0,25,25,8,1,I,space,,,,,,,,,,
,,,,,R_1b9er7B5oUU2GB3,001,2025-07-31_12h38.59.428,continuous_performance_test,2024.2.4,Win32,166.6666667,4374ae1e-80b2-4b5e-a2ad-6b3c67ac53d1,6,132.9998,134.8459,space,1,0.3413,,0,26,26,1,1,B,space,,,,,,,,,,
,,,,,R_1b9er7B5oUU2GB3,001,2025-07-31_12h38.59.428,continuous_performance_test,2024.2.4,Win32,166.6666667,4374ae1e-80b2-4b5e-a2ad-6b3c67ac53d1,6,134.8466,136.6455,space,1,0.3943,,0,27,27,15,1,P,space,,,,,,,,,,
,,,,,R_1b9er7B5oUU2GB3,001,2025-07-31_12h38.59.428,continuous_performance_test,2024.2.4,Win32,166.6666667,4374ae1e-80b2-4b5e-a2ad-6b3c67ac53d1,6,136.6461,138.1972,,1,,,0,28,28,25,1,X,,,,,,,,,,,
,,,,,R_1b9er7B5oUU2GB3,001,2025-07-31_12h38.59.428,continuous_performance_test,2024.2.4,Win32,166.6666667,4374ae1e-80b2-4b5e-a2ad-6b3c67ac53d1,6,138.1981,139.8937,space,1,0.2731,,0,29,29,18,1,S,space,,,,,,,,,,
,,,,,R_1b9er7B5oUU2GB3,001,2025-07-31_12h38.59.428,continuous_performance_test,2024.2.4,Win32,166.6666667,4374ae1e-80b2-4b5e-a2ad-6b3c67ac53d1,6,146.65,148.3472,space,1,0.363,,0,0,0,19,1,T,space,139.8943,146.6442,space,6.739,,,,,,
,,,,,R_1b9er7B5oUU2GB3,001,2025-07-31_12h38.59.428,continuous_performance_test,2024.2.4,Win32,166.6666667,4374ae1e-80b2-4b5e-a2ad-6b3c67ac53d1,6,148.3483,149.9952,space,1,0.3707,,0,1,1,3,1,D,space,,,,,,,,,,
,,,,,R_1b9er7B5oUU2GB3,001,2025-07-31_12h38.59.428,continuous_performance_test,2024.2.4,Win32,166.6666667,4374ae1e-80b2-4b5e-a2ad-6b3c67ac53d1,6,149.9959,151.6439,space,1,0.4008,,0,2,2,4,1,E,space,,,,,,,,,,
,,,,,R_1b9er7B5oUU2GB3,001,2025-07-31_12h38.59.428,continuous_performance_test,2024.2.4,Win32,166.6666667,4374ae1e-80b2-4b5e-a2ad-6b3c67ac53d1,6,151.6448,153.5404,space,1,0.3939,,0,3,3,7,1,H,space,,,,,,,,,,
,,,,,R_1b9er7B5oUU2GB3,001,2025-07-31_12h38.59.428,continuous_performance_test,2024.2.4,Win32,166.6666667,4374ae1e-80b2-4b5e-a2ad-6b3c67ac53d1,6,153.5412,155.2915,,1,,,0,4,4,27,1,X,,,,,,,,,,,
,,,,,R_1b9er7B5oUU2GB3,001,2025-07-31_12h38.59.428,continuous_performance_test,2024.2.4,Win32,166.6666667,4374ae1e-80b2-4b5e-a2ad-6b3c67ac53d1,6,155.2922,157.0427,space,1,0.2853,,0,5,5,9,1,J,space,,,,,,,,,,
,,,,,R_1b9er7B5oUU2GB3,001,2025-07-31_12h38.59.428,continuous_performance_test,2024.2.4,Win32,166.6666667,4374ae1e-80b2-4b5e-a2ad-6b3c67ac53d1,6,157.0433,158.594,space,1,0.2978,,0,6,6,11,1,L,space,,,,,,,,,,
,,,,,R_1b9er7B5oUU2GB3,001,2025-07-31_12h38.59.428,continuous_performance_test,2024.2.4,Win32,166.6666667,4374ae1e-80b2-4b5e-a2ad-6b3c67ac53d1,6,158.5946,160.5394,space,1,0.2662,,0,7,7,13,1,N,space,,,,,,,,,,
,,,,,R_1b9er7B5oUU2GB3,001,2025-07-31_12h38.59.428,continuous_performance_test,2024.2.4,Win32,166.6666667,4374ae1e-80b2-4b5e-a2ad-6b3c67ac53d1,6,160.54,162.2904,space,1,0.4362,,0,8,8,0,1,A,space,,,,,,,,,,
,,,,,R_1b9er7B5oUU2GB3,001,2025-07-31_12h38.59.428,continuous_performance_test,2024.2.4,Win32,166.6666667,4374ae1e-80b2-4b5e-a2ad-6b3c67ac53d1,6,162.2911,163.987,space,1,0.3809,,0,9,9,10,1,K,space,,,,,,,,,,
,,,,,R_1b9er7B5oUU2GB3,001,2025-07-31_12h38.59.428,continuous_performance_test,2024.2.4,Win32,166.6666667,4374ae1e-80b2-4b5e-a2ad-6b3c67ac53d1,6,163.9879,165.5387,space,1,0.547,,0,10,10,18,1,S,space,,,,,,,,,,
,,,,,R_1b9er7B5oUU2GB3,001,2025-07-31_12h38.59.428,continuous_performance_test,2024.2.4,Win32,166.6666667,4374ae1e-80b2-4b5e-a2ad-6b3c67ac53d1,6,165.5392,167.1868,space,1,0.5343,,0,11,11,1,1,B,space,,,,,,,,,,
,,,,,R_1b9er7B5oUU2GB3,001,2025-07-31_12h38.59.428,continuous_performance_test,2024.2.4,Win32,166.6666667,4374ae1e-80b2-4b5e-a2ad-6b3c67ac53d1,6,167.1874,168.8834,space,1,0.3939,,0,12,12,24,1,Z,space,,,,,,,,,,
,,,,,R_1b9er7B5oUU2GB3,001,2025-07-31_12h38.59.428,continuous_performance_test,2024.2.4,Win32,166.6666667,4374ae1e-80b2-4b5e-a2ad-6b3c67ac53d1,6,168.8845,170.8337,space,1,0.4493,,0,13,13,22,1,W,space,,,,,,,,,,
,,,,,R_1b9er7B5oUU2GB3,001,2025-07-31_12h38.59.428,continuous_performance_test,2024.2.4,Win32,166.6666667,4374ae1e-80b2-4b5e-a2ad-6b3c67ac53d1,6,170.8343,172.6829,space,1,0.316,,0,14,14,23,1,Y,space,,,,,,,,,,
,,,,,R_1b9er7B5oUU2GB3,001,2025-07-31_12h38.59.428,continuous_performance_test,2024.2.4,Win32,166.6666667,4374ae1e-80b2-4b5e-a2ad-6b3c67ac53d1,6,172.6838,174.6344,space,1,0.413,,0,15,15,12,1,M,space,,,,,,,,,,
,,,,,R_1b9er7B5oUU2GB3,001,2025-07-31_12h38.59.428,continuous_performance_test,2024.2.4,Win32,166.6666667,4374ae1e-80b2-4b5e-a2ad-6b3c67ac53d1,6,174.635,176.1853,space,1,0.3882,,0,16,16,15,1,P,space,,,,,,,,,,
,,,,,R_1b9er7B5oUU2GB3,001,2025-07-31_12h38.59.428,continuous_performance_test,2024.2.4,Win32,166.6666667,4374ae1e-80b2-4b5e-a2ad-6b3c67ac53d1,6,176.1858,178.0824,space,1,0.413,,0,17,17,16,1,Q,space,,,,,,,,,,
,,,,,R_1b9er7B5oUU2GB3,001,2025-07-31_12h38.59.428,continuous_performance_test,2024.2.4,Win32,166.6666667,4374ae1e-80b2-4b5e-a2ad-6b3c67ac53d1,6,178.0831,180.0878,space,1,0.4177,,0,18,18,20,1,U,space,,,,,,,,,,
,,,,,R_1b9er7B5oUU2GB3,001,2025-07-31_12h38.59.428,continuous_performance_test,2024.2.4,Win32,166.6666667,4374ae1e-80b2-4b5e-a2ad-6b3c67ac53d1,6,180.0884,181.8393,,1,,,0,19,19,29,1,X,,,,,,,,,,,
,,,,,R_1b9er7B5oUU2GB3,001,2025-07-31_12h38.59.428,continuous_performance_test,2024.2.4,Win32,166.6666667,4374ae1e-80b2-4b5e-a2ad-6b3c67ac53d1,6,181.8399,183.5411,space,1,0.42,,0,20,20,21,1,V,space,,,,,,,,,,
,,,,,R_1b9er7B5oUU2GB3,001,2025-07-31_12h38.59.428,continuous_performance_test,2024.2.4,Win32,166.6666667,4374ae1e-80b2-4b5e-a2ad-6b3c67ac53d1,6,183.5416,185.3907,space,1,0.3517,,0,21,21,17,1,R,space,,,,,,,,,,
,,,,,R_1b9er7B5oUU2GB3,001,2025-07-31_12h38.59.428,continuous_performance_test,2024.2.4,Win32,166.6666667,4374ae1e-80b2-4b5e-a2ad-6b3c67ac53d1,6,185.3915,187.0384,space,0,0.4061,,0,22,22,26,1,X,,,,,,,,,,,
,,,,,R_1b9er7B5oUU2GB3,001,2025-07-31_12h38.59.428,continuous_performance_test,2024.2.4,Win32,166.6666667,4374ae1e-80b2-4b5e-a2ad-6b3c67ac53d1,6,187.0389,188.6846,space,1,0.2518,,0,23,23,2,1,C,space,,,,,,,,,,
,,,,,R_1b9er7B5oUU2GB3,001,2025-07-31_12h38.59.428,continuous_performance_test,2024.2.4,Win32,166.6666667,4374ae1e-80b2-4b5e-a2ad-6b3c67ac53d1,6,188.685,190.5338,space,1,0.4605,,0,24,24,14,1,O,space,,,,,,,,,,
,,,,,R_1b9er7B5oUU2GB3,001,2025-07-31_12h38.59.428,continuous_performance_test,2024.2.4,Win32,166.6666667,4374ae1e-80b2-4b5e-a2ad-6b3c67ac53d1,6,190.5341,192.2317,space,1,0.5154,,0,25,25,8,1,I,space,,,,,,,,,,
,,,,,R_1b9er7B5oUU2GB3,001,2025-07-31_12h38.59.428,continuous_performance_test,2024.2.4,Win32,166.6666667,4374ae1e-80b2-4b5e-a2ad-6b3c67ac53d1,6,192.2325,194.1284,space,1,0.3759,,0,26,26,5,1,F,space,,,,,,,,,,
,,,,,R_1b9er7B5oUU2GB3,001,2025-07-31_12h38.59.428,continuous_performance_test,2024.2.4,Win32,166.6666667,4374ae1e-80b2-4b5e-a2ad-6b3c67ac53d1,6,194.1293,195.7282,,1,,,0,27,27,28,1,X,,,,,,,,,,,
,,,,,R_1b9er7B5oUU2GB3,001,2025-07-31_12h38.59.428,continuous_performance_test,2024.2.4,Win32,166.6666667,4374ae1e-80b2-4b5e-a2ad-6b3c67ac53d1,6,195.7286,197.4797,,1,,,0,28,28,25,1,X,,,,,,,,,,,
,,,,,R_1b9er7B5oUU2GB3,001,2025-07-31_12h38.59.428,continuous_performance_test,2024.2.4,Win32,166.6666667,4374ae1e-80b2-4b5e-a2ad-6b3c67ac53d1,6,197.4803,199.1761,space,1,0.2974,,0,29,29,6,1,G,space,,,,,,,,,,
,,,,,R_1b9er7B5oUU2GB3,001,2025-07-31_12h38.59.428,continuous_performance_test,2024.2.4,Win32,166.6666667,4374ae1e-80b2-4b5e-a2ad-6b3c67ac53d1,6,207.823,209.5703,space,1,0.3033,,0,0,0,0,1,A,space,199.1767,207.8199,space,8.6377,,,,,,
,,,,,R_1b9er7B5oUU2GB3,001,2025-07-31_12h38.59.428,continuous_performance_test,2024.2.4,Win32,166.6666667,4374ae1e-80b2-4b5e-a2ad-6b3c67ac53d1,6,209.5708,211.3183,space,1,0.2979,,0,1,1,19,1,T,space,,,,,,,,,,
,,,,,R_1b9er7B5oUU2GB3,001,2025-07-31_12h38.59.428,continuous_performance_test,2024.2.4,Win32,166.6666667,4374ae1e-80b2-4b5e-a2ad-6b3c67ac53d1,6,211.3192,213.2652,space,1,0.2854,,0,2,2,17,1,R,space,,,,,,,,,,
,,,,,R_1b9er7B5oUU2GB3,001,2025-07-31_12h38.59.428,continuous_performance_test,2024.2.4,Win32,166.6666667,4374ae1e-80b2-4b5e-a2ad-6b3c67ac53d1,6,213.2659,214.865,space,1,0.2803,,0,3,3,3,1,D,space,,,,,,,,,,
,,,,,R_1b9er7B5oUU2GB3,001,2025-07-31_12h38.59.428,continuous_performance_test,2024.2.4,Win32,166.6666667,4374ae1e-80b2-4b5e-a2ad-6b3c67ac53d1,6,214.8656,216.7666,space,1,0.2785,,0,4,4,12,1,M,space,,,,,,,,,,
,,,,,R_1b9er7B5oUU2GB3,001,2025-07-31_12h38.59.428,continuous_performance_test,2024.2.4,Win32,166.6666667,4374ae1e-80b2-4b5e-a2ad-6b3c67ac53d1,6,216.7672,218.416,space,1,0.4426,,0,5,5,22,1,W,space,,,,,,,,,,
,,,,,R_1b9er7B5oUU2GB3,001,2025-07-31_12h38.59.428,continuous_performance_test,2024.2.4,Win32,166.6666667,4374ae1e-80b2-4b5e-a2ad-6b3c67ac53d1,6,218.4168,219.9639,,1,,,0,6,6,27,1,X,,,,,,,,,,,
,,,,,R_1b9er7B5oUU2GB3,001,2025-07-31_12h38.59.428,continuous_performance_test,2024.2.4,Win32,166.6666667,4374ae1e-80b2-4b5e-a2ad-6b3c67ac53d1,6,219.9643,221.7125,,1,,,0,7,7,25,1,X,,,,,,,,,,,
,,,,,R_1b9er7B5oUU2GB3,001,2025-07-31_12h38.59.428,continuous_performance_test,2024.2.4,Win32,166.6666667,4374ae1e-80b2-4b5e-a2ad-6b3c67ac53d1,6,221.713,223.712,space,1,0.304,,0,8,8,4,1,E,space,,,,,,,,,,
,,,,,R_1b9er7B5oUU2GB3,001,2025-07-31_12h38.59.428,continuous_performance_test,2024.2.4,Win32,166.6666667,4374ae1e-80b2-4b5e-a2ad-6b3c67ac53d1,6,223.7126,225.4088,space,1,0.3573,,0,9,9,7,1,H,space,,,,,,,,,,
,,,,,R_1b9er7B5oUU2GB3,001,2025-07-31_12h38.59.428,continuous_performance_test,2024.2.4,Win32,166.6666667,4374ae1e-80b2-4b5e-a2ad-6b3c67ac53d1,6,225.4095,227.1666,space,1,0.6419,,0,10,10,2,1,C,space,,,,,,,,,,
,,,,,R_1b9er7B5oUU2GB3,001,2025-07-31_12h38.59.428,continuous_performance_test,2024.2.4,Win32,166.6666667,4374ae1e-80b2-4b5e-a2ad-6b3c67ac53d1,6,227.1673,228.8628,space,1,0.3824,,0,11,11,13,1,N,space,,,,,,,,,,
,,,,,R_1b9er7B5oUU2GB3,001,2025-07-31_12h38.59.428,continuous_performance_test,2024.2.4,Win32,166.6666667,4374ae1e-80b2-4b5e-a2ad-6b3c67ac53d1,6,228.8634,230.5595,space,1,0.4307,,0,12,12,23,1,Y,space,,,,,,,,,,
,,,,,R_1b9er7B5oUU2GB3,001,2025-07-31_12h38.59.428,continuous_performance_test,2024.2.4,Win32,166.6666667,4374ae1e-80b2-4b5e-a2ad-6b3c67ac53d1,6,230.5599,232.16,space,1,0.3817,,0,13,13,15,1,P,space,,,,,,,,,,
,,,,,R_1b9er7B5oUU2GB3,001,2025-07-31_12h38.59.428,continuous_performance_test,2024.2.4,Win32,166.6666667,4374ae1e-80b2-4b5e-a2ad-6b3c67ac53d1,6,232.1615,234.056,,1,,,0,14,14,26,1,X,,,,,,,,,,,
,,,,,R_1b9er7B5oUU2GB3,001,2025-07-31_12h38.59.428,continuous_performance_test,2024.2.4,Win32,166.6666667,4374ae1e-80b2-4b5e-a2ad-6b3c67ac53d1,6,234.0567,235.6561,space,1,0.4609,,0,15,15,20,1,U,space,,,,,,,,,,
,,,,,R_1b9er7B5oUU2GB3,001,2025-07-31_12h38.59.428,continuous_performance_test,2024.2.4,Win32,166.6666667,4374ae1e-80b2-4b5e-a2ad-6b3c67ac53d1,6,235.6568,237.6063,space,1,0.309,,0,16,16,16,1,Q,space,,,,,,,,,,
,,,,,R_1b9er7B5oUU2GB3,001,2025-07-31_12h38.59.428,continuous_performance_test,2024.2.4,Win32,166.6666667,4374ae1e-80b2-4b5e-a2ad-6b3c67ac53d1,6,237.6068,239.3524,space,1,0.2373,,0,17,17,6,1,G,space,,,,,,,,,,
,,,,,R_1b9er7B5oUU2GB3,001,2025-07-31_12h38.59.428,continuous_performance_test,2024.2.4,Win32,166.6666667,4374ae1e-80b2-4b5e-a2ad-6b3c67ac53d1,6,239.3527,241.3521,space,1,0.2669,,0,18,18,10,1,K,space,,,,,,,,,,
,,,,,R_1b9er7B5oUU2GB3,001,2025-07-31_12h38.59.428,continuous_performance_test,2024.2.4,Win32,166.6666667,4374ae1e-80b2-4b5e-a2ad-6b3c67ac53d1,6,241.3526,242.9517,space,1,0.4121,,0,19,19,1,1,B,space,,,,,,,,,,
,,,,,R_1b9er7B5oUU2GB3,001,2025-07-31_12h38.59.428,continuous_performance_test,2024.2.4,Win32,166.6666667,4374ae1e-80b2-4b5e-a2ad-6b3c67ac53d1,6,242.9521,244.903,space,1,0.4665,,0,20,20,24,1,Z,space,,,,,,,,,,
,,,,,R_1b9er7B5oUU2GB3,001,2025-07-31_12h38.59.428,continuous_performance_test,2024.2.4,Win32,166.6666667,4374ae1e-80b2-4b5e-a2ad-6b3c67ac53d1,6,244.9035,246.6545,space,1,0.3632,,0,21,21,18,1,S,space,,,,,,,,,,
,,,,,R_1b9er7B5oUU2GB3,001,2025-07-31_12h38.59.428,continuous_performance_test,2024.2.4,Win32,166.6666667,4374ae1e-80b2-4b5e-a2ad-6b3c67ac53d1,6,246.6552,248.4536,space,1,0.3329,,0,22,22,5,1,F,space,,,,,,,,,,
,,,,,R_1b9er7B5oUU2GB3,001,2025-07-31_12h38.59.428,continuous_performance_test,2024.2.4,Win32,166.6666667,4374ae1e-80b2-4b5e-a2ad-6b3c67ac53d1,6,248.4545,250.0539,space,1,0.5154,,0,23,23,8,1,I,space,,,,,,,,,,
,,,,,R_1b9er7B5oUU2GB3,001,2025-07-31_12h38.59.428,continuous_performance_test,2024.2.4,Win32,166.6666667,4374ae1e-80b2-4b5e-a2ad-6b3c67ac53d1,6,250.0544,251.854,space,1,0.3458,,0,24,24,21,1,V,space,,,,,,,,,,
,,,,,R_1b9er7B5oUU2GB3,001,2025-07-31_12h38.59.428,continuous_performance_test,2024.2.4,Win32,166.6666667,4374ae1e-80b2-4b5e-a2ad-6b3c67ac53d1,6,251.8546,253.7018,,1,,,0,25,25,28,1,X,,,,,,,,,,,
,,,,,R_1b9er7B5oUU2GB3,001,2025-07-31_12h38.59.428,continuous_performance_test,2024.2.4,Win32,166.6666667,4374ae1e-80b2-4b5e-a2ad-6b3c67ac53d1,6,253.7027,255.3501,space,1,0.4307,,0,26,26,14,1,O,space,,,,,,,,,,
,,,,,R_1b9er7B5oUU2GB3,001,2025-07-31_12h38.59.428,continuous_performance_test,2024.2.4,Win32,166.6666667,4374ae1e-80b2-4b5e-a2ad-6b3c67ac53d1,6,255.3508,257.1984,,1,,,0,27,27,29,1,X,,,,,,,,,,,
,,,,,R_1b9er7B5oUU2GB3,001,2025-07-31_12h38.59.428,continuous_performance_test,2024.2.4,Win32,166.6666667,4374ae1e-80b2-4b5e-a2ad-6b3c67ac53d1,6,257.1988,258.8465,space,1,0.3223,,0,28,28,9,1,J,space,,,,,,,,,,
,,,,,R_1b9er7B5oUU2GB3,001,2025-07-31_12h38.59.428,continuous_performance_test,2024.2.4,Win32,166.6666667,4374ae1e-80b2-4b5e-a2ad-6b3c67ac53d1,6,258.847,260.8461,space,1,0.31,,0,29,29,11,1,L,space,,,,,,,,,,
,,,,,R_1b9er7B5oUU2GB3,001,2025-07-31_12h38.59.428,continuous_performance_test,2024.2.4,Win32,166.6666667,4374ae1e-80b2-4b5e-a2ad-6b3c67ac53d1,6,271.3385,273.2384,space,0,0.3152,,0,0,0,27,1,X,,260.8467,271.3356,space,10.4825,,,,,,
,,,,,R_1b9er7B5oUU2GB3,001,2025-07-31_12h38.59.428,continuous_performance_test,2024.2.4,Win32,166.6666667,4374ae1e-80b2-4b5e-a2ad-6b3c67ac53d1,6,273.2389,274.8867,,1,,,0,1,1,26,1,X,,,,,,,,,,,
,,,,,R_1b9er7B5oUU2GB3,001,2025-07-31_12h38.59.428,continuous_performance_test,2024.2.4,Win32,166.6666667,4374ae1e-80b2-4b5e-a2ad-6b3c67ac53d1,6,274.8874,276.7836,space,1,0.3698,,0,2,2,1,1,B,space,,,,,,,,,,
,,,,,R_1b9er7B5oUU2GB3,001,2025-07-31_12h38.59.428,continuous_performance_test,2024.2.4,Win32,166.6666667,4374ae1e-80b2-4b5e-a2ad-6b3c67ac53d1,6,276.7843,278.3832,space,1,0.3423,,0,3,3,7,1,H,space,,,,,,,,,,
,,,,,R_1b9er7B5oUU2GB3,001,2025-07-31_12h38.59.428,continuous_performance_test,2024.2.4,Win32,166.6666667,4374ae1e-80b2-4b5e-a2ad-6b3c67ac53d1,6,278.3839,280.3342,space,1,0.3613,,0,4,4,22,1,W,space,,,,,,,,,,
,,,,,R_1b9er7B5oUU2GB3,001,2025-07-31_12h38.59.428,continuous_performance_test,2024.2.4,Win32,166.6666667,4374ae1e-80b2-4b5e-a2ad-6b3c67ac53d1,6,280.3352,282.0309,space,1,0.5166,,0,5,5,6,1,G,space,,,,,,,,,,
,,,,,R_1b9er7B5oUU2GB3,001,2025-07-31_12h38.59.428,continuous_performance_test,2024.2.4,Win32,166.6666667,4374ae1e-80b2-4b5e-a2ad-6b3c67ac53d1,6,282.0316,284.0311,space,1,0.347,,0,6,6,10,1,K,space,,,,,,,,,,
,,,,,R_1b9er7B5oUU2GB3,001,2025-07-31_12h38.59.428,continuous_performance_test,2024.2.4,Win32,166.6666667,4374ae1e-80b2-4b5e-a2ad-6b3c67ac53d1,6,284.0317,285.7822,space,1,0.3147,,0,7,7,19,1,T,space,,,,,,,,,,
,,,,,R_1b9er7B5oUU2GB3,001,2025-07-31_12h38.59.428,continuous_performance_test,2024.2.4,Win32,166.6666667,4374ae1e-80b2-4b5e-a2ad-6b3c67ac53d1,6,285.7827,287.3818,space,1,0.491,,0,8,8,18,1,S,space,,,,,,,,,,
,,,,,R_1b9er7B5oUU2GB3,001,2025-07-31_12h38.59.428,continuous_performance_test,2024.2.4,Win32,166.6666667,4374ae1e-80b2-4b5e-a2ad-6b3c67ac53d1,6,287.3823,289.0787,space,1,0.3943,,0,9,9,17,1,R,space,,,,,,,,,,
,,,,,R_1b9er7B5oUU2GB3,001,2025-07-31_12h38.59.428,continuous_performance_test,2024.2.4,Win32,166.6666667,4374ae1e-80b2-4b5e-a2ad-6b3c67ac53d1,6,289.0791,291.0786,space,1,0.4671,,0,10,10,0,1,A,space,,,,,,,,,,
,,,,,R_1b9er7B5oUU2GB3,001,2025-07-31_12h38.59.428,continuous_performance_test,2024.2.4,Win32,166.6666667,4374ae1e-80b2-4b5e-a2ad-6b3c67ac53d1,6,291.0792,293.028,space,1,0.3328,,0,11,11,2,1,C,space,,,,,,,,,,
,,,,,R_1b9er7B5oUU2GB3,001,2025-07-31_12h38.59.428,continuous_performance_test,2024.2.4,Win32,166.6666667,4374ae1e-80b2-4b5e-a2ad-6b3c67ac53d1,6,293.0287,294.7262,space,1,0.293,,0,12,12,9,1,J,space,,,,,,,,,,
,,,,,R_1b9er7B5oUU2GB3,001,2025-07-31_12h38.59.428,continuous_performance_test,2024.2.4,Win32,166.6666667,4374ae1e-80b2-4b5e-a2ad-6b3c67ac53d1,6,294.7269,296.3732,space,1,0.3692,,0,13,13,21,1,V,space,,,,,,,,,,
,,,,,R_1b9er7B5oUU2GB3,001,2025-07-31_12h38.59.428,continuous_performance_test,2024.2.4,Win32,166.6666667,4374ae1e-80b2-4b5e-a2ad-6b3c67ac53d1,6,296.3736,298.3778,space,1,0.2915,,0,14,14,8,1,I,space,,,,,,,,,,
,,,,,R_1b9er7B5oUU2GB3,001,2025-07-31_12h38.59.428,continuous_performance_test,2024.2.4,Win32,166.6666667,4374ae1e-80b2-4b5e-a2ad-6b3c67ac53d1,6,298.3784,300.1255,space,1,0.2804,,0,15,15,4,1,E,space,,,,,,,,,,
,,,,,R_1b9er7B5oUU2GB3,001,2025-07-31_12h38.59.428,continuous_performance_test,2024.2.4,Win32,166.6666667,4374ae1e-80b2-4b5e-a2ad-6b3c67ac53d1,6,300.126,301.7251,space,1,0.3034,,0,16,16,13,1,N,space,,,,,,,,,,
,,,,,R_1b9er7B5oUU2GB3,001,2025-07-31_12h38.59.428,continuous_performance_test,2024.2.4,Win32,166.6666667,4374ae1e-80b2-4b5e-a2ad-6b3c67ac53d1,6,301.7257,303.5735,space,1,0.2963,,0,17,17,20,1,U,space,,,,,,,,,,
,,,,,R_1b9er7B5oUU2GB3,001,2025-07-31_12h38.59.428,continuous_performance_test,2024.2.4,Win32,166.6666667,4374ae1e-80b2-4b5e-a2ad-6b3c67ac53d1,6,303.5741,305.4701,space,1,0.4004,,0,18,18,5,1,F,space,,,,,,,,,,
,,,,,R_1b9er7B5oUU2GB3,001,2025-07-31_12h38.59.428,continuous_performance_test,2024.2.4,Win32,166.6666667,4374ae1e-80b2-4b5e-a2ad-6b3c67ac53d1,6,305.4705,307.4213,space,0,0.3628,,0,19,19,25,1,X,,,,,,,,,,,
,,,,,R_1b9er7B5oUU2GB3,001,2025-07-31_12h38.59.428,continuous_performance_test,2024.2.4,Win32,166.6666667,4374ae1e-80b2-4b5e-a2ad-6b3c67ac53d1,6,307.4217,308.9727,space,0,0.2913,,0,20,20,28,1,X,,,,,,,,,,,
,,,,,R_1b9er7B5oUU2GB3,001,2025-07-31_12h38.59.428,continuous_performance_test,2024.2.4,Win32,166.6666667,4374ae1e-80b2-4b5e-a2ad-6b3c67ac53d1,6,308.9731,310.5724,space,1,0.317,,0,21,21,3,1,D,space,,,,,,,,,,
,,,,,R_1b9er7B5oUU2GB3,001,2025-07-31_12h38.59.428,continuous_performance_test,2024.2.4,Win32,166.6666667,4374ae1e-80b2-4b5e-a2ad-6b3c67ac53d1,6,310.5728,312.2203,space,1,0.2958,,0,22,22,16,1,Q,space,,,,,,,,,,
,,,,,R_1b9er7B5oUU2GB3,001,2025-07-31_12h38.59.428,continuous_performance_test,2024.2.4,Win32,166.6666667,4374ae1e-80b2-4b5e-a2ad-6b3c67ac53d1,6,312.2208,314.069,space,1,0.5457,,0,23,23,11,1,L,space,,,,,,,,,,
,,,,,R_1b9er7B5oUU2GB3,001,2025-07-31_12h38.59.428,continuous_performance_test,2024.2.4,Win32,166.6666667,4374ae1e-80b2-4b5e-a2ad-6b3c67ac53d1,6,314.0696,315.7657,space,1,0.3577,,0,24,24,12,1,M,space,,,,,,,,,,
,,,,,R_1b9er7B5oUU2GB3,001,2025-07-31_12h38.59.428,continuous_performance_test,2024.2.4,Win32,166.6666667,4374ae1e-80b2-4b5e-a2ad-6b3c67ac53d1,6,315.7663,317.5175,space,1,0.5336,,0,25,25,24,1,Z,space,,,,,,,,,,
,,,,,R_1b9er7B5oUU2GB3,001,2025-07-31_12h38.59.428,continuous_performance_test,2024.2.4,Win32,166.6666667,4374ae1e-80b2-4b5e-a2ad-6b3c67ac53d1,6,317.518,319.3169,space,1,0.5205,,0,26,26,15,1,P,space,,,,,,,,,,
,,,,,R_1b9er7B5oUU2GB3,001,2025-07-31_12h38.59.428,continuous_performance_test,2024.2.4,Win32,166.6666667,4374ae1e-80b2-4b5e-a2ad-6b3c67ac53d1,6,319.3174,321.2682,space,1,0.3762,,0,27,27,14,1,O,space,,,,,,,,,,
,,,,,R_1b9er7B5oUU2GB3,001,2025-07-31_12h38.59.428,continuous_performance_test,2024.2.4,Win32,166.6666667,4374ae1e-80b2-4b5e-a2ad-6b3c67ac53d1,6,321.269,323.2678,space,1,0.2915,,0,28,28,23,1,Y,space,,,,,,,,,,
,,,,,R_1b9er7B5oUU2GB3,001,2025-07-31_12h38.59.428,continuous_performance_test,2024.2.4,Win32,166.6666667,4374ae1e-80b2-4b5e-a2ad-6b3c67ac53d1,6,323.2689,325.0676,,1,,,0,29,29,29,1,X,,,,,,,,,,,
,,,,,R_1b9er7B5oUU2GB3,001,2025-07-31_12h38.59.428,continuous_performance_test,2024.2.4,Win32,166.6666667,4374ae1e-80b2-4b5e-a2ad-6b3c67ac53d1,6,330.0416,331.7392,space,1,0.3648,,0,0,0,2,1,C,space,325.0684,330.0388,space,4.9598,,,,,,
,,,,,R_1b9er7B5oUU2GB3,001,2025-07-31_12h38.59.428,continuous_performance_test,2024.2.4,Win32,166.6666667,4374ae1e-80b2-4b5e-a2ad-6b3c67ac53d1,6,331.7398,333.5352,space,1,0.31,,0,1,1,22,1,W,space,,,,,,,,,,
,,,,,R_1b9er7B5oUU2GB3,001,2025-07-31_12h38.59.428,continuous_performance_test,2024.2.4,Win32,166.6666667,4374ae1e-80b2-4b5e-a2ad-6b3c67ac53d1,6,333.5359,335.3318,space,1,0.5534,,0,2,2,12,1,M,space,,,,,,,,,,
,,,,,R_1b9er7B5oUU2GB3,001,2025-07-31_12h38.59.428,continuous_performance_test,2024.2.4,Win32,166.6666667,4374ae1e-80b2-4b5e-a2ad-6b3c67ac53d1,6,335.3323,336.9325,space,1,0.6533,,0,3,3,15,1,P,space,,,,,,,,,,
,,,,,R_1b9er7B5oUU2GB3,001,2025-07-31_12h38.59.428,continuous_performance_test,2024.2.4,Win32,166.6666667,4374ae1e-80b2-4b5e-a2ad-6b3c67ac53d1,6,336.9331,338.4839,space,1,0.551,,0,4,4,20,1,U,space,,,,,,,,,,
,,,,,R_1b9er7B5oUU2GB3,001,2025-07-31_12h38.59.428,continuous_performance_test,2024.2.4,Win32,166.6666667,4374ae1e-80b2-4b5e-a2ad-6b3c67ac53d1,6,338.4847,340.1805,,1,,,0,5,5,28,1,X,,,,,,,,,,,
,,,,,R_1b9er7B5oUU2GB3,001,2025-07-31_12h38.59.428,continuous_performance_test,2024.2.4,Win32,166.6666667,4374ae1e-80b2-4b5e-a2ad-6b3c67ac53d1,6,340.181,341.8288,space,1,0.4855,,0,6,6,5,1,F,space,,,,,,,,,,
,,,,,R_1b9er7B5oUU2GB3,001,2025-07-31_12h38.59.428,continuous_performance_test,2024.2.4,Win32,166.6666667,4374ae1e-80b2-4b5e-a2ad-6b3c67ac53d1,6,341.8294,343.58,space,1,0.5214,,0,7,7,23,1,Y,space,,,,,,,,,,
,,,,,R_1b9er7B5oUU2GB3,001,2025-07-31_12h38.59.428,continuous_performance_test,2024.2.4,Win32,166.6666667,4374ae1e-80b2-4b5e-a2ad-6b3c67ac53d1,6,343.5806,345.3314,space,1,0.4971,,0,8,8,0,1,A,space,,,,,,,,,,
,,,,,R_1b9er7B5oUU2GB3,001,2025-07-31_12h38.59.428,continuous_performance_test,2024.2.4,Win32,166.6666667,4374ae1e-80b2-4b5e-a2ad-6b3c67ac53d1,6,345.332,347.1793,space,1,0.5096,,0,9,9,24,1,Z,space,,,,,,,,,,
,,,,,R_1b9er7B5oUU2GB3,001,2025-07-31_12h38.59.428,continuous_performance_test,2024.2.4,Win32,166.6666667,4374ae1e-80b2-4b5e-a2ad-6b3c67ac53d1,6,347.18,348.9793,space,1,0.4549,,0,10,10,7,1,H,space,,,,,,,,,,
,,,,,R_1b9er7B5oUU2GB3,001,2025-07-31_12h38.59.428,continuous_performance_test,2024.2.4,Win32,166.6666667,4374ae1e-80b2-4b5e-a2ad-6b3c67ac53d1,6,348.9798,350.6275,space,1,0.6249,,0,11,11,8,1,I,space,,,,,,,,,,
,,,,,R_1b9er7B5oUU2GB3,001,2025-07-31_12h38.59.428,continuous_performance_test,2024.2.4,Win32,166.6666667,4374ae1e-80b2-4b5e-a2ad-6b3c67ac53d1,6,350.6281,352.4273,space,1,0.5091,,0,12,12,6,1,G,space,,,,,,,,,,
,,,,,R_1b9er7B5oUU2GB3,001,2025-07-31_12h38.59.428,continuous_performance_test,2024.2.4,Win32,166.6666667,4374ae1e-80b2-4b5e-a2ad-6b3c67ac53d1,6,352.4279,354.3788,space,1,0.4364,,0,13,13,17,1,R,space,,,,,,,,,,
,,,,,R_1b9er7B5oUU2GB3,001,2025-07-31_12h38.59.428,continuous_performance_test,2024.2.4,Win32,166.6666667,4374ae1e-80b2-4b5e-a2ad-6b3c67ac53d1,6,354.3796,356.1299,space,1,0.3167,,0,14,14,11,1,L,space,,,,,,,,,,
,,,,,R_1b9er7B5oUU2GB3,001,2025-07-31_12h38.59.428,continuous_performance_test,2024.2.4,Win32,166.6666667,4374ae1e-80b2-4b5e-a2ad-6b3c67ac53d1,6,356.1305,358.0263,space,1,0.3824,,0,15,15,21,1,V,space,,,,,,,,,,
,,,,,R_1b9er7B5oUU2GB3,001,2025-07-31_12h38.59.428,continuous_performance_test,2024.2.4,Win32,166.6666667,4374ae1e-80b2-4b5e-a2ad-6b3c67ac53d1,6,358.0273,359.8264,,1,,,0,16,16,27,1,X,,,,,,,,,,,
,,,,,R_1b9er7B5oUU2GB3,001,2025-07-31_12h38.59.428,continuous_performance_test,2024.2.4,Win32,166.6666667,4374ae1e-80b2-4b5e-a2ad-6b3c67ac53d1,6,359.8271,361.5232,space,1,0.394,,0,17,17,1,1,B,space,,,,,,,,,,
,,,,,R_1b9er7B5oUU2GB3,001,2025-07-31_12h38.59.428,continuous_performance_test,2024.2.4,Win32,166.6666667,4374ae1e-80b2-4b5e-a2ad-6b3c67ac53d1,6,361.5239,363.3225,,1,,,0,18,18,26,1,X,,,,,,,,,,,
,,,,,R_1b9er7B5oUU2GB3,001,2025-07-31_12h38.59.428,continuous_performance_test,2024.2.4,Win32,166.6666667,4374ae1e-80b2-4b5e-a2ad-6b3c67ac53d1,6,363.3231,364.9713,,1,,,0,19,19,25,1,X,,,,,,,,,,,
,,,,,R_1b9er7B5oUU2GB3,001,2025-07-31_12h38.59.428,continuous_performance_test,2024.2.4,Win32,166.6666667,4374ae1e-80b2-4b5e-a2ad-6b3c67ac53d1,6,364.972,366.9705,space,1,0.376,,0,20,20,3,1,D,space,,,,,,,,,,
,,,,,R_1b9er7B5oUU2GB3,001,2025-07-31_12h38.59.428,continuous_performance_test,2024.2.4,Win32,166.6666667,4374ae1e-80b2-4b5e-a2ad-6b3c67ac53d1,6,366.9711,368.9268,space,1,0.3607,,0,21,21,18,1,S,space,,,,,,,,,,
,,,,,R_1b9er7B5oUU2GB3,001,2025-07-31_12h38.59.428,continuous_performance_test,2024.2.4,Win32,166.6666667,4374ae1e-80b2-4b5e-a2ad-6b3c67ac53d1,6,368.9274,370.6775,space,1,0.3035,,0,22,22,19,1,T,space,,,,,,,,,,
,,,,,R_1b9er7B5oUU2GB3,001,2025-07-31_12h38.59.428,continuous_performance_test,2024.2.4,Win32,166.6666667,4374ae1e-80b2-4b5e-a2ad-6b3c67ac53d1,6,370.6779,372.4291,space,1,0.493,,0,23,23,16,1,Q,space,,,,,,,,,,
,,,,,R_1b9er7B5oUU2GB3,001,2025-07-31_12h38.59.428,continuous_performance_test,2024.2.4,Win32,166.6666667,4374ae1e-80b2-4b5e-a2ad-6b3c67ac53d1,6,372.4298,374.3756,space,1,0.3812,,0,24,24,4,1,E,space,,,,,,,,,,
,,,,,R_1b9er7B5oUU2GB3,001,2025-07-31_12h38.59.428,continuous_performance_test,2024.2.4,Win32,166.6666667,4374ae1e-80b2-4b5e-a2ad-6b3c67ac53d1,6,374.3761,376.1269,space,0,0.3277,,0,25,25,29,1,X,,,,,,,,,,,
,,,,,R_1b9er7B5oUU2GB3,001,2025-07-31_12h38.59.428,continuous_performance_test,2024.2.4,Win32,166.6666667,4374ae1e-80b2-4b5e-a2ad-6b3c67ac53d1,6,376.1275,377.974,space,1,0.4371,,0,26,26,9,1,J,space,,,,,,,,,,
,,,,,R_1b9er7B5oUU2GB3,001,2025-07-31_12h38.59.428,continuous_performance_test,2024.2.4,Win32,166.6666667,4374ae1e-80b2-4b5e-a2ad-6b3c67ac53d1,6,377.9744,379.5202,space,1,0.5338,,0,27,27,13,1,N,space,,,,,,,,,,
,,,,,R_1b9er7B5oUU2GB3,001,2025-07-31_12h38.59.428,continuous_performance_test,2024.2.4,Win32,166.6666667,4374ae1e-80b2-4b5e-a2ad-6b3c67ac53d1,6,379.5207,381.4681,space,1,0.4974,,0,28,28,14,1,O,space,,,,,,,,,,
,,,,,R_1b9er7B5oUU2GB3,001,2025-07-31_12h38.59.428,continuous_performance_test,2024.2.4,Win32,166.6666667,4374ae1e-80b2-4b5e-a2ad-6b3c67ac53d1,6,381.4686,383.0651,space,1,0.3643,,0,29,29,10,1,K,space,,,,,,,,,,
,,,,,R_1b9er7B5oUU2GB3,001,2025-07-31_12h38.59.428,continuous_performance_test,2024.2.4,Win32,166.6666667,4374ae1e-80b2-4b5e-a2ad-6b3c67ac53d1,6,391.5636,393.4093,space,1,0.3939,,0,0,0,7,1,H,space,383.0658,391.561,space,8.4836,,,,,,
,,,,,R_1b9er7B5oUU2GB3,001,2025-07-31_12h38.59.428,continuous_performance_test,2024.2.4,Win32,166.6666667,4374ae1e-80b2-4b5e-a2ad-6b3c67ac53d1,6,393.4101,395.3589,space,1,0.5094,,0,1,1,19,1,T,space,,,,,,,,,,
,,,,,R_1b9er7B5oUU2GB3,001,2025-07-31_12h38.59.428,continuous_performance_test,2024.2.4,Win32,166.6666667,4374ae1e-80b2-4b5e-a2ad-6b3c67ac53d1,6,395.3593,397.1602,space,1,0.358,,0,2,2,16,1,Q,space,,,,,,,,,,
,,,,,R_1b9er7B5oUU2GB3,001,2025-07-31_12h38.59.428,continuous_performance_test,2024.2.4,Win32,166.6666667,4374ae1e-80b2-4b5e-a2ad-6b3c67ac53d1,6,397.1608,398.8086,space,1,0.4965,,0,3,3,15,1,P,space,,,,,,,,,,
,,,,,R_1b9er7B5oUU2GB3,001,2025-07-31_12h38.59.428,continuous_performance_test,2024.2.4,Win32,166.6666667,4374ae1e-80b2-4b5e-a2ad-6b3c67ac53d1,6,398.8092,400.7596,space,1,0.6366,,0,4,4,6,1,G,space,,,,,,,,,,
,,,,,R_1b9er7B5oUU2GB3,001,2025-07-31_12h38.59.428,continuous_performance_test,2024.2.4,Win32,166.6666667,4374ae1e-80b2-4b5e-a2ad-6b3c67ac53d1,6,400.7604,402.4566,space,1,0.5093,,0,5,5,21,1,V,space,,,,,,,,,,
,,,,,R_1b9er7B5oUU2GB3,001,2025-07-31_12h38.59.428,continuous_performance_test,2024.2.4,Win32,166.6666667,4374ae1e-80b2-4b5e-a2ad-6b3c67ac53d1,6,402.4571,404.1531,space,1,0.3278,,0,6,6,17,1,R,space,,,,,,,,,,
,,,,,R_1b9er7B5oUU2GB3,001,2025-07-31_12h38.59.428,continuous_performance_test,2024.2.4,Win32,166.6666667,4374ae1e-80b2-4b5e-a2ad-6b3c67ac53d1,6,404.1536,405.7044,space,1,0.382,,0,7,7,14,1,O,space,,,,,,,,,,
,,,,,R_1b9er7B5oUU2GB3,001,2025-07-31_12h38.59.428,continuous_performance_test,2024.2.4,Win32,166.6666667,4374ae1e-80b2-4b5e-a2ad-6b3c67ac53d1,6,405.7051,407.4565,,1,,,0,8,8,27,1,X,,,,,,,,,,,
,,,,,R_1b9er7B5oUU2GB3,001,2025-07-31_12h38.59.428,continuous_performance_test,2024.2.4,Win32,166.6666667,4374ae1e-80b2-4b5e-a2ad-6b3c67ac53d1,6,407.457,409.3573,,1,,,0,9,9,29,1,X,,,,,,,,,,,
,,,,,R_1b9er7B5oUU2GB3,001,2025-07-31_12h38.59.428,continuous_performance_test,2024.2.4,Win32,166.6666667,4374ae1e-80b2-4b5e-a2ad-6b3c67ac53d1,6,409.3581,411.1561,space,1,0.3461,,0,10,10,1,1,B,space,,,,,,,,,,
,,,,,R_1b9er7B5oUU2GB3,001,2025-07-31_12h38.59.428,continuous_performance_test,2024.2.4,Win32,166.6666667,4374ae1e-80b2-4b5e-a2ad-6b3c67ac53d1,6,411.1565,413.0066,space,1,0.3643,,0,11,11,24,1,Z,space,,,,,,,,,,
,,,,,R_1b9er7B5oUU2GB3,001,2025-07-31_12h38.59.428,continuous_performance_test,2024.2.4,Win32,166.6666667,4374ae1e-80b2-4b5e-a2ad-6b3c67ac53d1,6,413.0073,414.8061,space,1,0.4857,,0,12,12,22,1,W,space,,,,,,,,,,
,,,,,R_1b9er7B5oUU2GB3,001,2025-07-31_12h38.59.428,continuous_performance_test,2024.2.4,Win32,166.6666667,4374ae1e-80b2-4b5e-a2ad-6b3c67ac53d1,6,414.8067,416.5056,space,1,0.5217,,0,13,13,4,1,E,space,,,,,,,,,,
,,,,,R_1b9er7B5oUU2GB3,001,2025-07-31_12h38.59.428,continuous_performance_test,2024.2.4,Win32,166.6666667,4374ae1e-80b2-4b5e-a2ad-6b3c67ac53d1,6,416.5063,418.4542,,1,,,0,14,14,25,1,X,,,,,,,,,,,
,,,,,R_1b9er7B5oUU2GB3,001,2025-07-31_12h38.59.428,continuous_performance_test,2024.2.4,Win32,166.6666667,4374ae1e-80b2-4b5e-a2ad-6b3c67ac53d1,6,418.4549,420.3508,space,1,0.3224,,0,15,15,5,1,F,space,,,,,,,,,,
,,,,,R_1b9er7B5oUU2GB3,001,2025-07-31_12h38.59.428,continuous_performance_test,2024.2.4,Win32,166.6666667,4374ae1e-80b2-4b5e-a2ad-6b3c67ac53d1,6,420.3513,422.1473,space,1,0.481,,0,16,16,0,1,A,space,,,,,,,,,,
,,,,,R_1b9er7B5oUU2GB3,001,2025-07-31_12h38.59.428,continuous_performance_test,2024.2.4,Win32,166.6666667,4374ae1e-80b2-4b5e-a2ad-6b3c67ac53d1,6,422.1478,424.1496,,1,,,0,17,17,28,1,X,,,,,,,,,,,
,,,,,R_1b9er7B5oUU2GB3,001,2025-07-31_12h38.59.428,continuous_performance_test,2024.2.4,Win32,166.6666667,4374ae1e-80b2-4b5e-a2ad-6b3c67ac53d1,6,424.1503,425.8956,space,1,0.3755,,0,18,18,23,1,Y,space,,,,,,,,,,
,,,,,R_1b9er7B5oUU2GB3,001,2025-07-31_12h38.59.428,continuous_performance_test,2024.2.4,Win32,166.6666667,4374ae1e-80b2-4b5e-a2ad-6b3c67ac53d1,6,425.8962,427.4471,space,1,0.4978,,0,19,19,3,1,D,space,,,,,,,,,,
,,,,,R_1b9er7B5oUU2GB3,001,2025-07-31_12h38.59.428,continuous_performance_test,2024.2.4,Win32,166.6666667,4374ae1e-80b2-4b5e-a2ad-6b3c67ac53d1,6,427.4477,429.0467,space,1,0.8606,,0,20,20,13,1,N,space,,,,,,,,,,
,,,,,R_1b9er7B5oUU2GB3,001,2025-07-31_12h38.59.428,continuous_performance_test,2024.2.4,Win32,166.6666667,4374ae1e-80b2-4b5e-a2ad-6b3c67ac53d1,6,429.0474,430.7962,,1,,,0,21,21,26,1,X,,,,,,,,,,,
,,,,,R_1b9er7B5oUU2GB3,001,2025-07-31_12h38.59.428,continuous_performance_test,2024.2.4,Win32,166.6666667,4374ae1e-80b2-4b5e-a2ad-6b3c67ac53d1,6,430.7969,432.6929,space,1,0.3153,,0,22,22,18,1,S,space,,,,,,,,,,
,,,,,R_1b9er7B5oUU2GB3,001,2025-07-31_12h38.59.428,continuous_performance_test,2024.2.4,Win32,166.6666667,4374ae1e-80b2-4b5e-a2ad-6b3c67ac53d1,6,432.6936,434.3917,space,1,0.5466,,0,23,23,12,1,M,space,,,,,,,,,,
,,,,,R_1b9er7B5oUU2GB3,001,2025-07-31_12h38.59.428,continuous_performance_test,2024.2.4,Win32,166.6666667,4374ae1e-80b2-4b5e-a2ad-6b3c67ac53d1,6,434.3926,436.2874,space,1,0.4729,,0,24,24,11,1,L,space,,,,,,,,,,
,,,,,R_1b9er7B5oUU2GB3,001,2025-07-31_12h38.59.428,continuous_performance_test,2024.2.4,Win32,166.6666667,4374ae1e-80b2-4b5e-a2ad-6b3c67ac53d1,6,436.2884,438.1363,space,1,0.421,,0,25,25,10,1,K,space,,,,,,,,,,
,,,,,R_1b9er7B5oUU2GB3,001,2025-07-31_12h38.59.428,continuous_performance_test,2024.2.4,Win32,166.6666667,4374ae1e-80b2-4b5e-a2ad-6b3c67ac53d1,6,438.1369,440.1364,space,1,0.3875,,0,26,26,20,1,U,space,,,,,,,,,,
,,,,,R_1b9er7B5oUU2GB3,001,2025-07-31_12h38.59.428,continuous_performance_test,2024.2.4,Win32,166.6666667,4374ae1e-80b2-4b5e-a2ad-6b3c67ac53d1,6,440.1372,441.8929,space,1,0.3642,,0,27,27,2,1,C,space,,,,,,,,,,
,,,,,R_1b9er7B5oUU2GB3,001,2025-07-31_12h38.59.428,continuous_performance_test,2024.2.4,Win32,166.6666667,4374ae1e-80b2-4b5e-a2ad-6b3c67ac53d1,6,441.8934,443.789,space,1,0.346,,0,28,28,9,1,J,space,,,,,,,,,,
,,,,,R_1b9er7B5oUU2GB3,001,2025-07-31_12h38.59.428,continuous_performance_test,2024.2.4,Win32,166.6666667,4374ae1e-80b2-4b5e-a2ad-6b3c67ac53d1,6,443.7896,445.439,space,1,0.4242,,0,29,29,8,1,I,space,,,,,,,,,,
,,,,,R_1b9er7B5oUU2GB3,001,2025-07-31_12h38.59.428,continuous_performance_test,2024.2.4,Win32,166.6666667,4374ae1e-80b2-4b5e-a2ad-6b3c67ac53d1,6,453.9672,455.8126,space,1,0.3096,,0,0,0,17,1,R,space,445.4396,453.9642,space,8.5134,,,,,,
,,,,,R_1b9er7B5oUU2GB3,001,2025-07-31_12h38.59.428,continuous_performance_test,2024.2.4,Win32,166.6666667,4374ae1e-80b2-4b5e-a2ad-6b3c67ac53d1,6,455.8132,457.5636,space,1,0.321,,0,1,1,24,1,Z,space,,,,,,,,,,
,,,,,R_1b9er7B5oUU2GB3,001,2025-07-31_12h38.59.428,continuous_performance_test,2024.2.4,Win32,166.6666667,4374ae1e-80b2-4b5e-a2ad-6b3c67ac53d1,6,457.5642,459.3603,space,1,0.3935,,0,2,2,3,1,D,space,,,,,,,,,,
,,,,,R_1b9er7B5oUU2GB3,001,2025-07-31_12h38.59.428,continuous_performance_test,2024.2.4,Win32,166.6666667,4374ae1e-80b2-4b5e-a2ad-6b3c67ac53d1,6,459.3611,461.2603,space,1,0.3888,,0,3,3,5,1,F,space,,,,,,,,,,
,,,,,R_1b9er7B5oUU2GB3,001,2025-07-31_12h38.59.428,continuous_performance_test,2024.2.4,Win32,166.6666667,4374ae1e-80b2-4b5e-a2ad-6b3c67ac53d1,6,461.2611,463.0116,space,1,0.5033,,0,4,4,11,1,L,space,,,,,,,,,,
,,,,,R_1b9er7B5oUU2GB3,001,2025-07-31_12h38.59.428,continuous_performance_test,2024.2.4,Win32,166.6666667,4374ae1e-80b2-4b5e-a2ad-6b3c67ac53d1,6,463.0123,464.6114,space,1,0.34,,0,5,5,4,1,E,space,,,,,,,,,,
,,,,,R_1b9er7B5oUU2GB3,001,2025-07-31_12h38.59.428,continuous_performance_test,2024.2.4,Win32,166.6666667,4374ae1e-80b2-4b5e-a2ad-6b3c67ac53d1,6,464.6121,466.3081,space,1,0.4117,,0,6,6,14,1,O,space,,,,,,,,,,
,,,,,R_1b9er7B5oUU2GB3,001,2025-07-31_12h38.59.428,continuous_performance_test,2024.2.4,Win32,166.6666667,4374ae1e-80b2-4b5e-a2ad-6b3c67ac53d1,6,466.3087,468.1563,space,1,0.4192,,0,7,7,12,1,M,space,,,,,,,,,,
,,,,,R_1b9er7B5oUU2GB3,001,2025-07-31_12h38.59.428,continuous_performance_test,2024.2.4,Win32,166.6666667,4374ae1e-80b2-4b5e-a2ad-6b3c67ac53d1,6,468.1567,469.8531,space,1,0.3637,,0,8,8,10,1,K,space,,,,,,,,,,
,,,,,R_1b9er7B5oUU2GB3,001,2025-07-31_12h38.59.428,continuous_performance_test,2024.2.4,Win32,166.6666667,4374ae1e-80b2-4b5e-a2ad-6b3c67ac53d1,6,469.8535,471.8546,space,1,0.5273,,0,9,9,0,1,A,space,,,,,,,,,,
,,,,,R_1b9er7B5oUU2GB3,001,2025-07-31_12h38.59.428,continuous_performance_test,2024.2.4,Win32,166.6666667,4374ae1e-80b2-4b5e-a2ad-6b3c67ac53d1,6,471.8555,473.701,space,1,0.3338,,0,10,10,22,1,W,space,,,,,,,,,,
,,,,,R_1b9er7B5oUU2GB3,001,2025-07-31_12h38.59.428,continuous_performance_test,2024.2.4,Win32,166.6666667,4374ae1e-80b2-4b5e-a2ad-6b3c67ac53d1,6,473.7014,475.5008,space,0,0.2726,,0,11,11,25,1,X,,,,,,,,,,,
,,,,,R_1b9er7B5oUU2GB3,001,2025-07-31_12h38.59.428,continuous_performance_test,2024.2.4,Win32,166.6666667,4374ae1e-80b2-4b5e-a2ad-6b3c67ac53d1,6,475.5013,477.1973,space,1,0.3889,,0,12,12,6,1,G,space,,,,,,,,,,
,,,,,R_1b9er7B5oUU2GB3,001,2025-07-31_12h38.59.428,continuous_performance_test,2024.2.4,Win32,166.6666667,4374ae1e-80b2-4b5e-a2ad-6b3c67ac53d1,6,477.1978,479.197,space,1,0.3149,,0,13,13,18,1,S,space,,,,,,,,,,
,,,,,R_1b9er7B5oUU2GB3,001,2025-07-31_12h38.59.428,continuous_performance_test,2024.2.4,Win32,166.6666667,4374ae1e-80b2-4b5e-a2ad-6b3c67ac53d1,6,479.1976,480.7969,,1,,,0,14,14,27,1,X,,,,,,,,,,,
,,,,,R_1b9er7B5oUU2GB3,001,2025-07-31_12h38.59.428,continuous_performance_test,2024.2.4,Win32,166.6666667,4374ae1e-80b2-4b5e-a2ad-6b3c67ac53d1,6,480.7973,482.3967,space,1,0.3452,,0,15,15,1,1,B,space,,,,,,,,,,
,,,,,R_1b9er7B5oUU2GB3,001,2025-07-31_12h38.59.428,continuous_performance_test,2024.2.4,Win32,166.6666667,4374ae1e-80b2-4b5e-a2ad-6b3c67ac53d1,6,482.3971,484.3971,space,1,0.3402,,0,16,16,21,1,V,space,,,,,,,,,,
,,,,,R_1b9er7B5oUU2GB3,001,2025-07-31_12h38.59.428,continuous_performance_test,2024.2.4,Win32,166.6666667,4374ae1e-80b2-4b5e-a2ad-6b3c67ac53d1,6,484.3977,486.2931,space,1,0.4188,,0,17,17,9,1,J,space,,,,,,,,,,
,,,,,R_1b9er7B5oUU2GB3,001,2025-07-31_12h38.59.428,continuous_performance_test,2024.2.4,Win32,166.6666667,4374ae1e-80b2-4b5e-a2ad-6b3c67ac53d1,6,486.2939,488.0927,,1,,,0,18,18,28,1,X,,,,,,,,,,,
,,,,,R_1b9er7B5oUU2GB3,001,2025-07-31_12h38.59.428,continuous_performance_test,2024.2.4,Win32,166.6666667,4374ae1e-80b2-4b5e-a2ad-6b3c67ac53d1,6,488.0934,490.044,space,1,0.34,,0,19,19,19,1,T,space,,,,,,,,,,
,,,,,R_1b9er7B5oUU2GB3,001,2025-07-31_12h38.59.428,continuous_performance_test,2024.2.4,Win32,166.6666667,4374ae1e-80b2-4b5e-a2ad-6b3c67ac53d1,6,490.0445,491.5912,,1,,,0,20,20,29,1,X,,,,,,,,,,,
,,,,,R_1b9er7B5oUU2GB3,001,2025-07-31_12h38.59.428,continuous_performance_test,2024.2.4,Win32,166.6666667,4374ae1e-80b2-4b5e-a2ad-6b3c67ac53d1,6,491.5919,493.3403,space,0,0.3244,,0,21,21,26,1,X,,,,,,,,,,,
,,,,,R_1b9er7B5oUU2GB3,001,2025-07-31_12h38.59.428,continuous_performance_test,2024.2.4,Win32,166.6666667,4374ae1e-80b2-4b5e-a2ad-6b3c67ac53d1,6,493.3409,494.9888,space,1,0.3966,,0,22,22,8,1,I,space,,,,,,,,,,
,,,,,R_1b9er7B5oUU2GB3,001,2025-07-31_12h38.59.428,continuous_performance_test,2024.2.4,Win32,166.6666667,4374ae1e-80b2-4b5e-a2ad-6b3c67ac53d1,6,494.9894,496.7403,space,1,0.57,,0,23,23,20,1,U,space,,,,,,,,,,
,,,,,R_1b9er7B5oUU2GB3,001,2025-07-31_12h38.59.428,continuous_performance_test,2024.2.4,Win32,166.6666667,4374ae1e-80b2-4b5e-a2ad-6b3c67ac53d1,6,496.7408,498.4915,space,1,0.4485,,0,24,24,2,1,C,space,,,,,,,,,,
,,,,,R_1b9er7B5oUU2GB3,001,2025-07-31_12h38.59.428,continuous_performance_test,2024.2.4,Win32,166.6666667,4374ae1e-80b2-4b5e-a2ad-6b3c67ac53d1,6,498.4922,500.3881,space,1,0.4261,,0,25,25,15,1,P,space,,,,,,,,,,
,,,,,R_1b9er7B5oUU2GB3,001,2025-07-31_12h38.59.428,continuous_performance_test,2024.2.4,Win32,166.6666667,4374ae1e-80b2-4b5e-a2ad-6b3c67ac53d1,6,500.3887,502.0361,space,1,0.3997,,0,26,26,7,1,H,space,,,,,,,,,,
,,,,,R_1b9er7B5oUU2GB3,001,2025-07-31_12h38.59.428,continuous_performance_test,2024.2.4,Win32,166.6666667,4374ae1e-80b2-4b5e-a2ad-6b3c67ac53d1,6,502.0368,503.7862,space,1,0.4548,,0,27,27,13,1,N,space,,,,,,,,,,
,,,,,R_1b9er7B5oUU2GB3,001,2025-07-31_12h38.59.428,continuous_performance_test,2024.2.4,Win32,166.6666667,4374ae1e-80b2-4b5e-a2ad-6b3c67ac53d1,6,503.7867,505.4848,space,1,0.3328,,0,28,28,23,1,Y,space,,,,,,,,,,
,,,,,R_1b9er7B5oUU2GB3,001,2025-07-31_12h38.59.428,continuous_performance_test,2024.2.4,Win32,166.6666667,4374ae1e-80b2-4b5e-a2ad-6b3c67ac53d1,6,505.4854,507.2318,space,1,0.3987,,0,29,29,16,1,Q,space,,,,,,,,,,
,,,,,R_1b9er7B5oUU2GB3,001,2025-07-31_12h38.59.428,continuous_performance_test,2024.2.4,Win32,166.6666667,4374ae1e-80b2-4b5e-a2ad-6b3c67ac53d1,6,513.607,515.5556,space,1,0.4912,,0,0,0,0,1,A,space,507.2323,513.6043,space,6.366,,,,,,
,,,,,R_1b9er7B5oUU2GB3,001,2025-07-31_12h38.59.428,continuous_performance_test,2024.2.4,Win32,166.6666667,4374ae1e-80b2-4b5e-a2ad-6b3c67ac53d1,6,515.5561,517.3068,space,1,0.3269,,0,1,1,15,1,P,space,,,,,,,,,,
,,,,,R_1b9er7B5oUU2GB3,001,2025-07-31_12h38.59.428,continuous_performance_test,2024.2.4,Win32,166.6666667,4374ae1e-80b2-4b5e-a2ad-6b3c67ac53d1,6,517.3073,518.8581,space,1,0.4003,,0,2,2,4,1,E,space,,,,,,,,,,
,,,,,R_1b9er7B5oUU2GB3,001,2025-07-31_12h38.59.428,continuous_performance_test,2024.2.4,Win32,166.6666667,4374ae1e-80b2-4b5e-a2ad-6b3c67ac53d1,6,518.8585,520.7063,space,1,0.3286,,0,3,3,3,1,D,space,,,,,,,,,,
,,,,,R_1b9er7B5oUU2GB3,001,2025-07-31_12h38.59.428,continuous_performance_test,2024.2.4,Win32,166.6666667,4374ae1e-80b2-4b5e-a2ad-6b3c67ac53d1,6,520.7068,522.3546,space,1,0.473,,0,4,4,23,1,Y,space,,,,,,,,,,
,,,,,R_1b9er7B5oUU2GB3,001,2025-07-31_12h38.59.428,continuous_performance_test,2024.2.4,Win32,166.6666667,4374ae1e-80b2-4b5e-a2ad-6b3c67ac53d1,6,522.3553,524.0514,space,1,0.3333,,0,5,5,16,1,Q,space,,,,,,,,,,
,,,,,R_1b9er7B5oUU2GB3,001,2025-07-31_12h38.59.428,continuous_performance_test,2024.2.4,Win32,166.6666667,4374ae1e-80b2-4b5e-a2ad-6b3c67ac53d1,6,524.0521,525.651,space,1,0.3699,,0,6,6,2,1,C,space,,,,,,,,,,
,,,,,R_1b9er7B5oUU2GB3,001,2025-07-31_12h38.59.428,continuous_performance_test,2024.2.4,Win32,166.6666667,4374ae1e-80b2-4b5e-a2ad-6b3c67ac53d1,6,525.6516,527.4069,space,1,0.3809,,0,7,7,20,1,U,space,,,,,,,,,,
,,,,,R_1b9er7B5oUU2GB3,001,2025-07-31_12h38.59.428,continuous_performance_test,2024.2.4,Win32,166.6666667,4374ae1e-80b2-4b5e-a2ad-6b3c67ac53d1,6,527.4076,529.3538,space,1,0.3341,,0,8,8,5,1,F,space,,,,,,,,,,
,,,,,R_1b9er7B5oUU2GB3,001,2025-07-31_12h38.59.428,continuous_performance_test,2024.2.4,Win32,166.6666667,4374ae1e-80b2-4b5e-a2ad-6b3c67ac53d1,6,529.3546,531.1577,space,1,0.2729,,0,9,9,8,1,I,space,,,,,,,,,,
,,,,,R_1b9er7B5oUU2GB3,001,2025-07-31_12h38.59.428,continuous_performance_test,2024.2.4,Win32,166.6666667,4374ae1e-80b2-4b5e-a2ad-6b3c67ac53d1,6,531.1583,532.8562,space,1,0.3519,,0,10,10,14,1,O,space,,,,,,,,,,
,,,,,R_1b9er7B5oUU2GB3,001,2025-07-31_12h38.59.428,continuous_performance_test,2024.2.4,Win32,166.6666667,4374ae1e-80b2-4b5e-a2ad-6b3c67ac53d1,6,532.8568,534.5044,,1,,,0,11,11,27,1,X,,,,,,,,,,,
,,,,,R_1b9er7B5oUU2GB3,001,2025-07-31_12h38.59.428,continuous_performance_test,2024.2.4,Win32,166.6666667,4374ae1e-80b2-4b5e-a2ad-6b3c67ac53d1,6,534.5049,536.201,space,1,0.3935,,0,12,12,13,1,N,space,,,,,,,,,,
,,,,,R_1b9er7B5oUU2GB3,001,2025-07-31_12h38.59.428,continuous_performance_test,2024.2.4,Win32,166.6666667,4374ae1e-80b2-4b5e-a2ad-6b3c67ac53d1,6,536.2016,538.0009,space,1,0.2911,,0,13,13,1,1,B,space,,,,,,,,,,
,,,,,R_1b9er7B5oUU2GB3,001,2025-07-31_12h38.59.428,continuous_performance_test,2024.2.4,Win32,166.6666667,4374ae1e-80b2-4b5e-a2ad-6b3c67ac53d1,6,538.0014,539.849,space,1,0.3334,,0,14,14,10,1,K,space,,,,,,,,,,
,,,,,R_1b9er7B5oUU2GB3,001,2025-07-31_12h38.59.428,continuous_performance_test,2024.2.4,Win32,166.6666667,4374ae1e-80b2-4b5e-a2ad-6b3c67ac53d1,6,539.8495,541.6974,space,1,0.3035,,0,15,15,18,1,S,space,,,,,,,,,,
,,,,,R_1b9er7B5oUU2GB3,001,2025-07-31_12h38.59.428,continuous_performance_test,2024.2.4,Win32,166.6666667,4374ae1e-80b2-4b5e-a2ad-6b3c67ac53d1,6,541.6982,543.697,space,1,0.3584,,0,16,16,17,1,R,space,,,,,,,,,,
,,,,,R_1b9er7B5oUU2GB3,001,2025-07-31_12h38.59.428,continuous_performance_test,2024.2.4,Win32,166.6666667,4374ae1e-80b2-4b5e-a2ad-6b3c67ac53d1,6,543.6974,545.5452,space,1,0.2972,,0,17,17,12,1,M,space,,,,,,,,,,
,,,,,R_1b9er7B5oUU2GB3,001,2025-07-31_12h38.59.428,continuous_performance_test,2024.2.4,Win32,166.6666667,4374ae1e-80b2-4b5e-a2ad-6b3c67ac53d1,6,545.5458,547.0956,,1,,,0,18,18,29,1,X,,,,,,,,,,,
,,,,,R_1b9er7B5oUU2GB3,001,2025-07-31_12h38.59.428,continuous_performance_test,2024.2.4,Win32,166.6666667,4374ae1e-80b2-4b5e-a2ad-6b3c67ac53d1,6,547.096,549.0418,space,1,0.4071,,0,19,19,24,1,Z,space,,,,,,,,,,
,,,,,R_1b9er7B5oUU2GB3,001,2025-07-31_12h38.59.428,continuous_performance_test,2024.2.4,Win32,166.6666667,4374ae1e-80b2-4b5e-a2ad-6b3c67ac53d1,6,549.0424,550.7932,,1,,,0,20,20,25,1,X,,,,,,,,,,,
,,,,,R_1b9er7B5oUU2GB3,001,2025-07-31_12h38.59.428,continuous_performance_test,2024.2.4,Win32,166.6666667,4374ae1e-80b2-4b5e-a2ad-6b3c67ac53d1,6,550.7935,552.5442,space,0,0.2796,,0,21,21,28,1,X,,,,,,,,,,,
,,,,,R_1b9er7B5oUU2GB3,001,2025-07-31_12h38.59.428,continuous_performance_test,2024.2.4,Win32,166.6666667,4374ae1e-80b2-4b5e-a2ad-6b3c67ac53d1,6,552.5447,554.5442,space,1,0.394,,0,22,22,9,1,J,space,,,,,,,,,,
,,,,,R_1b9er7B5oUU2GB3,001,2025-07-31_12h38.59.428,continuous_performance_test,2024.2.4,Win32,166.6666667,4374ae1e-80b2-4b5e-a2ad-6b3c67ac53d1,6,554.5448,556.0944,space,1,0.5107,,0,23,23,6,1,G,space,,,,,,,,,,
,,,,,R_1b9er7B5oUU2GB3,001,2025-07-31_12h38.59.428,continuous_performance_test,2024.2.4,Win32,166.6666667,4374ae1e-80b2-4b5e-a2ad-6b3c67ac53d1,6,556.0954,558.094,space,1,0.3333,,0,24,24,7,1,H,space,,,,,,,,,,
,,,,,R_1b9er7B5oUU2GB3,001,2025-07-31_12h38.59.428,continuous_performance_test,2024.2.4,Win32,166.6666667,4374ae1e-80b2-4b5e-a2ad-6b3c67ac53d1,6,558.0945,559.6452,space,1,0.3695,,0,25,25,21,1,V,space,,,,,,,,,,
,,,,,R_1b9er7B5oUU2GB3,001,2025-07-31_12h38.59.428,continuous_performance_test,2024.2.4,Win32,166.6666667,4374ae1e-80b2-4b5e-a2ad-6b3c67ac53d1,6,559.6456,561.5433,space,1,0.6065,,0,26,26,22,1,W,space,,,,,,,,,,
,,,,,R_1b9er7B5oUU2GB3,001,2025-07-31_12h38.59.428,continuous_performance_test,2024.2.4,Win32,166.6666667,4374ae1e-80b2-4b5e-a2ad-6b3c67ac53d1,6,561.5439,563.4398,,1,,,0,27,27,26,1,X,,,,,,,,,,,
,,,,,R_1b9er7B5oUU2GB3,001,2025-07-31_12h38.59.428,continuous_performance_test,2024.2.4,Win32,166.6666667,4374ae1e-80b2-4b5e-a2ad-6b3c67ac53d1,6,563.4401,564.9912,space,1,0.5943,,0,28,28,19,1,T,space,,,,,,,,,,
,,,,,R_1b9er7B5oUU2GB3,001,2025-07-31_12h38.59.428,continuous_performance_test,2024.2.4,Win32,166.6666667,4374ae1e-80b2-4b5e-a2ad-6b3c67ac53d1,6,564.9917,566.5899,space,1,0.334,,0,29,29,11,1,L,space,,,,,,,,,,
,,,,,R_1b9er7B5oUU2GB3,001,2025-07-31_12h38.59.428,continuous_performance_test,2024.2.4,Win32,166.6666667,4374ae1e-80b2-4b5e-a2ad-6b3c67ac53d1,6,569.1502,571.0558,space,1,0.3995,,0,0,0,2,1,C,space,566.5902,569.1474,space,2.5449,,,,,,
,,,,,R_1b9er7B5oUU2GB3,001,2025-07-31_12h38.59.428,continuous_performance_test,2024.2.4,Win32,166.6666667,4374ae1e-80b2-4b5e-a2ad-6b3c67ac53d1,6,571.0564,572.6483,space,1,0.3725,,0,1,1,0,1,A,space,,,,,,,,,,
,,,,,R_1b9er7B5oUU2GB3,001,2025-07-31_12h38.59.428,continuous_performance_test,2024.2.4,Win32,166.6666667,4374ae1e-80b2-4b5e-a2ad-6b3c67ac53d1,6,572.649,574.4988,space,1,0.4834,,0,2,2,22,1,W,space,,,,,,,,,,
,,,,,R_1b9er7B5oUU2GB3,001,2025-07-31_12h38.59.428,continuous_performance_test,2024.2.4,Win32,166.6666667,4374ae1e-80b2-4b5e-a2ad-6b3c67ac53d1,6,574.4994,576.1472,,1,,,0,3,3,27,1,X,,,,,,,,,,,
,,,,,R_1b9er7B5oUU2GB3,001,2025-07-31_12h38.59.428,continuous_performance_test,2024.2.4,Win32,166.6666667,4374ae1e-80b2-4b5e-a2ad-6b3c67ac53d1,6,576.1479,577.9458,space,1,0.309,,0,4,4,3,1,D,space,,,,,,,,,,
,,,,,R_1b9er7B5oUU2GB3,001,2025-07-31_12h38.59.428,continuous_performance_test,2024.2.4,Win32,166.6666667,4374ae1e-80b2-4b5e-a2ad-6b3c67ac53d1,6,577.9463,579.6438,space,1,0.3095,,0,5,5,21,1,V,space,,,,,,,,,,
,,,,,R_1b9er7B5oUU2GB3,001,2025-07-31_12h38.59.428,continuous_performance_test,2024.2.4,Win32,166.6666667,4374ae1e-80b2-4b5e-a2ad-6b3c67ac53d1,6,579.6444,581.2884,space,1,0.4254,,0,6,6,7,1,H,space,,,,,,,,,,
,,,,,R_1b9er7B5oUU2GB3,001,2025-07-31_12h38.59.428,continuous_performance_test,2024.2.4,Win32,166.6666667,4374ae1e-80b2-4b5e-a2ad-6b3c67ac53d1,6,581.2893,583.2873,space,1,0.2967,,0,7,7,11,1,L,space,,,,,,,,,,
,,,,,R_1b9er7B5oUU2GB3,001,2025-07-31_12h38.59.428,continuous_performance_test,2024.2.4,Win32,166.6666667,4374ae1e-80b2-4b5e-a2ad-6b3c67ac53d1,6,583.2878,585.0368,space,1,0.4734,,0,8,8,18,1,S,space,,,,,,,,,,
,,,,,R_1b9er7B5oUU2GB3,001,2025-07-31_12h38.59.428,continuous_performance_test,2024.2.4,Win32,166.6666667,4374ae1e-80b2-4b5e-a2ad-6b3c67ac53d1,6,585.0374,586.588,space,1,0.4985,,0,9,9,10,1,K,space,,,,,,,,,,
,,,,,R_1b9er7B5oUU2GB3,001,2025-07-31_12h38.59.428,continuous_performance_test,2024.2.4,Win32,166.6666667,4374ae1e-80b2-4b5e-a2ad-6b3c67ac53d1,6,586.5884,588.3394,space,1,0.5989,,0,10,10,4,1,E,space,,,,,,,,,,
,,,,,R_1b9er7B5oUU2GB3,001,2025-07-31_12h38.59.428,continuous_performance_test,2024.2.4,Win32,166.6666667,4374ae1e-80b2-4b5e-a2ad-6b3c67ac53d1,6,588.3398,590.339,,1,,,0,11,11,25,1,X,,,,,,,,,,,
,,,,,R_1b9er7B5oUU2GB3,001,2025-07-31_12h38.59.428,continuous_performance_test,2024.2.4,Win32,166.6666667,4374ae1e-80b2-4b5e-a2ad-6b3c67ac53d1,6,590.3396,592.2357,space,1,0.3822,,0,12,12,17,1,R,space,,,,,,,,,,
,,,,,R_1b9er7B5oUU2GB3,001,2025-07-31_12h38.59.428,continuous_performance_test,2024.2.4,Win32,166.6666667,4374ae1e-80b2-4b5e-a2ad-6b3c67ac53d1,6,592.2362,594.1868,space,1,0.3467,,0,13,13,8,1,I,space,,,,,,,,,,
,,,,,R_1b9er7B5oUU2GB3,001,2025-07-31_12h38.59.428,continuous_performance_test,2024.2.4,Win32,166.6666667,4374ae1e-80b2-4b5e-a2ad-6b3c67ac53d1,6,594.1873,596.1867,space,1,0.4368,,0,14,14,24,1,Z,space,,,,,,,,,,
,,,,,R_1b9er7B5oUU2GB3,001,2025-07-31_12h38.59.428,continuous_performance_test,2024.2.4,Win32,166.6666667,4374ae1e-80b2-4b5e-a2ad-6b3c67ac53d1,6,596.1871,598.1846,space,1,0.2976,,0,15,15,12,1,M,space,,,,,,,,,,
,,,,,R_1b9er7B5oUU2GB3,001,2025-07-31_12h38.59.428,continuous_performance_test,2024.2.4,Win32,166.6666667,4374ae1e-80b2-4b5e-a2ad-6b3c67ac53d1,6,598.1851,599.7317,space,0,0.2851,,0,16,16,29,1,X,,,,,,,,,,,
,,,,,R_1b9er7B5oUU2GB3,001,2025-07-31_12h38.59.428,continuous_performance_test,2024.2.4,Win32,166.6666667,4374ae1e-80b2-4b5e-a2ad-6b3c67ac53d1,6,599.7323,601.7314,space,1,0.3096,,0,17,17,13,1,N,space,,,,,,,,,,
,,,,,R_1b9er7B5oUU2GB3,001,2025-07-31_12h38.59.428,continuous_performance_test,2024.2.4,Win32,166.6666667,4374ae1e-80b2-4b5e-a2ad-6b3c67ac53d1,6,601.7322,603.7309,space,1,0.3035,,0,18,18,1,1,B,space,,,,,,,,,,
,,,,,R_1b9er7B5oUU2GB3,001,2025-07-31_12h38.59.428,continuous_performance_test,2024.2.4,Win32,166.6666667,4374ae1e-80b2-4b5e-a2ad-6b3c67ac53d1,6,603.7314,605.5306,space,1,0.3394,,0,19,19,19,1,T,space,,,,,,,,,,
,,,,,R_1b9er7B5oUU2GB3,001,2025-07-31_12h38.59.428,continuous_performance_test,2024.2.4,Win32,166.6666667,4374ae1e-80b2-4b5e-a2ad-6b3c67ac53d1,6,605.5311,607.4322,space,1,0.2794,,0,20,20,23,1,Y,space,,,,,,,,,,
,,,,,R_1b9er7B5oUU2GB3,001,2025-07-31_12h38.59.428,continuous_performance_test,2024.2.4,Win32,166.6666667,4374ae1e-80b2-4b5e-a2ad-6b3c67ac53d1,6,607.4327,609.0819,space,1,0.346,,0,21,21,14,1,O,space,,,,,,,,,,
,,,,,R_1b9er7B5oUU2GB3,001,2025-07-31_12h38.59.428,continuous_performance_test,2024.2.4,Win32,166.6666667,4374ae1e-80b2-4b5e-a2ad-6b3c67ac53d1,6,609.0826,610.73,space,1,0.3882,,0,22,22,9,1,J,space,,,,,,,,,,
,,,,,R_1b9er7B5oUU2GB3,001,2025-07-31_12h38.59.428,continuous_performance_test,2024.2.4,Win32,166.6666667,4374ae1e-80b2-4b5e-a2ad-6b3c67ac53d1,6,610.7305,612.2813,space,1,0.4316,,0,23,23,5,1,F,space,,,,,,,,,,
,,,,,R_1b9er7B5oUU2GB3,001,2025-07-31_12h38.59.428,continuous_performance_test,2024.2.4,Win32,166.6666667,4374ae1e-80b2-4b5e-a2ad-6b3c67ac53d1,6,612.2818,614.1779,,1,,,0,24,24,26,1,X,,,,,,,,,,,
,,,,,R_1b9er7B5oUU2GB3,001,2025-07-31_12h38.59.428,continuous_performance_test,2024.2.4,Win32,166.6666667,4374ae1e-80b2-4b5e-a2ad-6b3c67ac53d1,6,614.1785,616.0747,space,1,0.4299,,0,25,25,16,1,Q,space,,,,,,,,,,
,,,,,R_1b9er7B5oUU2GB3,001,2025-07-31_12h38.59.428,continuous_performance_test,2024.2.4,Win32,166.6666667,4374ae1e-80b2-4b5e-a2ad-6b3c67ac53d1,6,616.0753,617.6259,space,1,0.377,,0,26,26,6,1,G,space,,,,,,,,,,
,,,,,R_1b9er7B5oUU2GB3,001,2025-07-31_12h38.59.428,continuous_performance_test,2024.2.4,Win32,166.6666667,4374ae1e-80b2-4b5e-a2ad-6b3c67ac53d1,6,617.6264,619.6259,space,1,0.3333,,0,27,27,15,1,P,space,,,,,,,,,,
,,,,,R_1b9er7B5oUU2GB3,001,2025-07-31_12h38.59.428,continuous_performance_test,2024.2.4,Win32,166.6666667,4374ae1e-80b2-4b5e-a2ad-6b3c67ac53d1,6,619.6266,621.2259,space,1,0.3213,,0,28,28,20,1,U,space,,,,,,,,,,
,,,,,R_1b9er7B5oUU2GB3,001,2025-07-31_12h38.59.428,continuous_performance_test,2024.2.4,Win32,166.6666667,4374ae1e-80b2-4b5e-a2ad-6b3c67ac53d1,6,621.2267,623.1767,space,0,0.2851,,0,29,29,28,1,X,,,,,,,,,,,
,,,,,R_1b9er7B5oUU2GB3,001,2025-07-31_12h38.59.428,continuous_performance_test,2024.2.4,Win32,166.6666667,4374ae1e-80b2-4b5e-a2ad-6b3c67ac53d1,6,,,,,,,,,,,,,,623.1772,623.1775,,,,623.1777,628.7215,space,5.5381,
