Instructions.started,Instructions.stopped,key_resp.keys,key_resp.rt,key_resp.duration,participant,session,date,expName,psychopyVersion,OS,frameRate,realeye-tester-id,realeye-tester-quality_grade,Trial_noX.started,Trial_noX.stopped,response.keys,response.corr,trials_noX.thisRepN,trials_noX.thisTrialN,trials_noX.thisN,trials_noX.thisIndex,trials_noX.ran,letter,corrAns,response.rt,response.duration,BlockBreak.started,BlockBreak.stopped,key_instruct.keys,key_instruct.rt,key_instruct.duration,End_NoX.started,End_NoX.stopped,key_resp_end_noX.keys,key_resp_end_noX.rt,key_resp_end_noX.duration
0.001,20.566,space,20.525,,R_24NSu2fhZSVYdgx,001,2025-09-18_06h42.51.564,continuous_performance_test,2024.2.4,Win32,144.092219,e826f274-637a-447c-a0ab-5e52d13cfa87,4,,,,,,,,,,,,,,,,,,,,,,,
,,,,,R_24NSu2fhZSVYdgx,001,2025-09-18_06h42.51.564,continuous_performance_test,2024.2.4,Win32,144.092219,e826f274-637a-447c-a0ab-5e52d13cfa87,4,20.576,22.226,,0,0,0,0,10,1,K,space,,,,,,,,,,,,
,,,,,R_24NSu2fhZSVYdgx,001,2025-09-18_06h42.51.564,continuous_performance_test,2024.2.4,Win32,144.092219,e826f274-637a-447c-a0ab-5e52d13cfa87,4,22.227,24.024,space,1,0,1,1,24,1,Z,space,0.333,,,,,,,,,,,
,,,,,R_24NSu2fhZSVYdgx,001,2025-09-18_06h42.51.564,continuous_performance_test,2024.2.4,Win32,144.092219,e826f274-637a-447c-a0ab-5e52d13cfa87,4,24.026,26.024,,1,0,2,2,26,1,X,,,,,,,,,,,,,
,,,,,R_24NSu2fhZSVYdgx,001,2025-09-18_06h42.51.564,continuous_performance_test,2024.2.4,Win32,144.092219,e826f274-637a-447c-a0ab-5e52d13cfa87,4,26.025,27.975,space,1,0,3,3,23,1,Y,space,0.354,,,,,,,,,,,
,,,,,R_24NSu2fhZSVYdgx,001,2025-09-18_06h42.51.564,continuous_performance_test,2024.2.4,Win32,144.092219,e826f274-637a-447c-a0ab-5e52d13cfa87,4,27.976,29.622,space,1,0,4,4,11,1,L,space,0.384,,,,,,,,,,,
,,,,,R_24NSu2fhZSVYdgx,001,2025-09-18_06h42.51.564,continuous_performance_test,2024.2.4,Win32,144.092219,e826f274-637a-447c-a0ab-5e52d13cfa87,4,29.623,31.274,space,1,0,5,5,14,1,O,space,0.361,,,,,,,,,,,
,,,,,R_24NSu2fhZSVYdgx,001,2025-09-18_06h42.51.564,continuous_performance_test,2024.2.4,Win32,144.092219,e826f274-637a-447c-a0ab-5e52d13cfa87,4,31.275,32.822,space,1,0,6,6,1,1,B,space,0.312,,,,,,,,,,,
,,,,,R_24NSu2fhZSVYdgx,001,2025-09-18_06h42.51.564,continuous_performance_test,2024.2.4,Win32,144.092219,e826f274-637a-447c-a0ab-5e52d13cfa87,4,32.824,34.823,space,1,0,7,7,5,1,F,space,0.351,,,,,,,,,,,
,,,,,R_24NSu2fhZSVYdgx,001,2025-09-18_06h42.51.564,continuous_performance_test,2024.2.4,Win32,144.092219,e826f274-637a-447c-a0ab-5e52d13cfa87,4,34.824,36.371,space,1,0,8,8,15,1,P,space,0.339,,,,,,,,,,,
,,,,,R_24NSu2fhZSVYdgx,001,2025-09-18_06h42.51.564,continuous_performance_test,2024.2.4,Win32,144.092219,e826f274-637a-447c-a0ab-5e52d13cfa87,4,36.373,38.073,space,1,0,9,9,9,1,J,space,0.382,,,,,,,,,,,
,,,,,R_24NSu2fhZSVYdgx,001,2025-09-18_06h42.51.564,continuous_performance_test,2024.2.4,Win32,144.092219,e826f274-637a-447c-a0ab-5e52d13cfa87,4,38.074,40.024,space,0,0,10,10,29,1,X,,0.278,,,,,,,,,,,
,,,,,R_24NSu2fhZSVYdgx,001,2025-09-18_06h42.51.564,continuous_performance_test,2024.2.4,Win32,144.092219,e826f274-637a-447c-a0ab-5e52d13cfa87,4,40.025,42.024,space,1,0,11,11,20,1,U,space,0.444,,,,,,,,,,,
,,,,,R_24NSu2fhZSVYdgx,001,2025-09-18_06h42.51.564,continuous_performance_test,2024.2.4,Win32,144.092219,e826f274-637a-447c-a0ab-5e52d13cfa87,4,42.026,43.67,space,1,0,12,12,22,1,W,space,0.447,,,,,,,,,,,
,,,,,R_24NSu2fhZSVYdgx,001,2025-09-18_06h42.51.564,continuous_performance_test,2024.2.4,Win32,144.092219,e826f274-637a-447c-a0ab-5e52d13cfa87,4,43.671,45.267,space,1,0,13,13,12,1,M,space,0.369,,,,,,,,,,,
,,,,,R_24NSu2fhZSVYdgx,001,2025-09-18_06h42.51.564,continuous_performance_test,2024.2.4,Win32,144.092219,e826f274-637a-447c-a0ab-5e52d13cfa87,4,45.268,46.864,space,1,0,14,14,2,1,C,space,0.451,,,,,,,,,,,
,,,,,R_24NSu2fhZSVYdgx,001,2025-09-18_06h42.51.564,continuous_performance_test,2024.2.4,Win32,144.092219,e826f274-637a-447c-a0ab-5e52d13cfa87,4,46.865,48.864,space,0,0,15,15,28,1,X,,0.788,,,,,,,,,,,
,,,,,R_24NSu2fhZSVYdgx,001,2025-09-18_06h42.51.564,continuous_performance_test,2024.2.4,Win32,144.092219,e826f274-637a-447c-a0ab-5e52d13cfa87,4,48.865,50.712,space,1,0,16,16,3,1,D,space,0.549,,,,,,,,,,,
,,,,,R_24NSu2fhZSVYdgx,001,2025-09-18_06h42.51.564,continuous_performance_test,2024.2.4,Win32,144.092219,e826f274-637a-447c-a0ab-5e52d13cfa87,4,50.713,52.607,space,1,0,17,17,6,1,G,space,0.542,,,,,,,,,,,
,,,,,R_24NSu2fhZSVYdgx,001,2025-09-18_06h42.51.564,continuous_performance_test,2024.2.4,Win32,144.092219,e826f274-637a-447c-a0ab-5e52d13cfa87,4,52.608,54.205,space,1,0,18,18,13,1,N,space,0.497,,,,,,,,,,,
,,,,,R_24NSu2fhZSVYdgx,001,2025-09-18_06h42.51.564,continuous_performance_test,2024.2.4,Win32,144.092219,e826f274-637a-447c-a0ab-5e52d13cfa87,4,54.206,56.052,,1,0,19,19,27,1,X,,,,,,,,,,,,,
,,,,,R_24NSu2fhZSVYdgx,001,2025-09-18_06h42.51.564,continuous_performance_test,2024.2.4,Win32,144.092219,e826f274-637a-447c-a0ab-5e52d13cfa87,4,56.053,57.948,space,1,0,20,20,19,1,T,space,0.313,,,,,,,,,,,
,,,,,R_24NSu2fhZSVYdgx,001,2025-09-18_06h42.51.564,continuous_performance_test,2024.2.4,Win32,144.092219,e826f274-637a-447c-a0ab-5e52d13cfa87,4,57.949,59.594,space,1,0,21,21,18,1,S,space,0.375,,,,,,,,,,,
,,,,,R_24NSu2fhZSVYdgx,001,2025-09-18_06h42.51.564,continuous_performance_test,2024.2.4,Win32,144.092219,e826f274-637a-447c-a0ab-5e52d13cfa87,4,59.595,61.545,space,1,0,22,22,17,1,R,space,0.404,,,,,,,,,,,
,,,,,R_24NSu2fhZSVYdgx,001,2025-09-18_06h42.51.564,continuous_performance_test,2024.2.4,Win32,144.092219,e826f274-637a-447c-a0ab-5e52d13cfa87,4,61.546,63.392,space,1,0,23,23,21,1,V,space,0.383,,,,,,,,,,,
,,,,,R_24NSu2fhZSVYdgx,001,2025-09-18_06h42.51.564,continuous_performance_test,2024.2.4,Win32,144.092219,e826f274-637a-447c-a0ab-5e52d13cfa87,4,63.393,65.142,space,0,0,24,24,25,1,X,,0.325,,,,,,,,,,,
,,,,,R_24NSu2fhZSVYdgx,001,2025-09-18_06h42.51.564,continuous_performance_test,2024.2.4,Win32,144.092219,e826f274-637a-447c-a0ab-5e52d13cfa87,4,65.146,67.093,space,1,0,25,25,8,1,I,space,0.806,,,,,,,,,,,
,,,,,R_24NSu2fhZSVYdgx,001,2025-09-18_06h42.51.564,continuous_performance_test,2024.2.4,Win32,144.092219,e826f274-637a-447c-a0ab-5e52d13cfa87,4,67.094,68.844,space,1,0,26,26,0,1,A,space,0.47,,,,,,,,,,,
,,,,,R_24NSu2fhZSVYdgx,001,2025-09-18_06h42.51.564,continuous_performance_test,2024.2.4,Win32,144.092219,e826f274-637a-447c-a0ab-5e52d13cfa87,4,68.845,70.844,space,1,0,27,27,4,1,E,space,0.459,,,,,,,,,,,
,,,,,R_24NSu2fhZSVYdgx,001,2025-09-18_06h42.51.564,continuous_performance_test,2024.2.4,Win32,144.092219,e826f274-637a-447c-a0ab-5e52d13cfa87,4,70.845,72.795,space,1,0,28,28,7,1,H,space,0.451,,,,,,,,,,,
,,,,,R_24NSu2fhZSVYdgx,001,2025-09-18_06h42.51.564,continuous_performance_test,2024.2.4,Win32,144.092219,e826f274-637a-447c-a0ab-5e52d13cfa87,4,72.796,74.747,space,1,0,29,29,16,1,Q,space,0.453,,,,,,,,,,,
,,,,,R_24NSu2fhZSVYdgx,001,2025-09-18_06h42.51.564,continuous_performance_test,2024.2.4,Win32,144.092219,e826f274-637a-447c-a0ab-5e52d13cfa87,4,79.956,81.802,space,1,0,0,0,9,1,J,space,0.437,,74.747,79.948,space,5.178,,,,,,
,,,,,R_24NSu2fhZSVYdgx,001,2025-09-18_06h42.51.564,continuous_performance_test,2024.2.4,Win32,144.092219,e826f274-637a-447c-a0ab-5e52d13cfa87,4,81.803,83.552,space,1,0,1,1,0,1,A,space,0.308,,,,,,,,,,,
,,,,,R_24NSu2fhZSVYdgx,001,2025-09-18_06h42.51.564,continuous_performance_test,2024.2.4,Win32,144.092219,e826f274-637a-447c-a0ab-5e52d13cfa87,4,83.553,85.553,space,1,0,2,2,15,1,P,space,0.479,,,,,,,,,,,
,,,,,R_24NSu2fhZSVYdgx,001,2025-09-18_06h42.51.564,continuous_performance_test,2024.2.4,Win32,144.092219,e826f274-637a-447c-a0ab-5e52d13cfa87,4,85.554,87.15,space,1,0,3,3,20,1,U,space,0.326,,,,,,,,,,,
,,,,,R_24NSu2fhZSVYdgx,001,2025-09-18_06h42.51.564,continuous_performance_test,2024.2.4,Win32,144.092219,e826f274-637a-447c-a0ab-5e52d13cfa87,4,87.151,89.045,space,1,0,4,4,23,1,Y,space,0.393,,,,,,,,,,,
,,,,,R_24NSu2fhZSVYdgx,001,2025-09-18_06h42.51.564,continuous_performance_test,2024.2.4,Win32,144.092219,e826f274-637a-447c-a0ab-5e52d13cfa87,4,89.046,90.99,space,1,0,5,5,13,1,N,space,0.598,,,,,,,,,,,
,,,,,R_24NSu2fhZSVYdgx,001,2025-09-18_06h42.51.564,continuous_performance_test,2024.2.4,Win32,144.092219,e826f274-637a-447c-a0ab-5e52d13cfa87,4,90.991,92.587,,1,0,6,6,28,1,X,,,,,,,,,,,,,
,,,,,R_24NSu2fhZSVYdgx,001,2025-09-18_06h42.51.564,continuous_performance_test,2024.2.4,Win32,144.092219,e826f274-637a-447c-a0ab-5e52d13cfa87,4,92.588,94.337,space,1,0,7,7,16,1,Q,space,0.371,,,,,,,,,,,
,,,,,R_24NSu2fhZSVYdgx,001,2025-09-18_06h42.51.564,continuous_performance_test,2024.2.4,Win32,144.092219,e826f274-637a-447c-a0ab-5e52d13cfa87,4,94.338,95.935,space,1,0,8,8,3,1,D,space,0.639,,,,,,,,,,,
,,,,,R_24NSu2fhZSVYdgx,001,2025-09-18_06h42.51.564,continuous_performance_test,2024.2.4,Win32,144.092219,e826f274-637a-447c-a0ab-5e52d13cfa87,4,95.935,97.483,space,0,0,9,9,25,1,X,,0.388,,,,,,,,,,,
,,,,,R_24NSu2fhZSVYdgx,001,2025-09-18_06h42.51.564,continuous_performance_test,2024.2.4,Win32,144.092219,e826f274-637a-447c-a0ab-5e52d13cfa87,4,97.485,99.08,space,1,0,10,10,19,1,T,space,0.808,,,,,,,,,,,
,,,,,R_24NSu2fhZSVYdgx,001,2025-09-18_06h42.51.564,continuous_performance_test,2024.2.4,Win32,144.092219,e826f274-637a-447c-a0ab-5e52d13cfa87,4,99.081,101.031,space,1,0,11,11,8,1,I,space,0.389,,,,,,,,,,,
,,,,,R_24NSu2fhZSVYdgx,001,2025-09-18_06h42.51.564,continuous_performance_test,2024.2.4,Win32,144.092219,e826f274-637a-447c-a0ab-5e52d13cfa87,4,101.032,102.781,space,1,0,12,12,17,1,R,space,0.437,,,,,,,,,,,
,,,,,R_24NSu2fhZSVYdgx,001,2025-09-18_06h42.51.564,continuous_performance_test,2024.2.4,Win32,144.092219,e826f274-637a-447c-a0ab-5e52d13cfa87,4,102.782,104.732,space,1,0,13,13,12,1,M,space,0.549,,,,,,,,,,,
,,,,,R_24NSu2fhZSVYdgx,001,2025-09-18_06h42.51.564,continuous_performance_test,2024.2.4,Win32,144.092219,e826f274-637a-447c-a0ab-5e52d13cfa87,4,104.733,106.531,,1,0,14,14,27,1,X,,,,,,,,,,,,,
,,,,,R_24NSu2fhZSVYdgx,001,2025-09-18_06h42.51.564,continuous_performance_test,2024.2.4,Win32,144.092219,e826f274-637a-447c-a0ab-5e52d13cfa87,4,106.532,108.129,space,1,0,15,15,21,1,V,space,0.48,,,,,,,,,,,
,,,,,R_24NSu2fhZSVYdgx,001,2025-09-18_06h42.51.564,continuous_performance_test,2024.2.4,Win32,144.092219,e826f274-637a-447c-a0ab-5e52d13cfa87,4,108.13,109.976,space,0,0,16,16,29,1,X,,0.39,,,,,,,,,,,
,,,,,R_24NSu2fhZSVYdgx,001,2025-09-18_06h42.51.564,continuous_performance_test,2024.2.4,Win32,144.092219,e826f274-637a-447c-a0ab-5e52d13cfa87,4,109.976,111.823,,1,0,17,17,26,1,X,,,,,,,,,,,,,
,,,,,R_24NSu2fhZSVYdgx,001,2025-09-18_06h42.51.564,continuous_performance_test,2024.2.4,Win32,144.092219,e826f274-637a-447c-a0ab-5e52d13cfa87,4,111.824,113.768,space,1,0,18,18,22,1,W,space,0.416,,,,,,,,,,,
,,,,,R_24NSu2fhZSVYdgx,001,2025-09-18_06h42.51.564,continuous_performance_test,2024.2.4,Win32,144.092219,e826f274-637a-447c-a0ab-5e52d13cfa87,4,113.769,115.768,space,1,0,19,19,14,1,O,space,0.47,,,,,,,,,,,
,,,,,R_24NSu2fhZSVYdgx,001,2025-09-18_06h42.51.564,continuous_performance_test,2024.2.4,Win32,144.092219,e826f274-637a-447c-a0ab-5e52d13cfa87,4,115.769,117.365,space,1,0,20,20,6,1,G,space,0.44,,,,,,,,,,,
,,,,,R_24NSu2fhZSVYdgx,001,2025-09-18_06h42.51.564,continuous_performance_test,2024.2.4,Win32,144.092219,e826f274-637a-447c-a0ab-5e52d13cfa87,4,117.366,119.114,space,1,0,21,21,4,1,E,space,0.594,,,,,,,,,,,
,,,,,R_24NSu2fhZSVYdgx,001,2025-09-18_06h42.51.564,continuous_performance_test,2024.2.4,Win32,144.092219,e826f274-637a-447c-a0ab-5e52d13cfa87,4,119.115,120.962,space,1,0,22,22,2,1,C,space,0.355,,,,,,,,,,,
,,,,,R_24NSu2fhZSVYdgx,001,2025-09-18_06h42.51.564,continuous_performance_test,2024.2.4,Win32,144.092219,e826f274-637a-447c-a0ab-5e52d13cfa87,4,120.962,122.858,space,1,0,23,23,24,1,Z,space,0.311,,,,,,,,,,,
,,,,,R_24NSu2fhZSVYdgx,001,2025-09-18_06h42.51.564,continuous_performance_test,2024.2.4,Win32,144.092219,e826f274-637a-447c-a0ab-5e52d13cfa87,4,122.859,124.858,space,1,0,24,24,11,1,L,space,0.418,,,,,,,,,,,
,,,,,R_24NSu2fhZSVYdgx,001,2025-09-18_06h42.51.564,continuous_performance_test,2024.2.4,Win32,144.092219,e826f274-637a-447c-a0ab-5e52d13cfa87,4,124.859,126.504,space,1,0,25,25,5,1,F,space,0.461,,,,,,,,,,,
,,,,,R_24NSu2fhZSVYdgx,001,2025-09-18_06h42.51.564,continuous_performance_test,2024.2.4,Win32,144.092219,e826f274-637a-447c-a0ab-5e52d13cfa87,4,126.504,128.052,space,1,0,26,26,1,1,B,space,0.378,,,,,,,,,,,
,,,,,R_24NSu2fhZSVYdgx,001,2025-09-18_06h42.51.564,continuous_performance_test,2024.2.4,Win32,144.092219,e826f274-637a-447c-a0ab-5e52d13cfa87,4,128.055,129.9,space,1,0,27,27,18,1,S,space,0.708,,,,,,,,,,,
,,,,,R_24NSu2fhZSVYdgx,001,2025-09-18_06h42.51.564,continuous_performance_test,2024.2.4,Win32,144.092219,e826f274-637a-447c-a0ab-5e52d13cfa87,4,129.901,131.796,space,1,0,28,28,10,1,K,space,0.68,,,,,,,,,,,
,,,,,R_24NSu2fhZSVYdgx,001,2025-09-18_06h42.51.564,continuous_performance_test,2024.2.4,Win32,144.092219,e826f274-637a-447c-a0ab-5e52d13cfa87,4,131.796,133.393,,0,0,29,29,7,1,H,space,,,,,,,,,,,,
,,,,,R_24NSu2fhZSVYdgx,001,2025-09-18_06h42.51.564,continuous_performance_test,2024.2.4,Win32,144.092219,e826f274-637a-447c-a0ab-5e52d13cfa87,4,136.588,138.233,space,0,0,0,0,27,1,X,,0.332,,133.394,136.58,space,3.175,,,,,,
,,,,,R_24NSu2fhZSVYdgx,001,2025-09-18_06h42.51.564,continuous_performance_test,2024.2.4,Win32,144.092219,e826f274-637a-447c-a0ab-5e52d13cfa87,4,138.234,139.928,space,1,0,1,1,5,1,F,space,0.495,,,,,,,,,,,
,,,,,R_24NSu2fhZSVYdgx,001,2025-09-18_06h42.51.564,continuous_performance_test,2024.2.4,Win32,144.092219,e826f274-637a-447c-a0ab-5e52d13cfa87,4,139.929,141.775,space,1,0,2,2,23,1,Y,space,0.4,,,,,,,,,,,
,,,,,R_24NSu2fhZSVYdgx,001,2025-09-18_06h42.51.564,continuous_performance_test,2024.2.4,Win32,144.092219,e826f274-637a-447c-a0ab-5e52d13cfa87,4,141.775,143.324,space,1,0,3,3,12,1,M,space,0.377,,,,,,,,,,,
,,,,,R_24NSu2fhZSVYdgx,001,2025-09-18_06h42.51.564,continuous_performance_test,2024.2.4,Win32,144.092219,e826f274-637a-447c-a0ab-5e52d13cfa87,4,143.324,144.92,space,1,0,4,4,9,1,J,space,0.461,,,,,,,,,,,
,,,,,R_24NSu2fhZSVYdgx,001,2025-09-18_06h42.51.564,continuous_performance_test,2024.2.4,Win32,144.092219,e826f274-637a-447c-a0ab-5e52d13cfa87,4,144.921,146.671,space,1,0,5,5,21,1,V,space,0.431,,,,,,,,,,,
,,,,,R_24NSu2fhZSVYdgx,001,2025-09-18_06h42.51.564,continuous_performance_test,2024.2.4,Win32,144.092219,e826f274-637a-447c-a0ab-5e52d13cfa87,4,146.671,148.518,space,1,0,6,6,7,1,H,space,0.439,,,,,,,,,,,
,,,,,R_24NSu2fhZSVYdgx,001,2025-09-18_06h42.51.564,continuous_performance_test,2024.2.4,Win32,144.092219,e826f274-637a-447c-a0ab-5e52d13cfa87,4,148.519,150.268,space,1,0,7,7,24,1,Z,space,0.404,,,,,,,,,,,
,,,,,R_24NSu2fhZSVYdgx,001,2025-09-18_06h42.51.564,continuous_performance_test,2024.2.4,Win32,144.092219,e826f274-637a-447c-a0ab-5e52d13cfa87,4,150.269,151.969,space,1,0,8,8,1,1,B,space,0.35,,,,,,,,,,,
,,,,,R_24NSu2fhZSVYdgx,001,2025-09-18_06h42.51.564,continuous_performance_test,2024.2.4,Win32,144.092219,e826f274-637a-447c-a0ab-5e52d13cfa87,4,151.97,153.719,space,1,0,9,9,16,1,Q,space,0.376,,,,,,,,,,,
,,,,,R_24NSu2fhZSVYdgx,001,2025-09-18_06h42.51.564,continuous_performance_test,2024.2.4,Win32,144.092219,e826f274-637a-447c-a0ab-5e52d13cfa87,4,153.72,155.719,space,1,0,10,10,2,1,C,space,0.51,,,,,,,,,,,
,,,,,R_24NSu2fhZSVYdgx,001,2025-09-18_06h42.51.564,continuous_performance_test,2024.2.4,Win32,144.092219,e826f274-637a-447c-a0ab-5e52d13cfa87,4,155.72,157.719,space,1,0,11,11,3,1,D,space,0.405,,,,,,,,,,,
,,,,,R_24NSu2fhZSVYdgx,001,2025-09-18_06h42.51.564,continuous_performance_test,2024.2.4,Win32,144.092219,e826f274-637a-447c-a0ab-5e52d13cfa87,4,157.72,159.518,,1,0,12,12,28,1,X,,,,,,,,,,,,,
,,,,,R_24NSu2fhZSVYdgx,001,2025-09-18_06h42.51.564,continuous_performance_test,2024.2.4,Win32,144.092219,e826f274-637a-447c-a0ab-5e52d13cfa87,4,159.518,161.067,space,1,0,13,13,19,1,T,space,0.459,,,,,,,,,,,
,,,,,R_24NSu2fhZSVYdgx,001,2025-09-18_06h42.51.564,continuous_performance_test,2024.2.4,Win32,144.092219,e826f274-637a-447c-a0ab-5e52d13cfa87,4,161.068,163.067,space,1,0,14,14,15,1,P,space,0.377,,,,,,,,,,,
,,,,,R_24NSu2fhZSVYdgx,001,2025-09-18_06h42.51.564,continuous_performance_test,2024.2.4,Win32,144.092219,e826f274-637a-447c-a0ab-5e52d13cfa87,4,163.068,165.018,space,1,0,15,15,18,1,S,space,0.322,,,,,,,,,,,
,,,,,R_24NSu2fhZSVYdgx,001,2025-09-18_06h42.51.564,continuous_performance_test,2024.2.4,Win32,144.092219,e826f274-637a-447c-a0ab-5e52d13cfa87,4,165.019,166.913,,1,0,16,16,25,1,X,,,,,,,,,,,,,
,,,,,R_24NSu2fhZSVYdgx,001,2025-09-18_06h42.51.564,continuous_performance_test,2024.2.4,Win32,144.092219,e826f274-637a-447c-a0ab-5e52d13cfa87,4,166.914,168.511,space,1,0,17,17,17,1,R,space,0.447,,,,,,,,,,,
,,,,,R_24NSu2fhZSVYdgx,001,2025-09-18_06h42.51.564,continuous_performance_test,2024.2.4,Win32,144.092219,e826f274-637a-447c-a0ab-5e52d13cfa87,4,168.512,170.261,space,1,0,18,18,0,1,A,space,0.383,,,,,,,,,,,
,,,,,R_24NSu2fhZSVYdgx,001,2025-09-18_06h42.51.564,continuous_performance_test,2024.2.4,Win32,144.092219,e826f274-637a-447c-a0ab-5e52d13cfa87,4,170.262,172.213,space,1,0,19,19,20,1,U,space,0.409,,,,,,,,,,,
,,,,,R_24NSu2fhZSVYdgx,001,2025-09-18_06h42.51.564,continuous_performance_test,2024.2.4,Win32,144.092219,e826f274-637a-447c-a0ab-5e52d13cfa87,4,172.214,173.859,space,1,0,20,20,8,1,I,space,0.493,,,,,,,,,,,
,,,,,R_24NSu2fhZSVYdgx,001,2025-09-18_06h42.51.564,continuous_performance_test,2024.2.4,Win32,144.092219,e826f274-637a-447c-a0ab-5e52d13cfa87,4,173.859,175.657,space,1,0,21,21,6,1,G,space,0.309,,,,,,,,,,,
,,,,,R_24NSu2fhZSVYdgx,001,2025-09-18_06h42.51.564,continuous_performance_test,2024.2.4,Win32,144.092219,e826f274-637a-447c-a0ab-5e52d13cfa87,4,175.658,177.406,space,1,0,22,22,10,1,K,space,0.362,,,,,,,,,,,
,,,,,R_24NSu2fhZSVYdgx,001,2025-09-18_06h42.51.564,continuous_performance_test,2024.2.4,Win32,144.092219,e826f274-637a-447c-a0ab-5e52d13cfa87,4,177.407,179.157,,1,0,23,23,26,1,X,,,,,,,,,,,,,
,,,,,R_24NSu2fhZSVYdgx,001,2025-09-18_06h42.51.564,continuous_performance_test,2024.2.4,Win32,144.092219,e826f274-637a-447c-a0ab-5e52d13cfa87,4,179.158,180.705,space,1,0,24,24,13,1,N,space,0.355,,,,,,,,,,,
,,,,,R_24NSu2fhZSVYdgx,001,2025-09-18_06h42.51.564,continuous_performance_test,2024.2.4,Win32,144.092219,e826f274-637a-447c-a0ab-5e52d13cfa87,4,180.706,182.407,space,1,0,25,25,11,1,L,space,0.348,,,,,,,,,,,
,,,,,R_24NSu2fhZSVYdgx,001,2025-09-18_06h42.51.564,continuous_performance_test,2024.2.4,Win32,144.092219,e826f274-637a-447c-a0ab-5e52d13cfa87,4,182.408,184.157,space,1,0,26,26,4,1,E,space,0.528,,,,,,,,,,,
,,,,,R_24NSu2fhZSVYdgx,001,2025-09-18_06h42.51.564,continuous_performance_test,2024.2.4,Win32,144.092219,e826f274-637a-447c-a0ab-5e52d13cfa87,4,184.158,185.907,space,1,0,27,27,14,1,O,space,0.459,,,,,,,,,,,
,,,,,R_24NSu2fhZSVYdgx,001,2025-09-18_06h42.51.564,continuous_performance_test,2024.2.4,Win32,144.092219,e826f274-637a-447c-a0ab-5e52d13cfa87,4,185.908,187.803,space,0,0,28,28,29,1,X,,0.437,,,,,,,,,,,
,,,,,R_24NSu2fhZSVYdgx,001,2025-09-18_06h42.51.564,continuous_performance_test,2024.2.4,Win32,144.092219,e826f274-637a-447c-a0ab-5e52d13cfa87,4,187.804,189.352,space,1,0,29,29,22,1,W,space,0.558,,,,,,,,,,,
,,,,,R_24NSu2fhZSVYdgx,001,2025-09-18_06h42.51.564,continuous_performance_test,2024.2.4,Win32,144.092219,e826f274-637a-447c-a0ab-5e52d13cfa87,4,204.362,206.206,,0,0,0,0,12,1,M,space,,,189.352,204.352,,,,,,,,
,,,,,R_24NSu2fhZSVYdgx,001,2025-09-18_06h42.51.564,continuous_performance_test,2024.2.4,Win32,144.092219,e826f274-637a-447c-a0ab-5e52d13cfa87,4,206.207,208.206,space,1,0,1,1,23,1,Y,space,0.502,,,,,,,,,,,
,,,,,R_24NSu2fhZSVYdgx,001,2025-09-18_06h42.51.564,continuous_performance_test,2024.2.4,Win32,144.092219,e826f274-637a-447c-a0ab-5e52d13cfa87,4,208.207,210.052,space,1,0,2,2,19,1,T,space,0.341,,,,,,,,,,,
,,,,,R_24NSu2fhZSVYdgx,001,2025-09-18_06h42.51.564,continuous_performance_test,2024.2.4,Win32,144.092219,e826f274-637a-447c-a0ab-5e52d13cfa87,4,210.053,211.851,space,1,0,3,3,18,1,S,space,0.388,,,,,,,,,,,
,,,,,R_24NSu2fhZSVYdgx,001,2025-09-18_06h42.51.564,continuous_performance_test,2024.2.4,Win32,144.092219,e826f274-637a-447c-a0ab-5e52d13cfa87,4,211.852,213.699,space,1,0,4,4,22,1,W,space,0.381,,,,,,,,,,,
,,,,,R_24NSu2fhZSVYdgx,001,2025-09-18_06h42.51.564,continuous_performance_test,2024.2.4,Win32,144.092219,e826f274-637a-447c-a0ab-5e52d13cfa87,4,213.7,215.699,space,1,0,5,5,9,1,J,space,0.409,,,,,,,,,,,
,,,,,R_24NSu2fhZSVYdgx,001,2025-09-18_06h42.51.564,continuous_performance_test,2024.2.4,Win32,144.092219,e826f274-637a-447c-a0ab-5e52d13cfa87,4,215.699,217.248,,1,0,6,6,28,1,X,,,,,,,,,,,,,
,,,,,R_24NSu2fhZSVYdgx,001,2025-09-18_06h42.51.564,continuous_performance_test,2024.2.4,Win32,144.092219,e826f274-637a-447c-a0ab-5e52d13cfa87,4,217.249,218.844,space,1,0,7,7,6,1,G,space,0.41,,,,,,,,,,,
,,,,,R_24NSu2fhZSVYdgx,001,2025-09-18_06h42.51.564,continuous_performance_test,2024.2.4,Win32,144.092219,e826f274-637a-447c-a0ab-5e52d13cfa87,4,218.845,220.796,space,1,0,8,8,8,1,I,space,0.43,,,,,,,,,,,
,,,,,R_24NSu2fhZSVYdgx,001,2025-09-18_06h42.51.564,continuous_performance_test,2024.2.4,Win32,144.092219,e826f274-637a-447c-a0ab-5e52d13cfa87,4,220.797,222.747,space,1,0,9,9,5,1,F,space,0.41,,,,,,,,,,,
,,,,,R_24NSu2fhZSVYdgx,001,2025-09-18_06h42.51.564,continuous_performance_test,2024.2.4,Win32,144.092219,e826f274-637a-447c-a0ab-5e52d13cfa87,4,222.748,224.546,,0,0,10,10,21,1,V,space,,,,,,,,,,,,
,,,,,R_24NSu2fhZSVYdgx,001,2025-09-18_06h42.51.564,continuous_performance_test,2024.2.4,Win32,144.092219,e826f274-637a-447c-a0ab-5e52d13cfa87,4,224.547,226.094,space,0,0,11,11,25,1,X,,0.293,,,,,,,,,,,
,,,,,R_24NSu2fhZSVYdgx,001,2025-09-18_06h42.51.564,continuous_performance_test,2024.2.4,Win32,144.092219,e826f274-637a-447c-a0ab-5e52d13cfa87,4,226.095,227.789,space,1,0,12,12,13,1,N,space,0.369,,,,,,,,,,,
,,,,,R_24NSu2fhZSVYdgx,001,2025-09-18_06h42.51.564,continuous_performance_test,2024.2.4,Win32,144.092219,e826f274-637a-447c-a0ab-5e52d13cfa87,4,227.79,229.338,space,1,0,13,13,3,1,D,space,0.3,,,,,,,,,,,
,,,,,R_24NSu2fhZSVYdgx,001,2025-09-18_06h42.51.564,continuous_performance_test,2024.2.4,Win32,144.092219,e826f274-637a-447c-a0ab-5e52d13cfa87,4,229.34,231.337,space,1,0,14,14,14,1,O,space,0.376,,,,,,,,,,,
,,,,,R_24NSu2fhZSVYdgx,001,2025-09-18_06h42.51.564,continuous_performance_test,2024.2.4,Win32,144.092219,e826f274-637a-447c-a0ab-5e52d13cfa87,4,231.338,232.887,space,1,0,15,15,7,1,H,space,0.341,,,,,,,,,,,
,,,,,R_24NSu2fhZSVYdgx,001,2025-09-18_06h42.51.564,continuous_performance_test,2024.2.4,Win32,144.092219,e826f274-637a-447c-a0ab-5e52d13cfa87,4,232.888,234.435,space,1,0,16,16,10,1,K,space,0.487,,,,,,,,,,,
,,,,,R_24NSu2fhZSVYdgx,001,2025-09-18_06h42.51.564,continuous_performance_test,2024.2.4,Win32,144.092219,e826f274-637a-447c-a0ab-5e52d13cfa87,4,234.436,236.283,space,1,0,17,17,16,1,Q,space,0.353,,,,,,,,,,,
,,,,,R_24NSu2fhZSVYdgx,001,2025-09-18_06h42.51.564,continuous_performance_test,2024.2.4,Win32,144.092219,e826f274-637a-447c-a0ab-5e52d13cfa87,4,236.284,237.831,space,1,0,18,18,24,1,Z,space,0.399,,,,,,,,,,,
,,,,,R_24NSu2fhZSVYdgx,001,2025-09-18_06h42.51.564,continuous_performance_test,2024.2.4,Win32,144.092219,e826f274-637a-447c-a0ab-5e52d13cfa87,4,237.832,239.428,space,1,0,19,19,15,1,P,space,0.316,,,,,,,,,,,
,,,,,R_24NSu2fhZSVYdgx,001,2025-09-18_06h42.51.564,continuous_performance_test,2024.2.4,Win32,144.092219,e826f274-637a-447c-a0ab-5e52d13cfa87,4,239.429,241.026,space,0,0,20,20,26,1,X,,0.348,,,,,,,,,,,
,,,,,R_24NSu2fhZSVYdgx,001,2025-09-18_06h42.51.564,continuous_performance_test,2024.2.4,Win32,144.092219,e826f274-637a-447c-a0ab-5e52d13cfa87,4,241.027,242.873,space,1,0,21,21,17,1,R,space,0.397,,,,,,,,,,,
,,,,,R_24NSu2fhZSVYdgx,001,2025-09-18_06h42.51.564,continuous_performance_test,2024.2.4,Win32,144.092219,e826f274-637a-447c-a0ab-5e52d13cfa87,4,242.874,244.519,space,1,0,22,22,0,1,A,space,0.343,,,,,,,,,,,
,,,,,R_24NSu2fhZSVYdgx,001,2025-09-18_06h42.51.564,continuous_performance_test,2024.2.4,Win32,144.092219,e826f274-637a-447c-a0ab-5e52d13cfa87,4,244.52,246.116,,1,0,23,23,29,1,X,,,,,,,,,,,,,
,,,,,R_24NSu2fhZSVYdgx,001,2025-09-18_06h42.51.564,continuous_performance_test,2024.2.4,Win32,144.092219,e826f274-637a-447c-a0ab-5e52d13cfa87,4,246.116,247.665,,1,0,24,24,27,1,X,,,,,,,,,,,,,
,,,,,R_24NSu2fhZSVYdgx,001,2025-09-18_06h42.51.564,continuous_performance_test,2024.2.4,Win32,144.092219,e826f274-637a-447c-a0ab-5e52d13cfa87,4,247.665,249.261,space,1,0,25,25,20,1,U,space,0.433,,,,,,,,,,,
,,,,,R_24NSu2fhZSVYdgx,001,2025-09-18_06h42.51.564,continuous_performance_test,2024.2.4,Win32,144.092219,e826f274-637a-447c-a0ab-5e52d13cfa87,4,249.262,250.907,space,1,0,26,26,1,1,B,space,0.322,,,,,,,,,,,
,,,,,R_24NSu2fhZSVYdgx,001,2025-09-18_06h42.51.564,continuous_performance_test,2024.2.4,Win32,144.092219,e826f274-637a-447c-a0ab-5e52d13cfa87,4,250.908,252.803,space,1,0,27,27,11,1,L,space,0.5,,,,,,,,,,,
,,,,,R_24NSu2fhZSVYdgx,001,2025-09-18_06h42.51.564,continuous_performance_test,2024.2.4,Win32,144.092219,e826f274-637a-447c-a0ab-5e52d13cfa87,4,252.804,254.803,space,1,0,28,28,2,1,C,space,0.323,,,,,,,,,,,
,,,,,R_24NSu2fhZSVYdgx,001,2025-09-18_06h42.51.564,continuous_performance_test,2024.2.4,Win32,144.092219,e826f274-637a-447c-a0ab-5e52d13cfa87,4,254.804,256.602,space,1,0,29,29,4,1,E,space,0.662,,,,,,,,,,,
,,,,,R_24NSu2fhZSVYdgx,001,2025-09-18_06h42.51.564,continuous_performance_test,2024.2.4,Win32,144.092219,e826f274-637a-447c-a0ab-5e52d13cfa87,4,259.603,261.255,space,1,0,0,0,16,1,Q,space,0.416,,256.603,259.595,space,2.973,,,,,,
,,,,,R_24NSu2fhZSVYdgx,001,2025-09-18_06h42.51.564,continuous_performance_test,2024.2.4,Win32,144.092219,e826f274-637a-447c-a0ab-5e52d13cfa87,4,261.257,263.206,space,1,0,1,1,21,1,V,space,0.342,,,,,,,,,,,
,,,,,R_24NSu2fhZSVYdgx,001,2025-09-18_06h42.51.564,continuous_performance_test,2024.2.4,Win32,144.092219,e826f274-637a-447c-a0ab-5e52d13cfa87,4,263.207,265.004,space,1,0,2,2,1,1,B,space,0.404,,,,,,,,,,,
,,,,,R_24NSu2fhZSVYdgx,001,2025-09-18_06h42.51.564,continuous_performance_test,2024.2.4,Win32,144.092219,e826f274-637a-447c-a0ab-5e52d13cfa87,4,265.005,266.554,space,1,0,3,3,23,1,Y,space,0.291,,,,,,,,,,,
,,,,,R_24NSu2fhZSVYdgx,001,2025-09-18_06h42.51.564,continuous_performance_test,2024.2.4,Win32,144.092219,e826f274-637a-447c-a0ab-5e52d13cfa87,4,266.554,268.352,space,1,0,4,4,7,1,H,space,0.333,,,,,,,,,,,
,,,,,R_24NSu2fhZSVYdgx,001,2025-09-18_06h42.51.564,continuous_performance_test,2024.2.4,Win32,144.092219,e826f274-637a-447c-a0ab-5e52d13cfa87,4,268.353,270.102,space,0,0,5,5,27,1,X,,0.362,,,,,,,,,,,
,,,,,R_24NSu2fhZSVYdgx,001,2025-09-18_06h42.51.564,continuous_performance_test,2024.2.4,Win32,144.092219,e826f274-637a-447c-a0ab-5e52d13cfa87,4,270.103,272.054,space,1,0,6,6,10,1,K,space,0.409,,,,,,,,,,,
,,,,,R_24NSu2fhZSVYdgx,001,2025-09-18_06h42.51.564,continuous_performance_test,2024.2.4,Win32,144.092219,e826f274-637a-447c-a0ab-5e52d13cfa87,4,272.054,274.005,space,1,0,7,7,20,1,U,space,0.577,,,,,,,,,,,
,,,,,R_24NSu2fhZSVYdgx,001,2025-09-18_06h42.51.564,continuous_performance_test,2024.2.4,Win32,144.092219,e826f274-637a-447c-a0ab-5e52d13cfa87,4,274.006,275.804,space,1,0,8,8,14,1,O,space,0.73,,,,,,,,,,,
,,,,,R_24NSu2fhZSVYdgx,001,2025-09-18_06h42.51.564,continuous_performance_test,2024.2.4,Win32,144.092219,e826f274-637a-447c-a0ab-5e52d13cfa87,4,275.805,277.45,,1,0,9,9,29,1,X,,,,,,,,,,,,,
,,,,,R_24NSu2fhZSVYdgx,001,2025-09-18_06h42.51.564,continuous_performance_test,2024.2.4,Win32,144.092219,e826f274-637a-447c-a0ab-5e52d13cfa87,4,277.451,279.401,space,1,0,10,10,17,1,R,space,0.357,,,,,,,,,,,
,,,,,R_24NSu2fhZSVYdgx,001,2025-09-18_06h42.51.564,continuous_performance_test,2024.2.4,Win32,144.092219,e826f274-637a-447c-a0ab-5e52d13cfa87,4,279.402,281.047,space,1,0,11,11,18,1,S,space,0.571,,,,,,,,,,,
,,,,,R_24NSu2fhZSVYdgx,001,2025-09-18_06h42.51.564,continuous_performance_test,2024.2.4,Win32,144.092219,e826f274-637a-447c-a0ab-5e52d13cfa87,4,281.048,282.796,space,0,0,12,12,25,1,X,,0.359,,,,,,,,,,,
,,,,,R_24NSu2fhZSVYdgx,001,2025-09-18_06h42.51.564,continuous_performance_test,2024.2.4,Win32,144.092219,e826f274-637a-447c-a0ab-5e52d13cfa87,4,282.797,284.692,space,0,0,13,13,28,1,X,,0.474,,,,,,,,,,,
,,,,,R_24NSu2fhZSVYdgx,001,2025-09-18_06h42.51.564,continuous_performance_test,2024.2.4,Win32,144.092219,e826f274-637a-447c-a0ab-5e52d13cfa87,4,284.693,286.29,space,1,0,14,14,3,1,D,space,0.446,,,,,,,,,,,
,,,,,R_24NSu2fhZSVYdgx,001,2025-09-18_06h42.51.564,continuous_performance_test,2024.2.4,Win32,144.092219,e826f274-637a-447c-a0ab-5e52d13cfa87,4,286.291,288.088,space,1,0,15,15,0,1,A,space,0.349,,,,,,,,,,,
,,,,,R_24NSu2fhZSVYdgx,001,2025-09-18_06h42.51.564,continuous_performance_test,2024.2.4,Win32,144.092219,e826f274-637a-447c-a0ab-5e52d13cfa87,4,288.089,289.839,space,1,0,16,16,13,1,N,space,0.377,,,,,,,,,,,
,,,,,R_24NSu2fhZSVYdgx,001,2025-09-18_06h42.51.564,continuous_performance_test,2024.2.4,Win32,144.092219,e826f274-637a-447c-a0ab-5e52d13cfa87,4,289.839,291.484,space,1,0,17,17,2,1,C,space,0.393,,,,,,,,,,,
,,,,,R_24NSu2fhZSVYdgx,001,2025-09-18_06h42.51.564,continuous_performance_test,2024.2.4,Win32,144.092219,e826f274-637a-447c-a0ab-5e52d13cfa87,4,291.485,293.13,space,1,0,18,18,12,1,M,space,0.378,,,,,,,,,,,
,,,,,R_24NSu2fhZSVYdgx,001,2025-09-18_06h42.51.564,continuous_performance_test,2024.2.4,Win32,144.092219,e826f274-637a-447c-a0ab-5e52d13cfa87,4,293.131,294.783,space,0,0,19,19,26,1,X,,0.327,,,,,,,,,,,
,,,,,R_24NSu2fhZSVYdgx,001,2025-09-18_06h42.51.564,continuous_performance_test,2024.2.4,Win32,144.092219,e826f274-637a-447c-a0ab-5e52d13cfa87,4,294.784,296.429,space,1,0,20,20,19,1,T,space,0.795,,,,,,,,,,,
,,,,,R_24NSu2fhZSVYdgx,001,2025-09-18_06h42.51.564,continuous_performance_test,2024.2.4,Win32,144.092219,e826f274-637a-447c-a0ab-5e52d13cfa87,4,296.43,298.13,space,1,0,21,21,6,1,G,space,0.362,,,,,,,,,,,
,,,,,R_24NSu2fhZSVYdgx,001,2025-09-18_06h42.51.564,continuous_performance_test,2024.2.4,Win32,144.092219,e826f274-637a-447c-a0ab-5e52d13cfa87,4,298.131,300.026,space,1,0,22,22,15,1,P,space,0.341,,,,,,,,,,,
,,,,,R_24NSu2fhZSVYdgx,001,2025-09-18_06h42.51.564,continuous_performance_test,2024.2.4,Win32,144.092219,e826f274-637a-447c-a0ab-5e52d13cfa87,4,300.027,301.727,,0,0,23,23,9,1,J,space,,,,,,,,,,,,
,,,,,R_24NSu2fhZSVYdgx,001,2025-09-18_06h42.51.564,continuous_performance_test,2024.2.4,Win32,144.092219,e826f274-637a-447c-a0ab-5e52d13cfa87,4,301.728,303.429,space,1,0,24,24,8,1,I,space,0.354,,,,,,,,,,,
,,,,,R_24NSu2fhZSVYdgx,001,2025-09-18_06h42.51.564,continuous_performance_test,2024.2.4,Win32,144.092219,e826f274-637a-447c-a0ab-5e52d13cfa87,4,303.43,304.978,space,1,0,25,25,4,1,E,space,0.396,,,,,,,,,,,
,,,,,R_24NSu2fhZSVYdgx,001,2025-09-18_06h42.51.564,continuous_performance_test,2024.2.4,Win32,144.092219,e826f274-637a-447c-a0ab-5e52d13cfa87,4,304.978,306.727,space,1,0,26,26,24,1,Z,space,0.445,,,,,,,,,,,
,,,,,R_24NSu2fhZSVYdgx,001,2025-09-18_06h42.51.564,continuous_performance_test,2024.2.4,Win32,144.092219,e826f274-637a-447c-a0ab-5e52d13cfa87,4,306.728,308.373,space,1,0,27,27,22,1,W,space,0.425,,,,,,,,,,,
,,,,,R_24NSu2fhZSVYdgx,001,2025-09-18_06h42.51.564,continuous_performance_test,2024.2.4,Win32,144.092219,e826f274-637a-447c-a0ab-5e52d13cfa87,4,308.374,310.074,space,1,0,28,28,5,1,F,space,0.486,,,,,,,,,,,
,,,,,R_24NSu2fhZSVYdgx,001,2025-09-18_06h42.51.564,continuous_performance_test,2024.2.4,Win32,144.092219,e826f274-637a-447c-a0ab-5e52d13cfa87,4,310.075,312.074,space,1,0,29,29,11,1,L,space,0.395,,,,,,,,,,,
,,,,,R_24NSu2fhZSVYdgx,001,2025-09-18_06h42.51.564,continuous_performance_test,2024.2.4,Win32,144.092219,e826f274-637a-447c-a0ab-5e52d13cfa87,4,318.034,319.679,space,1,0,0,0,5,1,F,space,0.305,,312.075,318.026,space,5.931,,,,,,
,,,,,R_24NSu2fhZSVYdgx,001,2025-09-18_06h42.51.564,continuous_performance_test,2024.2.4,Win32,144.092219,e826f274-637a-447c-a0ab-5e52d13cfa87,4,319.68,321.477,,1,0,1,1,26,1,X,,,,,,,,,,,,,
,,,,,R_24NSu2fhZSVYdgx,001,2025-09-18_06h42.51.564,continuous_performance_test,2024.2.4,Win32,144.092219,e826f274-637a-447c-a0ab-5e52d13cfa87,4,321.478,323.276,space,1,0,2,2,24,1,Z,space,0.355,,,,,,,,,,,
,,,,,R_24NSu2fhZSVYdgx,001,2025-09-18_06h42.51.564,continuous_performance_test,2024.2.4,Win32,144.092219,e826f274-637a-447c-a0ab-5e52d13cfa87,4,323.276,325.026,space,1,0,3,3,1,1,B,space,0.326,,,,,,,,,,,
,,,,,R_24NSu2fhZSVYdgx,001,2025-09-18_06h42.51.564,continuous_performance_test,2024.2.4,Win32,144.092219,e826f274-637a-447c-a0ab-5e52d13cfa87,4,325.029,326.624,space,1,0,4,4,23,1,Y,space,0.313,,,,,,,,,,,
,,,,,R_24NSu2fhZSVYdgx,001,2025-09-18_06h42.51.564,continuous_performance_test,2024.2.4,Win32,144.092219,e826f274-637a-447c-a0ab-5e52d13cfa87,4,326.625,328.269,space,1,0,5,5,17,1,R,space,0.246,,,,,,,,,,,
,,,,,R_24NSu2fhZSVYdgx,001,2025-09-18_06h42.51.564,continuous_performance_test,2024.2.4,Win32,144.092219,e826f274-637a-447c-a0ab-5e52d13cfa87,4,328.27,329.866,,0,0,6,6,22,1,W,space,,,,,,,,,,,,
,,,,,R_24NSu2fhZSVYdgx,001,2025-09-18_06h42.51.564,continuous_performance_test,2024.2.4,Win32,144.092219,e826f274-637a-447c-a0ab-5e52d13cfa87,4,329.867,331.762,space,1,0,7,7,20,1,U,space,0.356,,,,,,,,,,,
,,,,,R_24NSu2fhZSVYdgx,001,2025-09-18_06h42.51.564,continuous_performance_test,2024.2.4,Win32,144.092219,e826f274-637a-447c-a0ab-5e52d13cfa87,4,331.763,333.464,space,1,0,8,8,21,1,V,space,0.321,,,,,,,,,,,
,,,,,R_24NSu2fhZSVYdgx,001,2025-09-18_06h42.51.564,continuous_performance_test,2024.2.4,Win32,144.092219,e826f274-637a-447c-a0ab-5e52d13cfa87,4,333.464,335.262,space,1,0,9,9,7,1,H,space,0.385,,,,,,,,,,,
,,,,,R_24NSu2fhZSVYdgx,001,2025-09-18_06h42.51.564,continuous_performance_test,2024.2.4,Win32,144.092219,e826f274-637a-447c-a0ab-5e52d13cfa87,4,335.263,337.158,space,1,0,10,10,3,1,D,space,0.417,,,,,,,,,,,
,,,,,R_24NSu2fhZSVYdgx,001,2025-09-18_06h42.51.564,continuous_performance_test,2024.2.4,Win32,144.092219,e826f274-637a-447c-a0ab-5e52d13cfa87,4,337.159,338.804,space,1,0,11,11,11,1,L,space,0.299,,,,,,,,,,,
,,,,,R_24NSu2fhZSVYdgx,001,2025-09-18_06h42.51.564,continuous_performance_test,2024.2.4,Win32,144.092219,e826f274-637a-447c-a0ab-5e52d13cfa87,4,338.805,340.401,space,1,0,12,12,8,1,I,space,0.423,,,,,,,,,,,
,,,,,R_24NSu2fhZSVYdgx,001,2025-09-18_06h42.51.564,continuous_performance_test,2024.2.4,Win32,144.092219,e826f274-637a-447c-a0ab-5e52d13cfa87,4,340.402,342.401,,1,0,13,13,27,1,X,,,,,,,,,,,,,
,,,,,R_24NSu2fhZSVYdgx,001,2025-09-18_06h42.51.564,continuous_performance_test,2024.2.4,Win32,144.092219,e826f274-637a-447c-a0ab-5e52d13cfa87,4,342.401,344.297,space,0,0,14,14,29,1,X,,0.327,,,,,,,,,,,
,,,,,R_24NSu2fhZSVYdgx,001,2025-09-18_06h42.51.564,continuous_performance_test,2024.2.4,Win32,144.092219,e826f274-637a-447c-a0ab-5e52d13cfa87,4,344.297,346.192,space,1,0,15,15,2,1,C,space,0.463,,,,,,,,,,,
,,,,,R_24NSu2fhZSVYdgx,001,2025-09-18_06h42.51.564,continuous_performance_test,2024.2.4,Win32,144.092219,e826f274-637a-447c-a0ab-5e52d13cfa87,4,346.193,348.145,space,1,0,16,16,16,1,Q,space,0.357,,,,,,,,,,,
,,,,,R_24NSu2fhZSVYdgx,001,2025-09-18_06h42.51.564,continuous_performance_test,2024.2.4,Win32,144.092219,e826f274-637a-447c-a0ab-5e52d13cfa87,4,348.145,349.693,space,0,0,17,17,25,1,X,,0.362,,,,,,,,,,,
,,,,,R_24NSu2fhZSVYdgx,001,2025-09-18_06h42.51.564,continuous_performance_test,2024.2.4,Win32,144.092219,e826f274-637a-447c-a0ab-5e52d13cfa87,4,349.694,351.442,space,1,0,18,18,19,1,T,space,0.445,,,,,,,,,,,
,,,,,R_24NSu2fhZSVYdgx,001,2025-09-18_06h42.51.564,continuous_performance_test,2024.2.4,Win32,144.092219,e826f274-637a-447c-a0ab-5e52d13cfa87,4,351.443,353.338,space,1,0,19,19,13,1,N,space,0.419,,,,,,,,,,,
,,,,,R_24NSu2fhZSVYdgx,001,2025-09-18_06h42.51.564,continuous_performance_test,2024.2.4,Win32,144.092219,e826f274-637a-447c-a0ab-5e52d13cfa87,4,353.339,355.04,,0,0,20,20,10,1,K,space,,,,,,,,,,,,
,,,,,R_24NSu2fhZSVYdgx,001,2025-09-18_06h42.51.564,continuous_performance_test,2024.2.4,Win32,144.092219,e826f274-637a-447c-a0ab-5e52d13cfa87,4,355.04,356.735,space,0,0,21,21,28,1,X,,0.312,,,,,,,,,,,
,,,,,R_24NSu2fhZSVYdgx,001,2025-09-18_06h42.51.564,continuous_performance_test,2024.2.4,Win32,144.092219,e826f274-637a-447c-a0ab-5e52d13cfa87,4,356.737,358.533,space,1,0,22,22,14,1,O,space,0.514,,,,,,,,,,,
,,,,,R_24NSu2fhZSVYdgx,001,2025-09-18_06h42.51.564,continuous_performance_test,2024.2.4,Win32,144.092219,e826f274-637a-447c-a0ab-5e52d13cfa87,4,358.534,360.228,space,1,0,23,23,15,1,P,space,0.347,,,,,,,,,,,
,,,,,R_24NSu2fhZSVYdgx,001,2025-09-18_06h42.51.564,continuous_performance_test,2024.2.4,Win32,144.092219,e826f274-637a-447c-a0ab-5e52d13cfa87,4,360.229,362.026,space,1,0,24,24,4,1,E,space,0.421,,,,,,,,,,,
,,,,,R_24NSu2fhZSVYdgx,001,2025-09-18_06h42.51.564,continuous_performance_test,2024.2.4,Win32,144.092219,e826f274-637a-447c-a0ab-5e52d13cfa87,4,362.027,363.825,space,1,0,25,25,0,1,A,space,0.285,,,,,,,,,,,
,,,,,R_24NSu2fhZSVYdgx,001,2025-09-18_06h42.51.564,continuous_performance_test,2024.2.4,Win32,144.092219,e826f274-637a-447c-a0ab-5e52d13cfa87,4,363.826,365.673,space,1,0,26,26,12,1,M,space,0.334,,,,,,,,,,,
,,,,,R_24NSu2fhZSVYdgx,001,2025-09-18_06h42.51.564,continuous_performance_test,2024.2.4,Win32,144.092219,e826f274-637a-447c-a0ab-5e52d13cfa87,4,365.674,367.221,space,1,0,27,27,6,1,G,space,0.352,,,,,,,,,,,
,,,,,R_24NSu2fhZSVYdgx,001,2025-09-18_06h42.51.564,continuous_performance_test,2024.2.4,Win32,144.092219,e826f274-637a-447c-a0ab-5e52d13cfa87,4,367.222,368.769,space,1,0,28,28,9,1,J,space,0.347,,,,,,,,,,,
,,,,,R_24NSu2fhZSVYdgx,001,2025-09-18_06h42.51.564,continuous_performance_test,2024.2.4,Win32,144.092219,e826f274-637a-447c-a0ab-5e52d13cfa87,4,368.77,370.714,,0,0,29,29,18,1,S,space,,,,,,,,,,,,
,,,,,R_24NSu2fhZSVYdgx,001,2025-09-18_06h42.51.564,continuous_performance_test,2024.2.4,Win32,144.092219,e826f274-637a-447c-a0ab-5e52d13cfa87,4,370.909,372.554,space,1,0,0,0,8,1,I,space,0.494,,370.715,370.901,space,0.165,,,,,,
,,,,,R_24NSu2fhZSVYdgx,001,2025-09-18_06h42.51.564,continuous_performance_test,2024.2.4,Win32,144.092219,e826f274-637a-447c-a0ab-5e52d13cfa87,4,372.555,374.151,space,1,0,1,1,0,1,A,space,0.28,,,,,,,,,,,
,,,,,R_24NSu2fhZSVYdgx,001,2025-09-18_06h42.51.564,continuous_performance_test,2024.2.4,Win32,144.092219,e826f274-637a-447c-a0ab-5e52d13cfa87,4,374.151,375.846,space,1,0,2,2,14,1,O,space,0.292,,,,,,,,,,,
,,,,,R_24NSu2fhZSVYdgx,001,2025-09-18_06h42.51.564,continuous_performance_test,2024.2.4,Win32,144.092219,e826f274-637a-447c-a0ab-5e52d13cfa87,4,375.847,377.693,space,0,0,3,3,25,1,X,,0.329,,,,,,,,,,,
,,,,,R_24NSu2fhZSVYdgx,001,2025-09-18_06h42.51.564,continuous_performance_test,2024.2.4,Win32,144.092219,e826f274-637a-447c-a0ab-5e52d13cfa87,4,377.693,379.589,space,1,0,4,4,13,1,N,space,0.361,,,,,,,,,,,
,,,,,R_24NSu2fhZSVYdgx,001,2025-09-18_06h42.51.564,continuous_performance_test,2024.2.4,Win32,144.092219,e826f274-637a-447c-a0ab-5e52d13cfa87,4,379.59,381.589,space,1,0,5,5,24,1,Z,space,0.329,,,,,,,,,,,
,,,,,R_24NSu2fhZSVYdgx,001,2025-09-18_06h42.51.564,continuous_performance_test,2024.2.4,Win32,144.092219,e826f274-637a-447c-a0ab-5e52d13cfa87,4,381.59,383.485,space,1,0,6,6,12,1,M,space,0.341,,,,,,,,,,,
,,,,,R_24NSu2fhZSVYdgx,001,2025-09-18_06h42.51.564,continuous_performance_test,2024.2.4,Win32,144.092219,e826f274-637a-447c-a0ab-5e52d13cfa87,4,383.486,385.332,space,0,0,7,7,27,1,X,,0.493,,,,,,,,,,,
,,,,,R_24NSu2fhZSVYdgx,001,2025-09-18_06h42.51.564,continuous_performance_test,2024.2.4,Win32,144.092219,e826f274-637a-447c-a0ab-5e52d13cfa87,4,385.332,386.978,,1,0,8,8,28,1,X,,,,,,,,,,,,,
,,,,,R_24NSu2fhZSVYdgx,001,2025-09-18_06h42.51.564,continuous_performance_test,2024.2.4,Win32,144.092219,e826f274-637a-447c-a0ab-5e52d13cfa87,4,386.978,388.874,space,1,0,9,9,3,1,D,space,0.374,,,,,,,,,,,
,,,,,R_24NSu2fhZSVYdgx,001,2025-09-18_06h42.51.564,continuous_performance_test,2024.2.4,Win32,144.092219,e826f274-637a-447c-a0ab-5e52d13cfa87,4,388.876,390.874,space,1,0,10,10,2,1,C,space,0.395,,,,,,,,,,,
,,,,,R_24NSu2fhZSVYdgx,001,2025-09-18_06h42.51.564,continuous_performance_test,2024.2.4,Win32,144.092219,e826f274-637a-447c-a0ab-5e52d13cfa87,4,390.875,392.672,space,1,0,11,11,20,1,U,space,0.397,,,,,,,,,,,
,,,,,R_24NSu2fhZSVYdgx,001,2025-09-18_06h42.51.564,continuous_performance_test,2024.2.4,Win32,144.092219,e826f274-637a-447c-a0ab-5e52d13cfa87,4,392.674,394.575,space,1,0,12,12,15,1,P,space,0.426,,,,,,,,,,,
,,,,,R_24NSu2fhZSVYdgx,001,2025-09-18_06h42.51.564,continuous_performance_test,2024.2.4,Win32,144.092219,e826f274-637a-447c-a0ab-5e52d13cfa87,4,394.576,396.221,space,1,0,13,13,18,1,S,space,0.341,,,,,,,,,,,
,,,,,R_24NSu2fhZSVYdgx,001,2025-09-18_06h42.51.564,continuous_performance_test,2024.2.4,Win32,144.092219,e826f274-637a-447c-a0ab-5e52d13cfa87,4,396.221,398.068,space,1,0,14,14,22,1,W,space,0.321,,,,,,,,,,,
,,,,,R_24NSu2fhZSVYdgx,001,2025-09-18_06h42.51.564,continuous_performance_test,2024.2.4,Win32,144.092219,e826f274-637a-447c-a0ab-5e52d13cfa87,4,398.068,399.769,space,1,0,15,15,1,1,B,space,0.364,,,,,,,,,,,
,,,,,R_24NSu2fhZSVYdgx,001,2025-09-18_06h42.51.564,continuous_performance_test,2024.2.4,Win32,144.092219,e826f274-637a-447c-a0ab-5e52d13cfa87,4,399.77,401.666,space,1,0,16,16,17,1,R,space,0.287,,,,,,,,,,,
,,,,,R_24NSu2fhZSVYdgx,001,2025-09-18_06h42.51.564,continuous_performance_test,2024.2.4,Win32,144.092219,e826f274-637a-447c-a0ab-5e52d13cfa87,4,401.666,403.214,space,1,0,17,17,7,1,H,space,0.328,,,,,,,,,,,
,,,,,R_24NSu2fhZSVYdgx,001,2025-09-18_06h42.51.564,continuous_performance_test,2024.2.4,Win32,144.092219,e826f274-637a-447c-a0ab-5e52d13cfa87,4,403.215,405.013,space,1,0,18,18,10,1,K,space,0.313,,,,,,,,,,,
,,,,,R_24NSu2fhZSVYdgx,001,2025-09-18_06h42.51.564,continuous_performance_test,2024.2.4,Win32,144.092219,e826f274-637a-447c-a0ab-5e52d13cfa87,4,405.014,407.012,,0,0,19,19,9,1,J,space,,,,,,,,,,,,
,,,,,R_24NSu2fhZSVYdgx,001,2025-09-18_06h42.51.564,continuous_performance_test,2024.2.4,Win32,144.092219,e826f274-637a-447c-a0ab-5e52d13cfa87,4,407.013,408.714,space,0,0,20,20,29,1,X,,0.57,,,,,,,,,,,
,,,,,R_24NSu2fhZSVYdgx,001,2025-09-18_06h42.51.564,continuous_performance_test,2024.2.4,Win32,144.092219,e826f274-637a-447c-a0ab-5e52d13cfa87,4,408.715,410.61,,1,0,21,21,26,1,X,,,,,,,,,,,,,
,,,,,R_24NSu2fhZSVYdgx,001,2025-09-18_06h42.51.564,continuous_performance_test,2024.2.4,Win32,144.092219,e826f274-637a-447c-a0ab-5e52d13cfa87,4,410.611,412.61,space,1,0,22,22,4,1,E,space,0.385,,,,,,,,,,,
,,,,,R_24NSu2fhZSVYdgx,001,2025-09-18_06h42.51.564,continuous_performance_test,2024.2.4,Win32,144.092219,e826f274-637a-447c-a0ab-5e52d13cfa87,4,412.611,414.159,space,1,0,23,23,21,1,V,space,0.56,,,,,,,,,,,
,,,,,R_24NSu2fhZSVYdgx,001,2025-09-18_06h42.51.564,continuous_performance_test,2024.2.4,Win32,144.092219,e826f274-637a-447c-a0ab-5e52d13cfa87,4,414.16,415.804,space,1,0,24,24,23,1,Y,space,0.424,,,,,,,,,,,
,,,,,R_24NSu2fhZSVYdgx,001,2025-09-18_06h42.51.564,continuous_performance_test,2024.2.4,Win32,144.092219,e826f274-637a-447c-a0ab-5e52d13cfa87,4,415.805,417.353,space,1,0,25,25,16,1,Q,space,0.478,,,,,,,,,,,
,,,,,R_24NSu2fhZSVYdgx,001,2025-09-18_06h42.51.564,continuous_performance_test,2024.2.4,Win32,144.092219,e826f274-637a-447c-a0ab-5e52d13cfa87,4,417.354,419.048,space,1,0,26,26,6,1,G,space,0.391,,,,,,,,,,,
,,,,,R_24NSu2fhZSVYdgx,001,2025-09-18_06h42.51.564,continuous_performance_test,2024.2.4,Win32,144.092219,e826f274-637a-447c-a0ab-5e52d13cfa87,4,419.048,420.693,space,1,0,27,27,11,1,L,space,0.466,,,,,,,,,,,
,,,,,R_24NSu2fhZSVYdgx,001,2025-09-18_06h42.51.564,continuous_performance_test,2024.2.4,Win32,144.092219,e826f274-637a-447c-a0ab-5e52d13cfa87,4,420.694,422.693,space,1,0,28,28,19,1,T,space,0.402,,,,,,,,,,,
,,,,,R_24NSu2fhZSVYdgx,001,2025-09-18_06h42.51.564,continuous_performance_test,2024.2.4,Win32,144.092219,e826f274-637a-447c-a0ab-5e52d13cfa87,4,422.696,424.596,space,1,0,29,29,5,1,F,space,0.33,,,,,,,,,,,
,,,,,R_24NSu2fhZSVYdgx,001,2025-09-18_06h42.51.564,continuous_performance_test,2024.2.4,Win32,144.092219,e826f274-637a-447c-a0ab-5e52d13cfa87,4,434.534,436.284,space,1,0,0,0,11,1,L,space,0.285,,424.597,434.527,space,9.909,,,,,,
,,,,,R_24NSu2fhZSVYdgx,001,2025-09-18_06h42.51.564,continuous_performance_test,2024.2.4,Win32,144.092219,e826f274-637a-447c-a0ab-5e52d13cfa87,4,436.285,438.033,space,1,0,1,1,21,1,V,space,0.376,,,,,,,,,,,
,,,,,R_24NSu2fhZSVYdgx,001,2025-09-18_06h42.51.564,continuous_performance_test,2024.2.4,Win32,144.092219,e826f274-637a-447c-a0ab-5e52d13cfa87,4,438.034,439.784,space,1,0,2,2,2,1,C,space,0.404,,,,,,,,,,,
,,,,,R_24NSu2fhZSVYdgx,001,2025-09-18_06h42.51.564,continuous_performance_test,2024.2.4,Win32,144.092219,e826f274-637a-447c-a0ab-5e52d13cfa87,4,439.784,441.533,space,1,0,3,3,20,1,U,space,0.442,,,,,,,,,,,
,,,,,R_24NSu2fhZSVYdgx,001,2025-09-18_06h42.51.564,continuous_performance_test,2024.2.4,Win32,144.092219,e826f274-637a-447c-a0ab-5e52d13cfa87,4,441.534,443.131,space,1,0,4,4,7,1,H,space,0.524,,,,,,,,,,,
,,,,,R_24NSu2fhZSVYdgx,001,2025-09-18_06h42.51.564,continuous_performance_test,2024.2.4,Win32,144.092219,e826f274-637a-447c-a0ab-5e52d13cfa87,4,443.132,444.832,space,1,0,5,5,24,1,Z,space,0.405,,,,,,,,,,,
,,,,,R_24NSu2fhZSVYdgx,001,2025-09-18_06h42.51.564,continuous_performance_test,2024.2.4,Win32,144.092219,e826f274-637a-447c-a0ab-5e52d13cfa87,4,444.833,446.833,,1,0,6,6,25,1,X,,,,,,,,,,,,,
,,,,,R_24NSu2fhZSVYdgx,001,2025-09-18_06h42.51.564,continuous_performance_test,2024.2.4,Win32,144.092219,e826f274-637a-447c-a0ab-5e52d13cfa87,4,446.834,448.631,space,1,0,7,7,12,1,M,space,0.406,,,,,,,,,,,
,,,,,R_24NSu2fhZSVYdgx,001,2025-09-18_06h42.51.564,continuous_performance_test,2024.2.4,Win32,144.092219,e826f274-637a-447c-a0ab-5e52d13cfa87,4,448.632,450.229,space,1,0,8,8,4,1,E,space,0.306,,,,,,,,,,,
,,,,,R_24NSu2fhZSVYdgx,001,2025-09-18_06h42.51.564,continuous_performance_test,2024.2.4,Win32,144.092219,e826f274-637a-447c-a0ab-5e52d13cfa87,4,450.23,451.825,space,1,0,9,9,14,1,O,space,0.369,,,,,,,,,,,
,,,,,R_24NSu2fhZSVYdgx,001,2025-09-18_06h42.51.564,continuous_performance_test,2024.2.4,Win32,144.092219,e826f274-637a-447c-a0ab-5e52d13cfa87,4,451.826,453.77,space,1,0,10,10,10,1,K,space,0.454,,,,,,,,,,,
,,,,,R_24NSu2fhZSVYdgx,001,2025-09-18_06h42.51.564,continuous_performance_test,2024.2.4,Win32,144.092219,e826f274-637a-447c-a0ab-5e52d13cfa87,4,453.77,455.722,space,1,0,11,11,8,1,I,space,0.388,,,,,,,,,,,
,,,,,R_24NSu2fhZSVYdgx,001,2025-09-18_06h42.51.564,continuous_performance_test,2024.2.4,Win32,144.092219,e826f274-637a-447c-a0ab-5e52d13cfa87,4,455.724,457.422,space,1,0,12,12,1,1,B,space,0.41,,,,,,,,,,,
,,,,,R_24NSu2fhZSVYdgx,001,2025-09-18_06h42.51.564,continuous_performance_test,2024.2.4,Win32,144.092219,e826f274-637a-447c-a0ab-5e52d13cfa87,4,457.423,459.221,space,1,0,13,13,22,1,W,space,0.348,,,,,,,,,,,
,,,,,R_24NSu2fhZSVYdgx,001,2025-09-18_06h42.51.564,continuous_performance_test,2024.2.4,Win32,144.092219,e826f274-637a-447c-a0ab-5e52d13cfa87,4,459.222,461.069,space,1,0,14,14,16,1,Q,space,0.882,,,,,,,,,,,
,,,,,R_24NSu2fhZSVYdgx,001,2025-09-18_06h42.51.564,continuous_performance_test,2024.2.4,Win32,144.092219,e826f274-637a-447c-a0ab-5e52d13cfa87,4,461.07,462.818,space,1,0,15,15,6,1,G,space,0.348,,,,,,,,,,,
,,,,,R_24NSu2fhZSVYdgx,001,2025-09-18_06h42.51.564,continuous_performance_test,2024.2.4,Win32,144.092219,e826f274-637a-447c-a0ab-5e52d13cfa87,4,462.819,464.819,space,1,0,16,16,9,1,J,space,0.382,,,,,,,,,,,
,,,,,R_24NSu2fhZSVYdgx,001,2025-09-18_06h42.51.564,continuous_performance_test,2024.2.4,Win32,144.092219,e826f274-637a-447c-a0ab-5e52d13cfa87,4,464.82,466.77,space,1,0,17,17,5,1,F,space,0.437,,,,,,,,,,,
,,,,,R_24NSu2fhZSVYdgx,001,2025-09-18_06h42.51.564,continuous_performance_test,2024.2.4,Win32,144.092219,e826f274-637a-447c-a0ab-5e52d13cfa87,4,466.771,468.471,space,1,0,18,18,19,1,T,space,0.534,,,,,,,,,,,
,,,,,R_24NSu2fhZSVYdgx,001,2025-09-18_06h42.51.564,continuous_performance_test,2024.2.4,Win32,144.092219,e826f274-637a-447c-a0ab-5e52d13cfa87,4,468.472,470.02,space,0,0,19,19,27,1,X,,0.39,,,,,,,,,,,
,,,,,R_24NSu2fhZSVYdgx,001,2025-09-18_06h42.51.564,continuous_performance_test,2024.2.4,Win32,144.092219,e826f274-637a-447c-a0ab-5e52d13cfa87,4,470.021,471.77,space,1,0,20,20,13,1,N,space,0.452,,,,,,,,,,,
,,,,,R_24NSu2fhZSVYdgx,001,2025-09-18_06h42.51.564,continuous_performance_test,2024.2.4,Win32,144.092219,e826f274-637a-447c-a0ab-5e52d13cfa87,4,471.77,473.367,,1,0,21,21,26,1,X,,,,,,,,,,,,,
,,,,,R_24NSu2fhZSVYdgx,001,2025-09-18_06h42.51.564,continuous_performance_test,2024.2.4,Win32,144.092219,e826f274-637a-447c-a0ab-5e52d13cfa87,4,473.368,475.214,space,0,0,22,22,29,1,X,,0.313,,,,,,,,,,,
,,,,,R_24NSu2fhZSVYdgx,001,2025-09-18_06h42.51.564,continuous_performance_test,2024.2.4,Win32,144.092219,e826f274-637a-447c-a0ab-5e52d13cfa87,4,475.215,476.763,space,1,0,23,23,3,1,D,space,0.451,,,,,,,,,,,
,,,,,R_24NSu2fhZSVYdgx,001,2025-09-18_06h42.51.564,continuous_performance_test,2024.2.4,Win32,144.092219,e826f274-637a-447c-a0ab-5e52d13cfa87,4,476.764,478.714,space,1,0,24,24,18,1,S,space,0.348,,,,,,,,,,,
,,,,,R_24NSu2fhZSVYdgx,001,2025-09-18_06h42.51.564,continuous_performance_test,2024.2.4,Win32,144.092219,e826f274-637a-447c-a0ab-5e52d13cfa87,4,478.715,480.61,space,1,0,25,25,17,1,R,space,0.339,,,,,,,,,,,
,,,,,R_24NSu2fhZSVYdgx,001,2025-09-18_06h42.51.564,continuous_performance_test,2024.2.4,Win32,144.092219,e826f274-637a-447c-a0ab-5e52d13cfa87,4,480.611,482.506,space,1,0,26,26,23,1,Y,space,0.443,,,,,,,,,,,
,,,,,R_24NSu2fhZSVYdgx,001,2025-09-18_06h42.51.564,continuous_performance_test,2024.2.4,Win32,144.092219,e826f274-637a-447c-a0ab-5e52d13cfa87,4,482.506,484.055,space,0,0,27,27,28,1,X,,0.417,,,,,,,,,,,
,,,,,R_24NSu2fhZSVYdgx,001,2025-09-18_06h42.51.564,continuous_performance_test,2024.2.4,Win32,144.092219,e826f274-637a-447c-a0ab-5e52d13cfa87,4,484.056,485.951,,0,0,28,28,0,1,A,space,,,,,,,,,,,,
,,,,,R_24NSu2fhZSVYdgx,001,2025-09-18_06h42.51.564,continuous_performance_test,2024.2.4,Win32,144.092219,e826f274-637a-447c-a0ab-5e52d13cfa87,4,485.954,487.652,space,1,0,29,29,15,1,P,space,0.53,,,,,,,,,,,
,,,,,R_24NSu2fhZSVYdgx,001,2025-09-18_06h42.51.564,continuous_performance_test,2024.2.4,Win32,144.092219,e826f274-637a-447c-a0ab-5e52d13cfa87,4,493.966,495.861,space,0,0,0,0,29,1,X,,0.3,,487.653,493.958,space,6.291,,,,,,
,,,,,R_24NSu2fhZSVYdgx,001,2025-09-18_06h42.51.564,continuous_performance_test,2024.2.4,Win32,144.092219,e826f274-637a-447c-a0ab-5e52d13cfa87,4,495.862,497.708,space,1,0,1,1,0,1,A,space,0.39,,,,,,,,,,,
,,,,,R_24NSu2fhZSVYdgx,001,2025-09-18_06h42.51.564,continuous_performance_test,2024.2.4,Win32,144.092219,e826f274-637a-447c-a0ab-5e52d13cfa87,4,497.709,499.659,space,1,0,2,2,9,1,J,space,0.371,,,,,,,,,,,
,,,,,R_24NSu2fhZSVYdgx,001,2025-09-18_06h42.51.564,continuous_performance_test,2024.2.4,Win32,144.092219,e826f274-637a-447c-a0ab-5e52d13cfa87,4,499.66,501.305,space,1,0,3,3,12,1,M,space,0.43,,,,,,,,,,,
,,,,,R_24NSu2fhZSVYdgx,001,2025-09-18_06h42.51.564,continuous_performance_test,2024.2.4,Win32,144.092219,e826f274-637a-447c-a0ab-5e52d13cfa87,4,501.306,503.055,space,1,0,4,4,17,1,R,space,0.326,,,,,,,,,,,
,,,,,R_24NSu2fhZSVYdgx,001,2025-09-18_06h42.51.564,continuous_performance_test,2024.2.4,Win32,144.092219,e826f274-637a-447c-a0ab-5e52d13cfa87,4,503.056,504.95,space,1,0,5,5,18,1,S,space,0.489,,,,,,,,,,,
,,,,,R_24NSu2fhZSVYdgx,001,2025-09-18_06h42.51.564,continuous_performance_test,2024.2.4,Win32,144.092219,e826f274-637a-447c-a0ab-5e52d13cfa87,4,504.951,506.652,space,1,0,6,6,13,1,N,space,0.604,,,,,,,,,,,
,,,,,R_24NSu2fhZSVYdgx,001,2025-09-18_06h42.51.564,continuous_performance_test,2024.2.4,Win32,144.092219,e826f274-637a-447c-a0ab-5e52d13cfa87,4,506.654,508.304,,1,0,7,7,25,1,X,,,,,,,,,,,,,
,,,,,R_24NSu2fhZSVYdgx,001,2025-09-18_06h42.51.564,continuous_performance_test,2024.2.4,Win32,144.092219,e826f274-637a-447c-a0ab-5e52d13cfa87,4,508.305,509.95,space,1,0,8,8,21,1,V,space,0.409,,,,,,,,,,,
,,,,,R_24NSu2fhZSVYdgx,001,2025-09-18_06h42.51.564,continuous_performance_test,2024.2.4,Win32,144.092219,e826f274-637a-447c-a0ab-5e52d13cfa87,4,509.951,511.701,space,1,0,9,9,16,1,Q,space,0.425,,,,,,,,,,,
,,,,,R_24NSu2fhZSVYdgx,001,2025-09-18_06h42.51.564,continuous_performance_test,2024.2.4,Win32,144.092219,e826f274-637a-447c-a0ab-5e52d13cfa87,4,511.702,513.249,space,1,0,10,10,4,1,E,space,0.462,,,,,,,,,,,
,,,,,R_24NSu2fhZSVYdgx,001,2025-09-18_06h42.51.564,continuous_performance_test,2024.2.4,Win32,144.092219,e826f274-637a-447c-a0ab-5e52d13cfa87,4,513.25,514.798,,1,0,11,11,28,1,X,,,,,,,,,,,,,
,,,,,R_24NSu2fhZSVYdgx,001,2025-09-18_06h42.51.564,continuous_performance_test,2024.2.4,Win32,144.092219,e826f274-637a-447c-a0ab-5e52d13cfa87,4,514.799,516.444,space,1,0,12,12,19,1,T,space,0.475,,,,,,,,,,,
,,,,,R_24NSu2fhZSVYdgx,001,2025-09-18_06h42.51.564,continuous_performance_test,2024.2.4,Win32,144.092219,e826f274-637a-447c-a0ab-5e52d13cfa87,4,516.445,518.041,space,1,0,13,13,1,1,B,space,0.446,,,,,,,,,,,
,,,,,R_24NSu2fhZSVYdgx,001,2025-09-18_06h42.51.564,continuous_performance_test,2024.2.4,Win32,144.092219,e826f274-637a-447c-a0ab-5e52d13cfa87,4,518.044,519.791,space,1,0,14,14,11,1,L,space,0.503,,,,,,,,,,,
,,,,,R_24NSu2fhZSVYdgx,001,2025-09-18_06h42.51.564,continuous_performance_test,2024.2.4,Win32,144.092219,e826f274-637a-447c-a0ab-5e52d13cfa87,4,519.792,521.492,space,1,0,15,15,14,1,O,space,0.604,,,,,,,,,,,
,,,,,R_24NSu2fhZSVYdgx,001,2025-09-18_06h42.51.564,continuous_performance_test,2024.2.4,Win32,144.092219,e826f274-637a-447c-a0ab-5e52d13cfa87,4,521.493,523.242,space,1,0,16,16,2,1,C,space,0.451,,,,,,,,,,,
,,,,,R_24NSu2fhZSVYdgx,001,2025-09-18_06h42.51.564,continuous_performance_test,2024.2.4,Win32,144.092219,e826f274-637a-447c-a0ab-5e52d13cfa87,4,523.243,524.993,,1,0,17,17,27,1,X,,,,,,,,,,,,,
,,,,,R_24NSu2fhZSVYdgx,001,2025-09-18_06h42.51.564,continuous_performance_test,2024.2.4,Win32,144.092219,e826f274-637a-447c-a0ab-5e52d13cfa87,4,524.994,526.839,space,1,0,18,18,15,1,P,space,0.577,,,,,,,,,,,
,,,,,R_24NSu2fhZSVYdgx,001,2025-09-18_06h42.51.564,continuous_performance_test,2024.2.4,Win32,144.092219,e826f274-637a-447c-a0ab-5e52d13cfa87,4,526.84,528.785,space,1,0,19,19,3,1,D,space,0.48,,,,,,,,,,,
,,,,,R_24NSu2fhZSVYdgx,001,2025-09-18_06h42.51.564,continuous_performance_test,2024.2.4,Win32,144.092219,e826f274-637a-447c-a0ab-5e52d13cfa87,4,528.786,530.382,space,1,0,20,20,5,1,F,space,0.626,,,,,,,,,,,
,,,,,R_24NSu2fhZSVYdgx,001,2025-09-18_06h42.51.564,continuous_performance_test,2024.2.4,Win32,144.092219,e826f274-637a-447c-a0ab-5e52d13cfa87,4,530.382,531.931,space,1,0,21,21,23,1,Y,space,0.479,,,,,,,,,,,
,,,,,R_24NSu2fhZSVYdgx,001,2025-09-18_06h42.51.564,continuous_performance_test,2024.2.4,Win32,144.092219,e826f274-637a-447c-a0ab-5e52d13cfa87,4,531.931,533.632,space,1,0,22,22,10,1,K,space,0.465,,,,,,,,,,,
,,,,,R_24NSu2fhZSVYdgx,001,2025-09-18_06h42.51.564,continuous_performance_test,2024.2.4,Win32,144.092219,e826f274-637a-447c-a0ab-5e52d13cfa87,4,533.632,535.333,space,1,0,23,23,22,1,W,space,0.43,,,,,,,,,,,
,,,,,R_24NSu2fhZSVYdgx,001,2025-09-18_06h42.51.564,continuous_performance_test,2024.2.4,Win32,144.092219,e826f274-637a-447c-a0ab-5e52d13cfa87,4,535.334,537.332,,1,0,24,24,26,1,X,,,,,,,,,,,,,
,,,,,R_24NSu2fhZSVYdgx,001,2025-09-18_06h42.51.564,continuous_performance_test,2024.2.4,Win32,144.092219,e826f274-637a-447c-a0ab-5e52d13cfa87,4,537.333,539.083,space,1,0,25,25,7,1,H,space,0.437,,,,,,,,,,,
,,,,,R_24NSu2fhZSVYdgx,001,2025-09-18_06h42.51.564,continuous_performance_test,2024.2.4,Win32,144.092219,e826f274-637a-447c-a0ab-5e52d13cfa87,4,539.084,540.833,space,1,0,26,26,8,1,I,space,0.614,,,,,,,,,,,
,,,,,R_24NSu2fhZSVYdgx,001,2025-09-18_06h42.51.564,continuous_performance_test,2024.2.4,Win32,144.092219,e826f274-637a-447c-a0ab-5e52d13cfa87,4,540.834,542.833,,0,0,27,27,6,1,G,space,,,,,,,,,,,,
,,,,,R_24NSu2fhZSVYdgx,001,2025-09-18_06h42.51.564,continuous_performance_test,2024.2.4,Win32,144.092219,e826f274-637a-447c-a0ab-5e52d13cfa87,4,542.834,544.784,space,1,0,28,28,20,1,U,space,0.558,,,,,,,,,,,
,,,,,R_24NSu2fhZSVYdgx,001,2025-09-18_06h42.51.564,continuous_performance_test,2024.2.4,Win32,144.092219,e826f274-637a-447c-a0ab-5e52d13cfa87,4,544.785,546.333,space,1,0,29,29,24,1,Z,space,0.745,,,,,,,,,,,
,,,,,R_24NSu2fhZSVYdgx,001,2025-09-18_06h42.51.564,continuous_performance_test,2024.2.4,Win32,144.092219,e826f274-637a-447c-a0ab-5e52d13cfa87,4,548.301,550.25,space,0,0,0,0,25,1,X,,0.327,,546.334,548.291,space,1.945,,,,,,
,,,,,R_24NSu2fhZSVYdgx,001,2025-09-18_06h42.51.564,continuous_performance_test,2024.2.4,Win32,144.092219,e826f274-637a-447c-a0ab-5e52d13cfa87,4,550.25,552.249,space,1,0,1,1,17,1,R,space,0.413,,,,,,,,,,,
,,,,,R_24NSu2fhZSVYdgx,001,2025-09-18_06h42.51.564,continuous_performance_test,2024.2.4,Win32,144.092219,e826f274-637a-447c-a0ab-5e52d13cfa87,4,552.25,553.846,space,1,0,2,2,24,1,Z,space,0.355,,,,,,,,,,,
,,,,,R_24NSu2fhZSVYdgx,001,2025-09-18_06h42.51.564,continuous_performance_test,2024.2.4,Win32,144.092219,e826f274-637a-447c-a0ab-5e52d13cfa87,4,553.848,555.548,space,1,0,3,3,23,1,Y,space,0.343,,,,,,,,,,,
,,,,,R_24NSu2fhZSVYdgx,001,2025-09-18_06h42.51.564,continuous_performance_test,2024.2.4,Win32,144.092219,e826f274-637a-447c-a0ab-5e52d13cfa87,4,555.549,557.493,,1,0,4,4,28,1,X,,,,,,,,,,,,,
,,,,,R_24NSu2fhZSVYdgx,001,2025-09-18_06h42.51.564,continuous_performance_test,2024.2.4,Win32,144.092219,e826f274-637a-447c-a0ab-5e52d13cfa87,4,557.494,559.291,space,1,0,5,5,12,1,M,space,0.467,,,,,,,,,,,
,,,,,R_24NSu2fhZSVYdgx,001,2025-09-18_06h42.51.564,continuous_performance_test,2024.2.4,Win32,144.092219,e826f274-637a-447c-a0ab-5e52d13cfa87,4,559.293,560.992,space,1,0,6,6,4,1,E,space,0.639,,,,,,,,,,,
,,,,,R_24NSu2fhZSVYdgx,001,2025-09-18_06h42.51.564,continuous_performance_test,2024.2.4,Win32,144.092219,e826f274-637a-447c-a0ab-5e52d13cfa87,4,560.993,562.944,space,1,0,7,7,7,1,H,space,0.45,,,,,,,,,,,
,,,,,R_24NSu2fhZSVYdgx,001,2025-09-18_06h42.51.564,continuous_performance_test,2024.2.4,Win32,144.092219,e826f274-637a-447c-a0ab-5e52d13cfa87,4,562.945,564.694,space,1,0,8,8,10,1,K,space,0.478,,,,,,,,,,,
,,,,,R_24NSu2fhZSVYdgx,001,2025-09-18_06h42.51.564,continuous_performance_test,2024.2.4,Win32,144.092219,e826f274-637a-447c-a0ab-5e52d13cfa87,4,564.695,566.59,space,1,0,9,9,15,1,P,space,0.34,,,,,,,,,,,
,,,,,R_24NSu2fhZSVYdgx,001,2025-09-18_06h42.51.564,continuous_performance_test,2024.2.4,Win32,144.092219,e826f274-637a-447c-a0ab-5e52d13cfa87,4,566.59,568.236,space,1,0,10,10,5,1,F,space,0.409,,,,,,,,,,,
,,,,,R_24NSu2fhZSVYdgx,001,2025-09-18_06h42.51.564,continuous_performance_test,2024.2.4,Win32,144.092219,e826f274-637a-447c-a0ab-5e52d13cfa87,4,568.236,570.188,space,1,0,11,11,16,1,Q,space,0.399,,,,,,,,,,,
,,,,,R_24NSu2fhZSVYdgx,001,2025-09-18_06h42.51.564,continuous_performance_test,2024.2.4,Win32,144.092219,e826f274-637a-447c-a0ab-5e52d13cfa87,4,570.188,571.833,space,1,0,12,12,11,1,L,space,0.328,,,,,,,,,,,
,,,,,R_24NSu2fhZSVYdgx,001,2025-09-18_06h42.51.564,continuous_performance_test,2024.2.4,Win32,144.092219,e826f274-637a-447c-a0ab-5e52d13cfa87,4,571.834,573.43,space,1,0,13,13,0,1,A,space,0.396,,,,,,,,,,,
,,,,,R_24NSu2fhZSVYdgx,001,2025-09-18_06h42.51.564,continuous_performance_test,2024.2.4,Win32,144.092219,e826f274-637a-447c-a0ab-5e52d13cfa87,4,573.431,575.076,space,1,0,14,14,1,1,B,space,0.353,,,,,,,,,,,
,,,,,R_24NSu2fhZSVYdgx,001,2025-09-18_06h42.51.564,continuous_performance_test,2024.2.4,Win32,144.092219,e826f274-637a-447c-a0ab-5e52d13cfa87,4,575.077,576.875,space,1,0,15,15,21,1,V,space,0.387,,,,,,,,,,,
,,,,,R_24NSu2fhZSVYdgx,001,2025-09-18_06h42.51.564,continuous_performance_test,2024.2.4,Win32,144.092219,e826f274-637a-447c-a0ab-5e52d13cfa87,4,576.875,578.875,space,1,0,16,16,9,1,J,space,0.389,,,,,,,,,,,
,,,,,R_24NSu2fhZSVYdgx,001,2025-09-18_06h42.51.564,continuous_performance_test,2024.2.4,Win32,144.092219,e826f274-637a-447c-a0ab-5e52d13cfa87,4,578.876,580.625,space,1,0,17,17,20,1,U,space,0.342,,,,,,,,,,,
,,,,,R_24NSu2fhZSVYdgx,001,2025-09-18_06h42.51.564,continuous_performance_test,2024.2.4,Win32,144.092219,e826f274-637a-447c-a0ab-5e52d13cfa87,4,580.626,582.472,space,1,0,18,18,14,1,O,space,0.412,,,,,,,,,,,
,,,,,R_24NSu2fhZSVYdgx,001,2025-09-18_06h42.51.564,continuous_performance_test,2024.2.4,Win32,144.092219,e826f274-637a-447c-a0ab-5e52d13cfa87,4,582.474,584.02,space,1,0,19,19,22,1,W,space,0.371,,,,,,,,,,,
,,,,,R_24NSu2fhZSVYdgx,001,2025-09-18_06h42.51.564,continuous_performance_test,2024.2.4,Win32,144.092219,e826f274-637a-447c-a0ab-5e52d13cfa87,4,584.021,585.722,space,1,0,20,20,6,1,G,space,0.342,,,,,,,,,,,
,,,,,R_24NSu2fhZSVYdgx,001,2025-09-18_06h42.51.564,continuous_performance_test,2024.2.4,Win32,144.092219,e826f274-637a-447c-a0ab-5e52d13cfa87,4,585.723,587.271,space,1,0,21,21,8,1,I,space,0.354,,,,,,,,,,,
,,,,,R_24NSu2fhZSVYdgx,001,2025-09-18_06h42.51.564,continuous_performance_test,2024.2.4,Win32,144.092219,e826f274-637a-447c-a0ab-5e52d13cfa87,4,587.272,588.917,,1,0,22,22,27,1,X,,,,,,,,,,,,,
,,,,,R_24NSu2fhZSVYdgx,001,2025-09-18_06h42.51.564,continuous_performance_test,2024.2.4,Win32,144.092219,e826f274-637a-447c-a0ab-5e52d13cfa87,4,588.918,590.764,space,1,0,23,23,3,1,D,space,0.348,,,,,,,,,,,
,,,,,R_24NSu2fhZSVYdgx,001,2025-09-18_06h42.51.564,continuous_performance_test,2024.2.4,Win32,144.092219,e826f274-637a-447c-a0ab-5e52d13cfa87,4,590.765,592.514,space,1,0,24,24,18,1,S,space,0.389,,,,,,,,,,,
,,,,,R_24NSu2fhZSVYdgx,001,2025-09-18_06h42.51.564,continuous_performance_test,2024.2.4,Win32,144.092219,e826f274-637a-447c-a0ab-5e52d13cfa87,4,592.514,594.16,space,0,0,25,25,26,1,X,,0.411,,,,,,,,,,,
,,,,,R_24NSu2fhZSVYdgx,001,2025-09-18_06h42.51.564,continuous_performance_test,2024.2.4,Win32,144.092219,e826f274-637a-447c-a0ab-5e52d13cfa87,4,594.16,596.16,space,1,0,26,26,2,1,C,space,0.423,,,,,,,,,,,
,,,,,R_24NSu2fhZSVYdgx,001,2025-09-18_06h42.51.564,continuous_performance_test,2024.2.4,Win32,144.092219,e826f274-637a-447c-a0ab-5e52d13cfa87,4,596.161,597.958,space,1,0,27,27,19,1,T,space,0.403,,,,,,,,,,,
,,,,,R_24NSu2fhZSVYdgx,001,2025-09-18_06h42.51.564,continuous_performance_test,2024.2.4,Win32,144.092219,e826f274-637a-447c-a0ab-5e52d13cfa87,4,597.959,599.805,space,1,0,28,28,13,1,N,space,0.889,,,,,,,,,,,
,,,,,R_24NSu2fhZSVYdgx,001,2025-09-18_06h42.51.564,continuous_performance_test,2024.2.4,Win32,144.092219,e826f274-637a-447c-a0ab-5e52d13cfa87,4,599.806,601.653,space,0,0,29,29,29,1,X,,0.412,,,,,,,,,,,
,,,,,R_24NSu2fhZSVYdgx,001,2025-09-18_06h42.51.564,continuous_performance_test,2024.2.4,Win32,144.092219,e826f274-637a-447c-a0ab-5e52d13cfa87,4,,,,,,,,,,,,,,601.653,601.655,,,,601.655,625.16,space,23.48,
