Instructions.started,Instructions.stopped,key_resp.keys,key_resp.rt,key_resp.duration,participant,session,date,expName,psychopyVersion,OS,frameRate,realeye-tester-id,realeye-tester-quality_grade,Trial_noX.started,Trial_noX.stopped,response.keys,response.corr,trials_noX.thisRepN,trials_noX.thisTrialN,trials_noX.thisN,trials_noX.thisIndex,trials_noX.ran,letter,corrAns,response.rt,response.duration,BlockBreak.started,BlockBreak.stopped,key_instruct.keys,End_NoX.started,End_NoX.stopped,key_resp_end_noX.keys,key_resp_end_noX.rt,key_resp_end_noX.duration
0.000300001,9.976,space,9.938,,R_2a8lCnXgf5mY0Uw,001,2025-09-04_20h32.09.148,continuous_performance_test,2024.2.4,Win32,59.88023952,15f43cd9-afe9-43ce-b48f-bae83f5ab33a,4,,,,,,,,,,,,,,,,,,,,,
,,,,,R_2a8lCnXgf5mY0Uw,001,2025-09-04_20h32.09.148,continuous_performance_test,2024.2.4,Win32,59.88023952,15f43cd9-afe9-43ce-b48f-bae83f5ab33a,4,10.0014,11.593,,1,0,0,0,25,1,X,,,,,,,,,,,
,,,,,R_2a8lCnXgf5mY0Uw,001,2025-09-04_20h32.09.148,continuous_performance_test,2024.2.4,Win32,59.88023952,15f43cd9-afe9-43ce-b48f-bae83f5ab33a,4,11.5961,13.1422,space,1,0,1,1,24,1,Z,space,0.5001,,,,,,,,,
,,,,,R_2a8lCnXgf5mY0Uw,001,2025-09-04_20h32.09.148,continuous_performance_test,2024.2.4,Win32,59.88023952,15f43cd9-afe9-43ce-b48f-bae83f5ab33a,4,13.1439,14.9928,space,1,0,2,2,8,1,I,space,0.537700001,,,,,,,,,
,,,,,R_2a8lCnXgf5mY0Uw,001,2025-09-04_20h32.09.148,continuous_performance_test,2024.2.4,Win32,59.88023952,15f43cd9-afe9-43ce-b48f-bae83f5ab33a,4,14.9947,16.6421,space,1,0,3,3,16,1,Q,space,0.460599998,,,,,,,,,
,,,,,R_2a8lCnXgf5mY0Uw,001,2025-09-04_20h32.09.148,continuous_performance_test,2024.2.4,Win32,59.88023952,15f43cd9-afe9-43ce-b48f-bae83f5ab33a,4,16.6446,18.593,space,1,0,4,4,3,1,D,space,0.3941,,,,,,,,,
,,,,,R_2a8lCnXgf5mY0Uw,001,2025-09-04_20h32.09.148,continuous_performance_test,2024.2.4,Win32,59.88023952,15f43cd9-afe9-43ce-b48f-bae83f5ab33a,4,18.5951,20.2426,,1,0,5,5,28,1,X,,,,,,,,,,,
,,,,,R_2a8lCnXgf5mY0Uw,001,2025-09-04_20h32.09.148,continuous_performance_test,2024.2.4,Win32,59.88023952,15f43cd9-afe9-43ce-b48f-bae83f5ab33a,4,20.2455,21.993,space,1,0,6,6,6,1,G,space,0.340200001,,,,,,,,,
,,,,,R_2a8lCnXgf5mY0Uw,001,2025-09-04_20h32.09.148,continuous_performance_test,2024.2.4,Win32,59.88023952,15f43cd9-afe9-43ce-b48f-bae83f5ab33a,4,21.995,23.5426,space,1,0,7,7,12,1,M,space,0.3946,,,,,,,,,
,,,,,R_2a8lCnXgf5mY0Uw,001,2025-09-04_20h32.09.148,continuous_performance_test,2024.2.4,Win32,59.88023952,15f43cd9-afe9-43ce-b48f-bae83f5ab33a,4,23.5456,25.392,space,1,0,8,8,21,1,V,space,0.7199,,,,,,,,,
,,,,,R_2a8lCnXgf5mY0Uw,001,2025-09-04_20h32.09.148,continuous_performance_test,2024.2.4,Win32,59.88023952,15f43cd9-afe9-43ce-b48f-bae83f5ab33a,4,25.3939,27.1923,space,1,0,9,9,13,1,N,space,0.5229,,,,,,,,,
,,,,,R_2a8lCnXgf5mY0Uw,001,2025-09-04_20h32.09.148,continuous_performance_test,2024.2.4,Win32,59.88023952,15f43cd9-afe9-43ce-b48f-bae83f5ab33a,4,27.1941,29.0921,space,1,0,10,10,11,1,L,space,0.35,,,,,,,,,
,,,,,R_2a8lCnXgf5mY0Uw,001,2025-09-04_20h32.09.148,continuous_performance_test,2024.2.4,Win32,59.88023952,15f43cd9-afe9-43ce-b48f-bae83f5ab33a,4,29.0943,31.0422,space,1,0,11,11,14,1,O,space,0.411700001,,,,,,,,,
,,,,,R_2a8lCnXgf5mY0Uw,001,2025-09-04_20h32.09.148,continuous_performance_test,2024.2.4,Win32,59.88023952,15f43cd9-afe9-43ce-b48f-bae83f5ab33a,4,31.0441,32.8922,space,1,0,12,12,20,1,U,space,0.419200001,,,,,,,,,
,,,,,R_2a8lCnXgf5mY0Uw,001,2025-09-04_20h32.09.148,continuous_performance_test,2024.2.4,Win32,59.88023952,15f43cd9-afe9-43ce-b48f-bae83f5ab33a,4,32.8938,34.692,space,1,0,13,13,10,1,K,space,0.3675,,,,,,,,,
,,,,,R_2a8lCnXgf5mY0Uw,001,2025-09-04_20h32.09.148,continuous_performance_test,2024.2.4,Win32,59.88023952,15f43cd9-afe9-43ce-b48f-bae83f5ab33a,4,34.6932,36.5423,space,1,0,14,14,5,1,F,space,0.413799999,,,,,,,,,
,,,,,R_2a8lCnXgf5mY0Uw,001,2025-09-04_20h32.09.148,continuous_performance_test,2024.2.4,Win32,59.88023952,15f43cd9-afe9-43ce-b48f-bae83f5ab33a,4,36.5442,38.3423,space,1,0,15,15,19,1,T,space,0.436,,,,,,,,,
,,,,,R_2a8lCnXgf5mY0Uw,001,2025-09-04_20h32.09.148,continuous_performance_test,2024.2.4,Win32,59.88023952,15f43cd9-afe9-43ce-b48f-bae83f5ab33a,4,38.3439,40.1415,space,1,0,16,16,23,1,Y,space,0.417300001,,,,,,,,,
,,,,,R_2a8lCnXgf5mY0Uw,001,2025-09-04_20h32.09.148,continuous_performance_test,2024.2.4,Win32,59.88023952,15f43cd9-afe9-43ce-b48f-bae83f5ab33a,4,40.1427,41.9427,,1,0,17,17,26,1,X,,,,,,,,,,,
,,,,,R_2a8lCnXgf5mY0Uw,001,2025-09-04_20h32.09.148,continuous_performance_test,2024.2.4,Win32,59.88023952,15f43cd9-afe9-43ce-b48f-bae83f5ab33a,4,41.9447,43.5926,space,1,0,18,18,15,1,P,space,0.386199999,,,,,,,,,
,,,,,R_2a8lCnXgf5mY0Uw,001,2025-09-04_20h32.09.148,continuous_performance_test,2024.2.4,Win32,59.88023952,15f43cd9-afe9-43ce-b48f-bae83f5ab33a,4,43.5946,45.3924,space,1,0,19,19,9,1,J,space,0.3836,,,,,,,,,
,,,,,R_2a8lCnXgf5mY0Uw,001,2025-09-04_20h32.09.148,continuous_performance_test,2024.2.4,Win32,59.88023952,15f43cd9-afe9-43ce-b48f-bae83f5ab33a,4,45.3942,47.3927,,1,0,20,20,27,1,X,,,,,,,,,,,
,,,,,R_2a8lCnXgf5mY0Uw,001,2025-09-04_20h32.09.148,continuous_performance_test,2024.2.4,Win32,59.88023952,15f43cd9-afe9-43ce-b48f-bae83f5ab33a,4,47.3949,48.9922,space,1,0,21,21,0,1,A,space,0.339,,,,,,,,,
,,,,,R_2a8lCnXgf5mY0Uw,001,2025-09-04_20h32.09.148,continuous_performance_test,2024.2.4,Win32,59.88023952,15f43cd9-afe9-43ce-b48f-bae83f5ab33a,4,48.9937,50.6921,space,1,0,22,22,18,1,S,space,0.366900002,,,,,,,,,
,,,,,R_2a8lCnXgf5mY0Uw,001,2025-09-04_20h32.09.148,continuous_performance_test,2024.2.4,Win32,59.88023952,15f43cd9-afe9-43ce-b48f-bae83f5ab33a,4,50.6937,52.392,space,1,0,23,23,1,1,B,space,0.3395,,,,,,,,,
,,,,,R_2a8lCnXgf5mY0Uw,001,2025-09-04_20h32.09.148,continuous_performance_test,2024.2.4,Win32,59.88023952,15f43cd9-afe9-43ce-b48f-bae83f5ab33a,4,52.394,54.2423,space,1,0,24,24,4,1,E,space,0.3699,,,,,,,,,
,,,,,R_2a8lCnXgf5mY0Uw,001,2025-09-04_20h32.09.148,continuous_performance_test,2024.2.4,Win32,59.88023952,15f43cd9-afe9-43ce-b48f-bae83f5ab33a,4,54.2436,56.0931,space,1,0,25,25,2,1,C,space,0.3355,,,,,,,,,
,,,,,R_2a8lCnXgf5mY0Uw,001,2025-09-04_20h32.09.148,continuous_performance_test,2024.2.4,Win32,59.88023952,15f43cd9-afe9-43ce-b48f-bae83f5ab33a,4,56.0942,57.6426,space,1,0,26,26,7,1,H,space,0.4396,,,,,,,,,
,,,,,R_2a8lCnXgf5mY0Uw,001,2025-09-04_20h32.09.148,continuous_performance_test,2024.2.4,Win32,59.88023952,15f43cd9-afe9-43ce-b48f-bae83f5ab33a,4,57.6447,59.4924,space,1,0,27,27,17,1,R,space,0.318400002,,,,,,,,,
,,,,,R_2a8lCnXgf5mY0Uw,001,2025-09-04_20h32.09.148,continuous_performance_test,2024.2.4,Win32,59.88023952,15f43cd9-afe9-43ce-b48f-bae83f5ab33a,4,59.4941,61.4425,,1,0,28,28,29,1,X,,,,,,,,,,,
,,,,,R_2a8lCnXgf5mY0Uw,001,2025-09-04_20h32.09.148,continuous_performance_test,2024.2.4,Win32,59.88023952,15f43cd9-afe9-43ce-b48f-bae83f5ab33a,4,61.4451,63.0424,space,1,0,29,29,22,1,W,space,0.738200001,,,,,,,,,
,,,,,R_2a8lCnXgf5mY0Uw,001,2025-09-04_20h32.09.148,continuous_performance_test,2024.2.4,Win32,59.88023952,15f43cd9-afe9-43ce-b48f-bae83f5ab33a,4,78.0577,80.059,space,1,0,0,0,3,1,D,space,0.9351,,63.0434,78.043,,,,,,
,,,,,R_2a8lCnXgf5mY0Uw,001,2025-09-04_20h32.09.148,continuous_performance_test,2024.2.4,Win32,59.88023952,15f43cd9-afe9-43ce-b48f-bae83f5ab33a,4,80.0609,81.909,space,0,0,1,1,26,1,X,,0.576200001,,,,,,,,,
,,,,,R_2a8lCnXgf5mY0Uw,001,2025-09-04_20h32.09.148,continuous_performance_test,2024.2.4,Win32,59.88023952,15f43cd9-afe9-43ce-b48f-bae83f5ab33a,4,81.9106,83.909,space,1,0,2,2,11,1,L,space,0.4055,,,,,,,,,
,,,,,R_2a8lCnXgf5mY0Uw,001,2025-09-04_20h32.09.148,continuous_performance_test,2024.2.4,Win32,59.88023952,15f43cd9-afe9-43ce-b48f-bae83f5ab33a,4,83.911,85.7089,space,1,0,3,3,16,1,Q,space,0.468,,,,,,,,,
,,,,,R_2a8lCnXgf5mY0Uw,001,2025-09-04_20h32.09.148,continuous_performance_test,2024.2.4,Win32,59.88023952,15f43cd9-afe9-43ce-b48f-bae83f5ab33a,4,85.7105,87.4589,space,1,0,4,4,20,1,U,space,0.323199999,,,,,,,,,
,,,,,R_2a8lCnXgf5mY0Uw,001,2025-09-04_20h32.09.148,continuous_performance_test,2024.2.4,Win32,59.88023952,15f43cd9-afe9-43ce-b48f-bae83f5ab33a,4,87.4598,89.4588,space,1,0,5,5,14,1,O,space,0.3731,,,,,,,,,
,,,,,R_2a8lCnXgf5mY0Uw,001,2025-09-04_20h32.09.148,continuous_performance_test,2024.2.4,Win32,59.88023952,15f43cd9-afe9-43ce-b48f-bae83f5ab33a,4,89.4604,91.4588,,1,0,6,6,25,1,X,,,,,,,,,,,
,,,,,R_2a8lCnXgf5mY0Uw,001,2025-09-04_20h32.09.148,continuous_performance_test,2024.2.4,Win32,59.88023952,15f43cd9-afe9-43ce-b48f-bae83f5ab33a,4,91.4602,93.4588,space,1,0,7,7,18,1,S,space,0.47,,,,,,,,,
,,,,,R_2a8lCnXgf5mY0Uw,001,2025-09-04_20h32.09.148,continuous_performance_test,2024.2.4,Win32,59.88023952,15f43cd9-afe9-43ce-b48f-bae83f5ab33a,4,93.4596,95.1088,space,1,0,8,8,12,1,M,space,0.770699999,,,,,,,,,
,,,,,R_2a8lCnXgf5mY0Uw,001,2025-09-04_20h32.09.148,continuous_performance_test,2024.2.4,Win32,59.88023952,15f43cd9-afe9-43ce-b48f-bae83f5ab33a,4,95.1104,97.1089,space,1,0,9,9,24,1,Z,space,0.671400002,,,,,,,,,
,,,,,R_2a8lCnXgf5mY0Uw,001,2025-09-04_20h32.09.148,continuous_performance_test,2024.2.4,Win32,59.88023952,15f43cd9-afe9-43ce-b48f-bae83f5ab33a,4,97.1104,98.9095,space,1,0,10,10,9,1,J,space,0.496700001,,,,,,,,,
,,,,,R_2a8lCnXgf5mY0Uw,001,2025-09-04_20h32.09.148,continuous_performance_test,2024.2.4,Win32,59.88023952,15f43cd9-afe9-43ce-b48f-bae83f5ab33a,4,98.9107,100.8093,space,1,0,11,11,15,1,P,space,0.4681,,,,,,,,,
,,,,,R_2a8lCnXgf5mY0Uw,001,2025-09-04_20h32.09.148,continuous_performance_test,2024.2.4,Win32,59.88023952,15f43cd9-afe9-43ce-b48f-bae83f5ab33a,4,100.8102,102.5088,space,1,0,12,12,13,1,N,space,0.4499,,,,,,,,,
,,,,,R_2a8lCnXgf5mY0Uw,001,2025-09-04_20h32.09.148,continuous_performance_test,2024.2.4,Win32,59.88023952,15f43cd9-afe9-43ce-b48f-bae83f5ab33a,4,102.5096,104.1596,space,1,0,13,13,4,1,E,space,0.4305,,,,,,,,,
,,,,,R_2a8lCnXgf5mY0Uw,001,2025-09-04_20h32.09.148,continuous_performance_test,2024.2.4,Win32,59.88023952,15f43cd9-afe9-43ce-b48f-bae83f5ab33a,4,104.161,105.9086,space,0,0,14,14,28,1,X,,0.3821,,,,,,,,,
,,,,,R_2a8lCnXgf5mY0Uw,001,2025-09-04_20h32.09.148,continuous_performance_test,2024.2.4,Win32,59.88023952,15f43cd9-afe9-43ce-b48f-bae83f5ab33a,4,105.9094,107.7091,space,1,0,15,15,7,1,H,space,0.6364,,,,,,,,,
,,,,,R_2a8lCnXgf5mY0Uw,001,2025-09-04_20h32.09.148,continuous_performance_test,2024.2.4,Win32,59.88023952,15f43cd9-afe9-43ce-b48f-bae83f5ab33a,4,107.7108,109.309,space,1,0,16,16,23,1,Y,space,0.550300001,,,,,,,,,
,,,,,R_2a8lCnXgf5mY0Uw,001,2025-09-04_20h32.09.148,continuous_performance_test,2024.2.4,Win32,59.88023952,15f43cd9-afe9-43ce-b48f-bae83f5ab33a,4,109.3105,111.1583,space,1,0,17,17,2,1,C,space,0.380699999,,,,,,,,,
,,,,,R_2a8lCnXgf5mY0Uw,001,2025-09-04_20h32.09.148,continuous_performance_test,2024.2.4,Win32,59.88023952,15f43cd9-afe9-43ce-b48f-bae83f5ab33a,4,111.1593,113.1588,,1,0,18,18,27,1,X,,,,,,,,,,,
,,,,,R_2a8lCnXgf5mY0Uw,001,2025-09-04_20h32.09.148,continuous_performance_test,2024.2.4,Win32,59.88023952,15f43cd9-afe9-43ce-b48f-bae83f5ab33a,4,113.1595,115.0093,space,1,0,19,19,8,1,I,space,0.365299999,,,,,,,,,
,,,,,R_2a8lCnXgf5mY0Uw,001,2025-09-04_20h32.09.148,continuous_performance_test,2024.2.4,Win32,59.88023952,15f43cd9-afe9-43ce-b48f-bae83f5ab33a,4,115.011,116.8586,space,1,0,20,20,17,1,R,space,0.367199999,,,,,,,,,
,,,,,R_2a8lCnXgf5mY0Uw,001,2025-09-04_20h32.09.148,continuous_performance_test,2024.2.4,Win32,59.88023952,15f43cd9-afe9-43ce-b48f-bae83f5ab33a,4,116.8595,118.8085,space,1,0,21,21,19,1,T,space,0.569299999,,,,,,,,,
,,,,,R_2a8lCnXgf5mY0Uw,001,2025-09-04_20h32.09.148,continuous_performance_test,2024.2.4,Win32,59.88023952,15f43cd9-afe9-43ce-b48f-bae83f5ab33a,4,118.8096,120.5586,space,1,0,22,22,10,1,K,space,0.6195,,,,,,,,,
,,,,,R_2a8lCnXgf5mY0Uw,001,2025-09-04_20h32.09.148,continuous_performance_test,2024.2.4,Win32,59.88023952,15f43cd9-afe9-43ce-b48f-bae83f5ab33a,4,120.5596,122.3088,,1,0,23,23,29,1,X,,,,,,,,,,,
,,,,,R_2a8lCnXgf5mY0Uw,001,2025-09-04_20h32.09.148,continuous_performance_test,2024.2.4,Win32,59.88023952,15f43cd9-afe9-43ce-b48f-bae83f5ab33a,4,122.3101,124.1086,space,1,0,24,24,22,1,W,space,0.283400002,,,,,,,,,
,,,,,R_2a8lCnXgf5mY0Uw,001,2025-09-04_20h32.09.148,continuous_performance_test,2024.2.4,Win32,59.88023952,15f43cd9-afe9-43ce-b48f-bae83f5ab33a,4,124.1097,125.8088,space,1,0,25,25,5,1,F,space,0.416599998,,,,,,,,,
,,,,,R_2a8lCnXgf5mY0Uw,001,2025-09-04_20h32.09.148,continuous_performance_test,2024.2.4,Win32,59.88023952,15f43cd9-afe9-43ce-b48f-bae83f5ab33a,4,125.8098,127.8088,space,1,0,26,26,0,1,A,space,0.468799999,,,,,,,,,
,,,,,R_2a8lCnXgf5mY0Uw,001,2025-09-04_20h32.09.148,continuous_performance_test,2024.2.4,Win32,59.88023952,15f43cd9-afe9-43ce-b48f-bae83f5ab33a,4,127.8103,129.359,space,1,0,27,27,21,1,V,space,0.4639,,,,,,,,,
,,,,,R_2a8lCnXgf5mY0Uw,001,2025-09-04_20h32.09.148,continuous_performance_test,2024.2.4,Win32,59.88023952,15f43cd9-afe9-43ce-b48f-bae83f5ab33a,4,129.3599,131.209,space,1,0,28,28,1,1,B,space,0.364799999,,,,,,,,,
,,,,,R_2a8lCnXgf5mY0Uw,001,2025-09-04_20h32.09.148,continuous_performance_test,2024.2.4,Win32,59.88023952,15f43cd9-afe9-43ce-b48f-bae83f5ab33a,4,131.2103,132.8589,space,1,0,29,29,6,1,G,space,0.397799999,,,,,,,,,
,,,,,R_2a8lCnXgf5mY0Uw,001,2025-09-04_20h32.09.148,continuous_performance_test,2024.2.4,Win32,59.88023952,15f43cd9-afe9-43ce-b48f-bae83f5ab33a,4,147.8579,149.5092,space,1,0,0,0,19,1,T,space,0.5905,,132.8606,147.8474,,,,,,
,,,,,R_2a8lCnXgf5mY0Uw,001,2025-09-04_20h32.09.148,continuous_performance_test,2024.2.4,Win32,59.88023952,15f43cd9-afe9-43ce-b48f-bae83f5ab33a,4,149.5106,151.159,space,1,0,1,1,3,1,D,space,0.585700001,,,,,,,,,
,,,,,R_2a8lCnXgf5mY0Uw,001,2025-09-04_20h32.09.148,continuous_performance_test,2024.2.4,Win32,59.88023952,15f43cd9-afe9-43ce-b48f-bae83f5ab33a,4,151.1606,152.9592,space,1,0,2,2,6,1,G,space,0.452,,,,,,,,,
,,,,,R_2a8lCnXgf5mY0Uw,001,2025-09-04_20h32.09.148,continuous_performance_test,2024.2.4,Win32,59.88023952,15f43cd9-afe9-43ce-b48f-bae83f5ab33a,4,152.9606,154.5582,space,1,0,3,3,2,1,C,space,0.425799999,,,,,,,,,
,,,,,R_2a8lCnXgf5mY0Uw,001,2025-09-04_20h32.09.148,continuous_performance_test,2024.2.4,Win32,59.88023952,15f43cd9-afe9-43ce-b48f-bae83f5ab33a,4,154.5597,156.2591,space,0,0,4,4,25,1,X,,0.324200001,,,,,,,,,
,,,,,R_2a8lCnXgf5mY0Uw,001,2025-09-04_20h32.09.148,continuous_performance_test,2024.2.4,Win32,59.88023952,15f43cd9-afe9-43ce-b48f-bae83f5ab33a,4,156.2608,158.0092,space,1,0,5,5,14,1,O,space,0.2924,,,,,,,,,
,,,,,R_2a8lCnXgf5mY0Uw,001,2025-09-04_20h32.09.148,continuous_performance_test,2024.2.4,Win32,59.88023952,15f43cd9-afe9-43ce-b48f-bae83f5ab33a,4,158.0105,159.8092,space,1,0,6,6,11,1,L,space,0.443,,,,,,,,,
,,,,,R_2a8lCnXgf5mY0Uw,001,2025-09-04_20h32.09.148,continuous_performance_test,2024.2.4,Win32,59.88023952,15f43cd9-afe9-43ce-b48f-bae83f5ab33a,4,159.8106,161.4092,space,1,0,7,7,10,1,K,space,0.440800001,,,,,,,,,
,,,,,R_2a8lCnXgf5mY0Uw,001,2025-09-04_20h32.09.148,continuous_performance_test,2024.2.4,Win32,59.88023952,15f43cd9-afe9-43ce-b48f-bae83f5ab33a,4,161.4106,163.059,space,1,0,8,8,17,1,R,space,0.4035,,,,,,,,,
,,,,,R_2a8lCnXgf5mY0Uw,001,2025-09-04_20h32.09.148,continuous_performance_test,2024.2.4,Win32,59.88023952,15f43cd9-afe9-43ce-b48f-bae83f5ab33a,4,163.0606,164.6586,,1,0,9,9,29,1,X,,,,,,,,,,,
,,,,,R_2a8lCnXgf5mY0Uw,001,2025-09-04_20h32.09.148,continuous_performance_test,2024.2.4,Win32,59.88023952,15f43cd9-afe9-43ce-b48f-bae83f5ab33a,4,164.6597,166.4137,space,1,0,10,10,20,1,U,space,0.328700001,,,,,,,,,
,,,,,R_2a8lCnXgf5mY0Uw,001,2025-09-04_20h32.09.148,continuous_performance_test,2024.2.4,Win32,59.88023952,15f43cd9-afe9-43ce-b48f-bae83f5ab33a,4,166.4148,168.2092,space,1,0,11,11,22,1,W,space,0.5834,,,,,,,,,
,,,,,R_2a8lCnXgf5mY0Uw,001,2025-09-04_20h32.09.148,continuous_performance_test,2024.2.4,Win32,59.88023952,15f43cd9-afe9-43ce-b48f-bae83f5ab33a,4,168.2106,170.1093,space,1,0,12,12,7,1,H,space,0.401599998,,,,,,,,,
,,,,,R_2a8lCnXgf5mY0Uw,001,2025-09-04_20h32.09.148,continuous_performance_test,2024.2.4,Win32,59.88023952,15f43cd9-afe9-43ce-b48f-bae83f5ab33a,4,170.1108,171.6591,space,1,0,13,13,16,1,Q,space,0.3911,,,,,,,,,
,,,,,R_2a8lCnXgf5mY0Uw,001,2025-09-04_20h32.09.148,continuous_performance_test,2024.2.4,Win32,59.88023952,15f43cd9-afe9-43ce-b48f-bae83f5ab33a,4,171.6602,173.2587,space,1,0,14,14,12,1,M,space,0.469,,,,,,,,,
,,,,,R_2a8lCnXgf5mY0Uw,001,2025-09-04_20h32.09.148,continuous_performance_test,2024.2.4,Win32,59.88023952,15f43cd9-afe9-43ce-b48f-bae83f5ab33a,4,173.2598,175.1588,space,1,0,15,15,4,1,E,space,0.3231,,,,,,,,,
,,,,,R_2a8lCnXgf5mY0Uw,001,2025-09-04_20h32.09.148,continuous_performance_test,2024.2.4,Win32,59.88023952,15f43cd9-afe9-43ce-b48f-bae83f5ab33a,4,175.16,176.8092,space,1,0,16,16,24,1,Z,space,0.44,,,,,,,,,
,,,,,R_2a8lCnXgf5mY0Uw,001,2025-09-04_20h32.09.148,continuous_performance_test,2024.2.4,Win32,59.88023952,15f43cd9-afe9-43ce-b48f-bae83f5ab33a,4,176.8101,178.609,space,1,0,17,17,1,1,B,space,0.435299999,,,,,,,,,
,,,,,R_2a8lCnXgf5mY0Uw,001,2025-09-04_20h32.09.148,continuous_performance_test,2024.2.4,Win32,59.88023952,15f43cd9-afe9-43ce-b48f-bae83f5ab33a,4,178.6105,180.3093,space,1,0,18,18,8,1,I,space,0.576700001,,,,,,,,,
,,,,,R_2a8lCnXgf5mY0Uw,001,2025-09-04_20h32.09.148,continuous_performance_test,2024.2.4,Win32,59.88023952,15f43cd9-afe9-43ce-b48f-bae83f5ab33a,4,180.3108,182.309,space,1,0,19,19,5,1,F,space,0.4246,,,,,,,,,
,,,,,R_2a8lCnXgf5mY0Uw,001,2025-09-04_20h32.09.148,continuous_performance_test,2024.2.4,Win32,59.88023952,15f43cd9-afe9-43ce-b48f-bae83f5ab33a,4,182.3105,184.2591,,1,0,20,20,28,1,X,,,,,,,,,,,
,,,,,R_2a8lCnXgf5mY0Uw,001,2025-09-04_20h32.09.148,continuous_performance_test,2024.2.4,Win32,59.88023952,15f43cd9-afe9-43ce-b48f-bae83f5ab33a,4,184.2602,186.0088,space,0,0,21,21,27,1,X,,0.264,,,,,,,,,
,,,,,R_2a8lCnXgf5mY0Uw,001,2025-09-04_20h32.09.148,continuous_performance_test,2024.2.4,Win32,59.88023952,15f43cd9-afe9-43ce-b48f-bae83f5ab33a,4,186.0107,187.9094,space,1,0,22,22,21,1,V,space,0.369299999,,,,,,,,,
,,,,,R_2a8lCnXgf5mY0Uw,001,2025-09-04_20h32.09.148,continuous_performance_test,2024.2.4,Win32,59.88023952,15f43cd9-afe9-43ce-b48f-bae83f5ab33a,4,187.9111,189.8093,space,1,0,23,23,13,1,N,space,0.502699999,,,,,,,,,
,,,,,R_2a8lCnXgf5mY0Uw,001,2025-09-04_20h32.09.148,continuous_performance_test,2024.2.4,Win32,59.88023952,15f43cd9-afe9-43ce-b48f-bae83f5ab33a,4,189.8102,191.5089,space,1,0,24,24,15,1,P,space,0.451699999,,,,,,,,,
,,,,,R_2a8lCnXgf5mY0Uw,001,2025-09-04_20h32.09.148,continuous_performance_test,2024.2.4,Win32,59.88023952,15f43cd9-afe9-43ce-b48f-bae83f5ab33a,4,191.5101,193.0591,space,1,0,25,25,18,1,S,space,0.4866,,,,,,,,,
,,,,,R_2a8lCnXgf5mY0Uw,001,2025-09-04_20h32.09.148,continuous_performance_test,2024.2.4,Win32,59.88023952,15f43cd9-afe9-43ce-b48f-bae83f5ab33a,4,193.0606,194.8589,space,1,0,26,26,0,1,A,space,0.3735,,,,,,,,,
,,,,,R_2a8lCnXgf5mY0Uw,001,2025-09-04_20h32.09.148,continuous_performance_test,2024.2.4,Win32,59.88023952,15f43cd9-afe9-43ce-b48f-bae83f5ab33a,4,194.8598,196.5591,,1,0,27,27,26,1,X,,,,,,,,,,,
,,,,,R_2a8lCnXgf5mY0Uw,001,2025-09-04_20h32.09.148,continuous_performance_test,2024.2.4,Win32,59.88023952,15f43cd9-afe9-43ce-b48f-bae83f5ab33a,4,196.561,198.5093,space,1,0,28,28,9,1,J,space,0.3686,,,,,,,,,
,,,,,R_2a8lCnXgf5mY0Uw,001,2025-09-04_20h32.09.148,continuous_performance_test,2024.2.4,Win32,59.88023952,15f43cd9-afe9-43ce-b48f-bae83f5ab33a,4,198.5109,200.209,space,1,0,29,29,23,1,Y,space,0.392800001,,,,,,,,,
,,,,,R_2a8lCnXgf5mY0Uw,001,2025-09-04_20h32.09.148,continuous_performance_test,2024.2.4,Win32,59.88023952,15f43cd9-afe9-43ce-b48f-bae83f5ab33a,4,215.2192,217.1094,,1,0,0,0,28,1,X,,,,200.2107,215.209,,,,,,
,,,,,R_2a8lCnXgf5mY0Uw,001,2025-09-04_20h32.09.148,continuous_performance_test,2024.2.4,Win32,59.88023952,15f43cd9-afe9-43ce-b48f-bae83f5ab33a,4,217.1105,219.0588,space,1,0,1,1,1,1,B,space,0.492299999,,,,,,,,,
,,,,,R_2a8lCnXgf5mY0Uw,001,2025-09-04_20h32.09.148,continuous_performance_test,2024.2.4,Win32,59.88023952,15f43cd9-afe9-43ce-b48f-bae83f5ab33a,4,219.0602,220.9085,space,1,0,2,2,17,1,R,space,0.371200001,,,,,,,,,
,,,,,R_2a8lCnXgf5mY0Uw,001,2025-09-04_20h32.09.148,continuous_performance_test,2024.2.4,Win32,59.88023952,15f43cd9-afe9-43ce-b48f-bae83f5ab33a,4,220.9102,222.6091,space,1,0,3,3,16,1,Q,space,0.3684,,,,,,,,,
,,,,,R_2a8lCnXgf5mY0Uw,001,2025-09-04_20h32.09.148,continuous_performance_test,2024.2.4,Win32,59.88023952,15f43cd9-afe9-43ce-b48f-bae83f5ab33a,4,222.6105,224.4092,space,1,0,4,4,5,1,F,space,0.4025,,,,,,,,,
,,,,,R_2a8lCnXgf5mY0Uw,001,2025-09-04_20h32.09.148,continuous_performance_test,2024.2.4,Win32,59.88023952,15f43cd9-afe9-43ce-b48f-bae83f5ab33a,4,224.4109,226.2097,space,1,0,5,5,21,1,V,space,0.357299999,,,,,,,,,
,,,,,R_2a8lCnXgf5mY0Uw,001,2025-09-04_20h32.09.148,continuous_performance_test,2024.2.4,Win32,59.88023952,15f43cd9-afe9-43ce-b48f-bae83f5ab33a,4,226.211,228.1092,space,1,0,6,6,6,1,G,space,0.340300001,,,,,,,,,
,,,,,R_2a8lCnXgf5mY0Uw,001,2025-09-04_20h32.09.148,continuous_performance_test,2024.2.4,Win32,59.88023952,15f43cd9-afe9-43ce-b48f-bae83f5ab33a,4,228.1108,229.909,space,1,0,7,7,15,1,P,space,0.4564,,,,,,,,,
,,,,,R_2a8lCnXgf5mY0Uw,001,2025-09-04_20h32.09.148,continuous_performance_test,2024.2.4,Win32,59.88023952,15f43cd9-afe9-43ce-b48f-bae83f5ab33a,4,229.911,231.4634,space,1,0,8,8,8,1,I,space,0.434,,,,,,,,,
,,,,,R_2a8lCnXgf5mY0Uw,001,2025-09-04_20h32.09.148,continuous_performance_test,2024.2.4,Win32,59.88023952,15f43cd9-afe9-43ce-b48f-bae83f5ab33a,4,231.464,233.3089,space,1,0,9,9,13,1,N,space,0.475299999,,,,,,,,,
,,,,,R_2a8lCnXgf5mY0Uw,001,2025-09-04_20h32.09.148,continuous_performance_test,2024.2.4,Win32,59.88023952,15f43cd9-afe9-43ce-b48f-bae83f5ab33a,4,233.3101,234.8584,space,1,0,10,10,10,1,K,space,0.562099998,,,,,,,,,
,,,,,R_2a8lCnXgf5mY0Uw,001,2025-09-04_20h32.09.148,continuous_performance_test,2024.2.4,Win32,59.88023952,15f43cd9-afe9-43ce-b48f-bae83f5ab33a,4,234.8599,236.4591,space,1,0,11,11,9,1,J,space,0.467700001,,,,,,,,,
,,,,,R_2a8lCnXgf5mY0Uw,001,2025-09-04_20h32.09.148,continuous_performance_test,2024.2.4,Win32,59.88023952,15f43cd9-afe9-43ce-b48f-bae83f5ab33a,4,236.4606,238.0091,space,1,0,12,12,23,1,Y,space,0.569199999,,,,,,,,,
,,,,,R_2a8lCnXgf5mY0Uw,001,2025-09-04_20h32.09.148,continuous_performance_test,2024.2.4,Win32,59.88023952,15f43cd9-afe9-43ce-b48f-bae83f5ab33a,4,238.0104,239.7592,,1,0,13,13,26,1,X,,,,,,,,,,,
,,,,,R_2a8lCnXgf5mY0Uw,001,2025-09-04_20h32.09.148,continuous_performance_test,2024.2.4,Win32,59.88023952,15f43cd9-afe9-43ce-b48f-bae83f5ab33a,4,239.7607,241.7137,space,1,0,14,14,12,1,M,space,0.3076,,,,,,,,,
,,,,,R_2a8lCnXgf5mY0Uw,001,2025-09-04_20h32.09.148,continuous_performance_test,2024.2.4,Win32,59.88023952,15f43cd9-afe9-43ce-b48f-bae83f5ab33a,4,241.7151,243.5591,space,1,0,15,15,24,1,Z,space,0.4004,,,,,,,,,
,,,,,R_2a8lCnXgf5mY0Uw,001,2025-09-04_20h32.09.148,continuous_performance_test,2024.2.4,Win32,59.88023952,15f43cd9-afe9-43ce-b48f-bae83f5ab33a,4,243.5605,245.1589,space,1,0,16,16,18,1,S,space,0.4865,,,,,,,,,
,,,,,R_2a8lCnXgf5mY0Uw,001,2025-09-04_20h32.09.148,continuous_performance_test,2024.2.4,Win32,59.88023952,15f43cd9-afe9-43ce-b48f-bae83f5ab33a,4,245.1599,247.1589,,1,0,17,17,29,1,X,,,,,,,,,,,
,,,,,R_2a8lCnXgf5mY0Uw,001,2025-09-04_20h32.09.148,continuous_performance_test,2024.2.4,Win32,59.88023952,15f43cd9-afe9-43ce-b48f-bae83f5ab33a,4,247.16,248.7592,space,1,0,18,18,2,1,C,space,0.417800001,,,,,,,,,
,,,,,R_2a8lCnXgf5mY0Uw,001,2025-09-04_20h32.09.148,continuous_performance_test,2024.2.4,Win32,59.88023952,15f43cd9-afe9-43ce-b48f-bae83f5ab33a,4,248.7607,250.4092,space,1,0,19,19,4,1,E,space,0.626900002,,,,,,,,,
,,,,,R_2a8lCnXgf5mY0Uw,001,2025-09-04_20h32.09.148,continuous_performance_test,2024.2.4,Win32,59.88023952,15f43cd9-afe9-43ce-b48f-bae83f5ab33a,4,250.4105,252.1589,,1,0,20,20,27,1,X,,,,,,,,,,,
,,,,,R_2a8lCnXgf5mY0Uw,001,2025-09-04_20h32.09.148,continuous_performance_test,2024.2.4,Win32,59.88023952,15f43cd9-afe9-43ce-b48f-bae83f5ab33a,4,252.1601,253.9599,space,1,0,21,21,20,1,U,space,0.338700001,,,,,,,,,
,,,,,R_2a8lCnXgf5mY0Uw,001,2025-09-04_20h32.09.148,continuous_performance_test,2024.2.4,Win32,59.88023952,15f43cd9-afe9-43ce-b48f-bae83f5ab33a,4,253.9614,255.659,space,1,0,22,22,11,1,L,space,0.484799999,,,,,,,,,
,,,,,R_2a8lCnXgf5mY0Uw,001,2025-09-04_20h32.09.148,continuous_performance_test,2024.2.4,Win32,59.88023952,15f43cd9-afe9-43ce-b48f-bae83f5ab33a,4,255.6601,257.2589,,1,0,23,23,25,1,X,,,,,,,,,,,
,,,,,R_2a8lCnXgf5mY0Uw,001,2025-09-04_20h32.09.148,continuous_performance_test,2024.2.4,Win32,59.88023952,15f43cd9-afe9-43ce-b48f-bae83f5ab33a,4,257.2606,258.909,space,1,0,24,24,14,1,O,space,0.3525,,,,,,,,,
,,,,,R_2a8lCnXgf5mY0Uw,001,2025-09-04_20h32.09.148,continuous_performance_test,2024.2.4,Win32,59.88023952,15f43cd9-afe9-43ce-b48f-bae83f5ab33a,4,258.9106,260.4588,space,1,0,25,25,0,1,A,space,0.487400002,,,,,,,,,
,,,,,R_2a8lCnXgf5mY0Uw,001,2025-09-04_20h32.09.148,continuous_performance_test,2024.2.4,Win32,59.88023952,15f43cd9-afe9-43ce-b48f-bae83f5ab33a,4,260.4602,262.2087,space,1,0,26,26,19,1,T,space,0.440300001,,,,,,,,,
,,,,,R_2a8lCnXgf5mY0Uw,001,2025-09-04_20h32.09.148,continuous_performance_test,2024.2.4,Win32,59.88023952,15f43cd9-afe9-43ce-b48f-bae83f5ab33a,4,262.21,263.8088,space,1,0,27,27,7,1,H,space,0.6065,,,,,,,,,
,,,,,R_2a8lCnXgf5mY0Uw,001,2025-09-04_20h32.09.148,continuous_performance_test,2024.2.4,Win32,59.88023952,15f43cd9-afe9-43ce-b48f-bae83f5ab33a,4,263.8101,265.5095,space,1,0,28,28,22,1,W,space,0.4896,,,,,,,,,
,,,,,R_2a8lCnXgf5mY0Uw,001,2025-09-04_20h32.09.148,continuous_performance_test,2024.2.4,Win32,59.88023952,15f43cd9-afe9-43ce-b48f-bae83f5ab33a,4,265.5109,267.4093,space,1,0,29,29,3,1,D,space,0.389200001,,,,,,,,,
,,,,,R_2a8lCnXgf5mY0Uw,001,2025-09-04_20h32.09.148,continuous_performance_test,2024.2.4,Win32,59.88023952,15f43cd9-afe9-43ce-b48f-bae83f5ab33a,4,282.4167,284.3596,space,1,0,0,0,17,1,R,space,0.656300001,,267.4108,282.4091,,,,,,
,,,,,R_2a8lCnXgf5mY0Uw,001,2025-09-04_20h32.09.148,continuous_performance_test,2024.2.4,Win32,59.88023952,15f43cd9-afe9-43ce-b48f-bae83f5ab33a,4,284.3611,286.1593,space,1,0,1,1,19,1,T,space,0.7184,,,,,,,,,
,,,,,R_2a8lCnXgf5mY0Uw,001,2025-09-04_20h32.09.148,continuous_performance_test,2024.2.4,Win32,59.88023952,15f43cd9-afe9-43ce-b48f-bae83f5ab33a,4,286.1605,288.059,space,1,0,2,2,12,1,M,space,0.671699999,,,,,,,,,
,,,,,R_2a8lCnXgf5mY0Uw,001,2025-09-04_20h32.09.148,continuous_performance_test,2024.2.4,Win32,59.88023952,15f43cd9-afe9-43ce-b48f-bae83f5ab33a,4,288.0597,289.6594,space,1,0,3,3,10,1,K,space,0.5006,,,,,,,,,
,,,,,R_2a8lCnXgf5mY0Uw,001,2025-09-04_20h32.09.148,continuous_performance_test,2024.2.4,Win32,59.88023952,15f43cd9-afe9-43ce-b48f-bae83f5ab33a,4,289.6609,291.5591,space,1,0,4,4,23,1,Y,space,0.384299999,,,,,,,,,
,,,,,R_2a8lCnXgf5mY0Uw,001,2025-09-04_20h32.09.148,continuous_performance_test,2024.2.4,Win32,59.88023952,15f43cd9-afe9-43ce-b48f-bae83f5ab33a,4,291.5607,293.5093,space,1,0,5,5,13,1,N,space,0.3371,,,,,,,,,
,,,,,R_2a8lCnXgf5mY0Uw,001,2025-09-04_20h32.09.148,continuous_performance_test,2024.2.4,Win32,59.88023952,15f43cd9-afe9-43ce-b48f-bae83f5ab33a,4,293.5109,295.2094,space,0,0,6,6,29,1,X,,0.384799999,,,,,,,,,
,,,,,R_2a8lCnXgf5mY0Uw,001,2025-09-04_20h32.09.148,continuous_performance_test,2024.2.4,Win32,59.88023952,15f43cd9-afe9-43ce-b48f-bae83f5ab33a,4,295.2103,296.8586,space,1,0,7,7,18,1,S,space,0.385,,,,,,,,,
,,,,,R_2a8lCnXgf5mY0Uw,001,2025-09-04_20h32.09.148,continuous_performance_test,2024.2.4,Win32,59.88023952,15f43cd9-afe9-43ce-b48f-bae83f5ab33a,4,296.8599,298.8087,space,1,0,8,8,8,1,I,space,0.685099998,,,,,,,,,
,,,,,R_2a8lCnXgf5mY0Uw,001,2025-09-04_20h32.09.148,continuous_performance_test,2024.2.4,Win32,59.88023952,15f43cd9-afe9-43ce-b48f-bae83f5ab33a,4,298.8101,300.3591,space,1,0,9,9,1,1,B,space,0.4684,,,,,,,,,
,,,,,R_2a8lCnXgf5mY0Uw,001,2025-09-04_20h32.09.148,continuous_performance_test,2024.2.4,Win32,59.88023952,15f43cd9-afe9-43ce-b48f-bae83f5ab33a,4,300.361,302.0591,space,1,0,10,10,0,1,A,space,0.510199999,,,,,,,,,
,,,,,R_2a8lCnXgf5mY0Uw,001,2025-09-04_20h32.09.148,continuous_performance_test,2024.2.4,Win32,59.88023952,15f43cd9-afe9-43ce-b48f-bae83f5ab33a,4,302.0605,303.6095,space,1,0,11,11,6,1,G,space,0.435900002,,,,,,,,,
,,,,,R_2a8lCnXgf5mY0Uw,001,2025-09-04_20h32.09.148,continuous_performance_test,2024.2.4,Win32,59.88023952,15f43cd9-afe9-43ce-b48f-bae83f5ab33a,4,303.6102,305.5085,space,1,0,12,12,15,1,P,space,0.3924,,,,,,,,,
,,,,,R_2a8lCnXgf5mY0Uw,001,2025-09-04_20h32.09.148,continuous_performance_test,2024.2.4,Win32,59.88023952,15f43cd9-afe9-43ce-b48f-bae83f5ab33a,4,305.5102,307.047,space,1,0,13,13,4,1,E,space,0.418299999,,,,,,,,,
,,,,,R_2a8lCnXgf5mY0Uw,001,2025-09-04_20h32.09.148,continuous_performance_test,2024.2.4,Win32,59.88023952,15f43cd9-afe9-43ce-b48f-bae83f5ab33a,4,307.0486,308.6924,space,1,0,14,14,3,1,D,space,0.353200001,,,,,,,,,
,,,,,R_2a8lCnXgf5mY0Uw,001,2025-09-04_20h32.09.148,continuous_performance_test,2024.2.4,Win32,59.88023952,15f43cd9-afe9-43ce-b48f-bae83f5ab33a,4,308.6939,310.6933,space,1,0,15,15,21,1,V,space,0.385299999,,,,,,,,,
,,,,,R_2a8lCnXgf5mY0Uw,001,2025-09-04_20h32.09.148,continuous_performance_test,2024.2.4,Win32,59.88023952,15f43cd9-afe9-43ce-b48f-bae83f5ab33a,4,310.6948,312.4427,space,1,0,16,16,16,1,Q,space,0.385,,,,,,,,,
,,,,,R_2a8lCnXgf5mY0Uw,001,2025-09-04_20h32.09.148,continuous_performance_test,2024.2.4,Win32,59.88023952,15f43cd9-afe9-43ce-b48f-bae83f5ab33a,4,312.444,314.2422,space,0,0,17,17,27,1,X,,0.317699999,,,,,,,,,
,,,,,R_2a8lCnXgf5mY0Uw,001,2025-09-04_20h32.09.148,continuous_performance_test,2024.2.4,Win32,59.88023952,15f43cd9-afe9-43ce-b48f-bae83f5ab33a,4,314.2434,316.0924,space,0,0,18,18,26,1,X,,0.350800001,,,,,,,,,
,,,,,R_2a8lCnXgf5mY0Uw,001,2025-09-04_20h32.09.148,continuous_performance_test,2024.2.4,Win32,59.88023952,15f43cd9-afe9-43ce-b48f-bae83f5ab33a,4,316.0939,317.993,space,1,0,19,19,2,1,C,space,0.3255,,,,,,,,,
,,,,,R_2a8lCnXgf5mY0Uw,001,2025-09-04_20h32.09.148,continuous_performance_test,2024.2.4,Win32,59.88023952,15f43cd9-afe9-43ce-b48f-bae83f5ab33a,4,317.9943,319.7426,space,1,0,20,20,11,1,L,space,0.417800001,,,,,,,,,
,,,,,R_2a8lCnXgf5mY0Uw,001,2025-09-04_20h32.09.148,continuous_performance_test,2024.2.4,Win32,59.88023952,15f43cd9-afe9-43ce-b48f-bae83f5ab33a,4,319.744,321.6927,space,1,0,21,21,14,1,O,space,0.3354,,,,,,,,,
,,,,,R_2a8lCnXgf5mY0Uw,001,2025-09-04_20h32.09.148,continuous_performance_test,2024.2.4,Win32,59.88023952,15f43cd9-afe9-43ce-b48f-bae83f5ab33a,4,321.6942,323.3422,space,1,0,22,22,22,1,W,space,0.306900002,,,,,,,,,
,,,,,R_2a8lCnXgf5mY0Uw,001,2025-09-04_20h32.09.148,continuous_performance_test,2024.2.4,Win32,59.88023952,15f43cd9-afe9-43ce-b48f-bae83f5ab33a,4,323.3433,325.143,,1,0,23,23,25,1,X,,,,,,,,,,,
,,,,,R_2a8lCnXgf5mY0Uw,001,2025-09-04_20h32.09.148,continuous_performance_test,2024.2.4,Win32,59.88023952,15f43cd9-afe9-43ce-b48f-bae83f5ab33a,4,325.1444,327.0426,space,1,0,24,24,5,1,F,space,0.3055,,,,,,,,,
,,,,,R_2a8lCnXgf5mY0Uw,001,2025-09-04_20h32.09.148,continuous_performance_test,2024.2.4,Win32,59.88023952,15f43cd9-afe9-43ce-b48f-bae83f5ab33a,4,327.0439,328.6923,space,1,0,25,25,24,1,Z,space,0.343199999,,,,,,,,,
,,,,,R_2a8lCnXgf5mY0Uw,001,2025-09-04_20h32.09.148,continuous_performance_test,2024.2.4,Win32,59.88023952,15f43cd9-afe9-43ce-b48f-bae83f5ab33a,4,328.6935,330.2928,space,1,0,26,26,20,1,U,space,0.4195,,,,,,,,,
,,,,,R_2a8lCnXgf5mY0Uw,001,2025-09-04_20h32.09.148,continuous_performance_test,2024.2.4,Win32,59.88023952,15f43cd9-afe9-43ce-b48f-bae83f5ab33a,4,330.2942,332.0427,space,1,0,27,27,7,1,H,space,0.477199999,,,,,,,,,
,,,,,R_2a8lCnXgf5mY0Uw,001,2025-09-04_20h32.09.148,continuous_performance_test,2024.2.4,Win32,59.88023952,15f43cd9-afe9-43ce-b48f-bae83f5ab33a,4,332.044,333.7428,,1,0,28,28,28,1,X,,,,,,,,,,,
,,,,,R_2a8lCnXgf5mY0Uw,001,2025-09-04_20h32.09.148,continuous_performance_test,2024.2.4,Win32,59.88023952,15f43cd9-afe9-43ce-b48f-bae83f5ab33a,4,333.7436,335.7425,space,1,0,29,29,9,1,J,space,0.3065,,,,,,,,,
,,,,,R_2a8lCnXgf5mY0Uw,001,2025-09-04_20h32.09.148,continuous_performance_test,2024.2.4,Win32,59.88023952,15f43cd9-afe9-43ce-b48f-bae83f5ab33a,4,350.7521,352.3923,space,1,0,0,0,10,1,K,space,0.421400002,,335.7446,350.7425,,,,,,
,,,,,R_2a8lCnXgf5mY0Uw,001,2025-09-04_20h32.09.148,continuous_performance_test,2024.2.4,Win32,59.88023952,15f43cd9-afe9-43ce-b48f-bae83f5ab33a,4,352.3935,354.1919,space,1,0,1,1,8,1,I,space,0.493300001,,,,,,,,,
,,,,,R_2a8lCnXgf5mY0Uw,001,2025-09-04_20h32.09.148,continuous_performance_test,2024.2.4,Win32,59.88023952,15f43cd9-afe9-43ce-b48f-bae83f5ab33a,4,354.1934,355.8417,space,1,0,2,2,4,1,E,space,0.450799999,,,,,,,,,
,,,,,R_2a8lCnXgf5mY0Uw,001,2025-09-04_20h32.09.148,continuous_performance_test,2024.2.4,Win32,59.88023952,15f43cd9-afe9-43ce-b48f-bae83f5ab33a,4,355.8432,357.792,space,1,0,3,3,9,1,J,space,0.411,,,,,,,,,
,,,,,R_2a8lCnXgf5mY0Uw,001,2025-09-04_20h32.09.148,continuous_performance_test,2024.2.4,Win32,59.88023952,15f43cd9-afe9-43ce-b48f-bae83f5ab33a,4,357.7936,359.4921,space,1,0,4,4,11,1,L,space,0.4355,,,,,,,,,
,,,,,R_2a8lCnXgf5mY0Uw,001,2025-09-04_20h32.09.148,continuous_performance_test,2024.2.4,Win32,59.88023952,15f43cd9-afe9-43ce-b48f-bae83f5ab33a,4,359.4935,361.3416,space,1,0,5,5,1,1,B,space,0.3505,,,,,,,,,
,,,,,R_2a8lCnXgf5mY0Uw,001,2025-09-04_20h32.09.148,continuous_performance_test,2024.2.4,Win32,59.88023952,15f43cd9-afe9-43ce-b48f-bae83f5ab33a,4,361.3429,363.1926,space,1,0,6,6,23,1,Y,space,0.3894,,,,,,,,,
,,,,,R_2a8lCnXgf5mY0Uw,001,2025-09-04_20h32.09.148,continuous_performance_test,2024.2.4,Win32,59.88023952,15f43cd9-afe9-43ce-b48f-bae83f5ab33a,4,363.194,364.9426,space,1,0,7,7,13,1,N,space,0.3754,,,,,,,,,
,,,,,R_2a8lCnXgf5mY0Uw,001,2025-09-04_20h32.09.148,continuous_performance_test,2024.2.4,Win32,59.88023952,15f43cd9-afe9-43ce-b48f-bae83f5ab33a,4,364.9436,366.5429,space,1,0,8,8,2,1,C,space,0.3604,,,,,,,,,
,,,,,R_2a8lCnXgf5mY0Uw,001,2025-09-04_20h32.09.148,continuous_performance_test,2024.2.4,Win32,59.88023952,15f43cd9-afe9-43ce-b48f-bae83f5ab33a,4,366.5442,368.4424,space,1,0,9,9,20,1,U,space,0.368299999,,,,,,,,,
,,,,,R_2a8lCnXgf5mY0Uw,001,2025-09-04_20h32.09.148,continuous_performance_test,2024.2.4,Win32,59.88023952,15f43cd9-afe9-43ce-b48f-bae83f5ab33a,4,368.4441,370.2926,space,1,0,10,10,17,1,R,space,0.5935,,,,,,,,,
,,,,,R_2a8lCnXgf5mY0Uw,001,2025-09-04_20h32.09.148,continuous_performance_test,2024.2.4,Win32,59.88023952,15f43cd9-afe9-43ce-b48f-bae83f5ab33a,4,370.2942,371.9919,space,1,0,11,11,24,1,Z,space,0.7031,,,,,,,,,
,,,,,R_2a8lCnXgf5mY0Uw,001,2025-09-04_20h32.09.148,continuous_performance_test,2024.2.4,Win32,59.88023952,15f43cd9-afe9-43ce-b48f-bae83f5ab33a,4,371.9933,373.5425,space,1,0,12,12,15,1,P,space,0.4685,,,,,,,,,
,,,,,R_2a8lCnXgf5mY0Uw,001,2025-09-04_20h32.09.148,continuous_performance_test,2024.2.4,Win32,59.88023952,15f43cd9-afe9-43ce-b48f-bae83f5ab33a,4,373.5436,375.2966,space,0,0,13,13,28,1,X,,0.7095,,,,,,,,,
,,,,,R_2a8lCnXgf5mY0Uw,001,2025-09-04_20h32.09.148,continuous_performance_test,2024.2.4,Win32,59.88023952,15f43cd9-afe9-43ce-b48f-bae83f5ab33a,4,375.2972,376.8425,space,1,0,14,14,0,1,A,space,0.302,,,,,,,,,
,,,,,R_2a8lCnXgf5mY0Uw,001,2025-09-04_20h32.09.148,continuous_performance_test,2024.2.4,Win32,59.88023952,15f43cd9-afe9-43ce-b48f-bae83f5ab33a,4,376.8439,378.6927,space,1,0,15,15,3,1,D,space,0.4364,,,,,,,,,
,,,,,R_2a8lCnXgf5mY0Uw,001,2025-09-04_20h32.09.148,continuous_performance_test,2024.2.4,Win32,59.88023952,15f43cd9-afe9-43ce-b48f-bae83f5ab33a,4,378.694,380.5429,,1,0,16,16,29,1,X,,,,,,,,,,,
,,,,,R_2a8lCnXgf5mY0Uw,001,2025-09-04_20h32.09.148,continuous_performance_test,2024.2.4,Win32,59.88023952,15f43cd9-afe9-43ce-b48f-bae83f5ab33a,4,380.544,382.2425,,1,0,17,17,27,1,X,,,,,,,,,,,
,,,,,R_2a8lCnXgf5mY0Uw,001,2025-09-04_20h32.09.148,continuous_performance_test,2024.2.4,Win32,59.88023952,15f43cd9-afe9-43ce-b48f-bae83f5ab33a,4,382.2433,383.8922,,1,0,18,18,25,1,X,,,,,,,,,,,
,,,,,R_2a8lCnXgf5mY0Uw,001,2025-09-04_20h32.09.148,continuous_performance_test,2024.2.4,Win32,59.88023952,15f43cd9-afe9-43ce-b48f-bae83f5ab33a,4,383.8929,385.6924,space,1,0,19,19,18,1,S,space,0.453200001,,,,,,,,,
,,,,,R_2a8lCnXgf5mY0Uw,001,2025-09-04_20h32.09.148,continuous_performance_test,2024.2.4,Win32,59.88023952,15f43cd9-afe9-43ce-b48f-bae83f5ab33a,4,385.6932,387.4924,space,1,0,20,20,6,1,G,space,0.4035,,,,,,,,,
,,,,,R_2a8lCnXgf5mY0Uw,001,2025-09-04_20h32.09.148,continuous_performance_test,2024.2.4,Win32,59.88023952,15f43cd9-afe9-43ce-b48f-bae83f5ab33a,4,387.4939,389.2924,space,1,0,21,21,16,1,Q,space,0.443,,,,,,,,,
,,,,,R_2a8lCnXgf5mY0Uw,001,2025-09-04_20h32.09.148,continuous_performance_test,2024.2.4,Win32,59.88023952,15f43cd9-afe9-43ce-b48f-bae83f5ab33a,4,389.2938,390.9924,,1,0,22,22,26,1,X,,,,,,,,,,,
,,,,,R_2a8lCnXgf5mY0Uw,001,2025-09-04_20h32.09.148,continuous_performance_test,2024.2.4,Win32,59.88023952,15f43cd9-afe9-43ce-b48f-bae83f5ab33a,4,390.9937,392.6421,space,1,0,23,23,7,1,H,space,0.353199999,,,,,,,,,
,,,,,R_2a8lCnXgf5mY0Uw,001,2025-09-04_20h32.09.148,continuous_performance_test,2024.2.4,Win32,59.88023952,15f43cd9-afe9-43ce-b48f-bae83f5ab33a,4,392.6429,394.4925,space,1,0,24,24,21,1,V,space,0.4685,,,,,,,,,
,,,,,R_2a8lCnXgf5mY0Uw,001,2025-09-04_20h32.09.148,continuous_performance_test,2024.2.4,Win32,59.88023952,15f43cd9-afe9-43ce-b48f-bae83f5ab33a,4,394.4939,396.1921,space,1,0,25,25,19,1,T,space,0.4014,,,,,,,,,
,,,,,R_2a8lCnXgf5mY0Uw,001,2025-09-04_20h32.09.148,continuous_performance_test,2024.2.4,Win32,59.88023952,15f43cd9-afe9-43ce-b48f-bae83f5ab33a,4,396.1928,397.8423,space,1,0,26,26,14,1,O,space,0.433,,,,,,,,,
,,,,,R_2a8lCnXgf5mY0Uw,001,2025-09-04_20h32.09.148,continuous_performance_test,2024.2.4,Win32,59.88023952,15f43cd9-afe9-43ce-b48f-bae83f5ab33a,4,397.8435,399.6424,space,1,0,27,27,22,1,W,space,0.6505,,,,,,,,,
,,,,,R_2a8lCnXgf5mY0Uw,001,2025-09-04_20h32.09.148,continuous_performance_test,2024.2.4,Win32,59.88023952,15f43cd9-afe9-43ce-b48f-bae83f5ab33a,4,399.6431,401.4921,space,1,0,28,28,5,1,F,space,0.4481,,,,,,,,,
,,,,,R_2a8lCnXgf5mY0Uw,001,2025-09-04_20h32.09.148,continuous_performance_test,2024.2.4,Win32,59.88023952,15f43cd9-afe9-43ce-b48f-bae83f5ab33a,4,401.4931,403.3922,space,1,0,29,29,12,1,M,space,0.4689,,,,,,,,,
,,,,,R_2a8lCnXgf5mY0Uw,001,2025-09-04_20h32.09.148,continuous_performance_test,2024.2.4,Win32,59.88023952,15f43cd9-afe9-43ce-b48f-bae83f5ab33a,4,418.401,420.2425,space,1,0,0,0,20,1,U,space,0.536199999,,403.3932,418.3923,,,,,,
,,,,,R_2a8lCnXgf5mY0Uw,001,2025-09-04_20h32.09.148,continuous_performance_test,2024.2.4,Win32,59.88023952,15f43cd9-afe9-43ce-b48f-bae83f5ab33a,4,420.2438,421.9925,space,1,0,1,1,13,1,N,space,0.399099998,,,,,,,,,
,,,,,R_2a8lCnXgf5mY0Uw,001,2025-09-04_20h32.09.148,continuous_performance_test,2024.2.4,Win32,59.88023952,15f43cd9-afe9-43ce-b48f-bae83f5ab33a,4,421.9941,423.6417,space,1,0,2,2,24,1,Z,space,0.430599998,,,,,,,,,
,,,,,R_2a8lCnXgf5mY0Uw,001,2025-09-04_20h32.09.148,continuous_performance_test,2024.2.4,Win32,59.88023952,15f43cd9-afe9-43ce-b48f-bae83f5ab33a,4,423.6423,425.5922,space,1,0,3,3,8,1,I,space,0.451700001,,,,,,,,,
,,,,,R_2a8lCnXgf5mY0Uw,001,2025-09-04_20h32.09.148,continuous_performance_test,2024.2.4,Win32,59.88023952,15f43cd9-afe9-43ce-b48f-bae83f5ab33a,4,425.5937,427.592,space,1,0,4,4,7,1,H,space,0.408799999,,,,,,,,,
,,,,,R_2a8lCnXgf5mY0Uw,001,2025-09-04_20h32.09.148,continuous_performance_test,2024.2.4,Win32,59.88023952,15f43cd9-afe9-43ce-b48f-bae83f5ab33a,4,427.5928,429.5424,space,1,0,5,5,11,1,L,space,0.4075,,,,,,,,,
,,,,,R_2a8lCnXgf5mY0Uw,001,2025-09-04_20h32.09.148,continuous_performance_test,2024.2.4,Win32,59.88023952,15f43cd9-afe9-43ce-b48f-bae83f5ab33a,4,429.5438,431.0925,,1,0,6,6,28,1,X,,,,,,,,,,,
,,,,,R_2a8lCnXgf5mY0Uw,001,2025-09-04_20h32.09.148,continuous_performance_test,2024.2.4,Win32,59.88023952,15f43cd9-afe9-43ce-b48f-bae83f5ab33a,4,431.0938,433.0927,space,1,0,7,7,3,1,D,space,0.3216,,,,,,,,,
,,,,,R_2a8lCnXgf5mY0Uw,001,2025-09-04_20h32.09.148,continuous_performance_test,2024.2.4,Win32,59.88023952,15f43cd9-afe9-43ce-b48f-bae83f5ab33a,4,433.094,434.6921,space,1,0,8,8,23,1,Y,space,0.3565,,,,,,,,,
,,,,,R_2a8lCnXgf5mY0Uw,001,2025-09-04_20h32.09.148,continuous_performance_test,2024.2.4,Win32,59.88023952,15f43cd9-afe9-43ce-b48f-bae83f5ab33a,4,434.693,436.3923,space,1,0,9,9,19,1,T,space,0.3654,,,,,,,,,
,,,,,R_2a8lCnXgf5mY0Uw,001,2025-09-04_20h32.09.148,continuous_performance_test,2024.2.4,Win32,59.88023952,15f43cd9-afe9-43ce-b48f-bae83f5ab33a,4,436.3934,438.3927,space,1,0,10,10,0,1,A,space,0.3914,,,,,,,,,
,,,,,R_2a8lCnXgf5mY0Uw,001,2025-09-04_20h32.09.148,continuous_performance_test,2024.2.4,Win32,59.88023952,15f43cd9-afe9-43ce-b48f-bae83f5ab33a,4,438.3942,440.3423,space,1,0,11,11,17,1,R,space,0.341099998,,,,,,,,,
,,,,,R_2a8lCnXgf5mY0Uw,001,2025-09-04_20h32.09.148,continuous_performance_test,2024.2.4,Win32,59.88023952,15f43cd9-afe9-43ce-b48f-bae83f5ab33a,4,440.3432,442.0924,space,1,0,12,12,18,1,S,space,0.5365,,,,,,,,,
,,,,,R_2a8lCnXgf5mY0Uw,001,2025-09-04_20h32.09.148,continuous_performance_test,2024.2.4,Win32,59.88023952,15f43cd9-afe9-43ce-b48f-bae83f5ab33a,4,442.0934,443.7418,space,1,0,13,13,1,1,B,space,0.4034,,,,,,,,,
,,,,,R_2a8lCnXgf5mY0Uw,001,2025-09-04_20h32.09.148,continuous_performance_test,2024.2.4,Win32,59.88023952,15f43cd9-afe9-43ce-b48f-bae83f5ab33a,4,443.7427,445.6921,,1,0,14,14,25,1,X,,,,,,,,,,,
,,,,,R_2a8lCnXgf5mY0Uw,001,2025-09-04_20h32.09.148,continuous_performance_test,2024.2.4,Win32,59.88023952,15f43cd9-afe9-43ce-b48f-bae83f5ab33a,4,445.6933,447.4426,space,1,0,15,15,6,1,G,space,0.4364,,,,,,,,,
,,,,,R_2a8lCnXgf5mY0Uw,001,2025-09-04_20h32.09.148,continuous_performance_test,2024.2.4,Win32,59.88023952,15f43cd9-afe9-43ce-b48f-bae83f5ab33a,4,447.444,449.3924,space,1,0,16,16,15,1,P,space,0.3491,,,,,,,,,
,,,,,R_2a8lCnXgf5mY0Uw,001,2025-09-04_20h32.09.148,continuous_performance_test,2024.2.4,Win32,59.88023952,15f43cd9-afe9-43ce-b48f-bae83f5ab33a,4,449.3933,450.9923,,1,0,17,17,26,1,X,,,,,,,,,,,
,,,,,R_2a8lCnXgf5mY0Uw,001,2025-09-04_20h32.09.148,continuous_performance_test,2024.2.4,Win32,59.88023952,15f43cd9-afe9-43ce-b48f-bae83f5ab33a,4,450.9933,452.8926,space,1,0,18,18,5,1,F,space,0.2824,,,,,,,,,
,,,,,R_2a8lCnXgf5mY0Uw,001,2025-09-04_20h32.09.148,continuous_performance_test,2024.2.4,Win32,59.88023952,15f43cd9-afe9-43ce-b48f-bae83f5ab33a,4,452.894,454.4424,space,1,0,19,19,12,1,M,space,0.464,,,,,,,,,
,,,,,R_2a8lCnXgf5mY0Uw,001,2025-09-04_20h32.09.148,continuous_performance_test,2024.2.4,Win32,59.88023952,15f43cd9-afe9-43ce-b48f-bae83f5ab33a,4,454.4432,456.0925,space,1,0,20,20,22,1,W,space,0.469200001,,,,,,,,,
,,,,,R_2a8lCnXgf5mY0Uw,001,2025-09-04_20h32.09.148,continuous_performance_test,2024.2.4,Win32,59.88023952,15f43cd9-afe9-43ce-b48f-bae83f5ab33a,4,456.094,458.0432,space,1,0,21,21,21,1,V,space,0.6071,,,,,,,,,
,,,,,R_2a8lCnXgf5mY0Uw,001,2025-09-04_20h32.09.148,continuous_performance_test,2024.2.4,Win32,59.88023952,15f43cd9-afe9-43ce-b48f-bae83f5ab33a,4,458.0447,459.9425,space,1,0,22,22,16,1,Q,space,0.514700001,,,,,,,,,
,,,,,R_2a8lCnXgf5mY0Uw,001,2025-09-04_20h32.09.148,continuous_performance_test,2024.2.4,Win32,59.88023952,15f43cd9-afe9-43ce-b48f-bae83f5ab33a,4,459.9435,461.7422,space,1,0,23,23,10,1,K,space,0.5985,,,,,,,,,
,,,,,R_2a8lCnXgf5mY0Uw,001,2025-09-04_20h32.09.148,continuous_performance_test,2024.2.4,Win32,59.88023952,15f43cd9-afe9-43ce-b48f-bae83f5ab33a,4,461.7443,463.3425,space,1,0,24,24,2,1,C,space,0.433700001,,,,,,,,,
,,,,,R_2a8lCnXgf5mY0Uw,001,2025-09-04_20h32.09.148,continuous_performance_test,2024.2.4,Win32,59.88023952,15f43cd9-afe9-43ce-b48f-bae83f5ab33a,4,463.344,465.2424,space,1,0,25,25,4,1,E,space,0.3851,,,,,,,,,
,,,,,R_2a8lCnXgf5mY0Uw,001,2025-09-04_20h32.09.148,continuous_performance_test,2024.2.4,Win32,59.88023952,15f43cd9-afe9-43ce-b48f-bae83f5ab33a,4,465.2436,466.793,space,1,0,26,26,9,1,J,space,0.4381,,,,,,,,,
,,,,,R_2a8lCnXgf5mY0Uw,001,2025-09-04_20h32.09.148,continuous_performance_test,2024.2.4,Win32,59.88023952,15f43cd9-afe9-43ce-b48f-bae83f5ab33a,4,466.7947,468.7923,,1,0,27,27,29,1,X,,,,,,,,,,,
,,,,,R_2a8lCnXgf5mY0Uw,001,2025-09-04_20h32.09.148,continuous_performance_test,2024.2.4,Win32,59.88023952,15f43cd9-afe9-43ce-b48f-bae83f5ab33a,4,468.7931,470.5426,space,0,0,28,28,27,1,X,,0.2996,,,,,,,,,
,,,,,R_2a8lCnXgf5mY0Uw,001,2025-09-04_20h32.09.148,continuous_performance_test,2024.2.4,Win32,59.88023952,15f43cd9-afe9-43ce-b48f-bae83f5ab33a,4,470.544,472.3924,space,1,0,29,29,14,1,O,space,0.423299999,,,,,,,,,
,,,,,R_2a8lCnXgf5mY0Uw,001,2025-09-04_20h32.09.148,continuous_performance_test,2024.2.4,Win32,59.88023952,15f43cd9-afe9-43ce-b48f-bae83f5ab33a,4,487.4007,488.9425,,1,0,0,0,28,1,X,,,,472.3938,487.3924,,,,,,
,,,,,R_2a8lCnXgf5mY0Uw,001,2025-09-04_20h32.09.148,continuous_performance_test,2024.2.4,Win32,59.88023952,15f43cd9-afe9-43ce-b48f-bae83f5ab33a,4,488.9439,490.5924,space,1,0,1,1,5,1,F,space,0.3895,,,,,,,,,
,,,,,R_2a8lCnXgf5mY0Uw,001,2025-09-04_20h32.09.148,continuous_performance_test,2024.2.4,Win32,59.88023952,15f43cd9-afe9-43ce-b48f-bae83f5ab33a,4,490.5938,492.1924,space,1,0,2,2,13,1,N,space,0.531,,,,,,,,,
,,,,,R_2a8lCnXgf5mY0Uw,001,2025-09-04_20h32.09.148,continuous_performance_test,2024.2.4,Win32,59.88023952,15f43cd9-afe9-43ce-b48f-bae83f5ab33a,4,492.1932,493.8922,space,1,0,3,3,7,1,H,space,0.465299999,,,,,,,,,
,,,,,R_2a8lCnXgf5mY0Uw,001,2025-09-04_20h32.09.148,continuous_performance_test,2024.2.4,Win32,59.88023952,15f43cd9-afe9-43ce-b48f-bae83f5ab33a,4,493.893,495.7923,space,1,0,4,4,2,1,C,space,0.4086,,,,,,,,,
,,,,,R_2a8lCnXgf5mY0Uw,001,2025-09-04_20h32.09.148,continuous_performance_test,2024.2.4,Win32,59.88023952,15f43cd9-afe9-43ce-b48f-bae83f5ab33a,4,495.7935,497.4925,,1,0,5,5,29,1,X,,,,,,,,,,,
,,,,,R_2a8lCnXgf5mY0Uw,001,2025-09-04_20h32.09.148,continuous_performance_test,2024.2.4,Win32,59.88023952,15f43cd9-afe9-43ce-b48f-bae83f5ab33a,4,497.4941,499.1927,space,1,0,6,6,4,1,E,space,0.3499,,,,,,,,,
,,,,,R_2a8lCnXgf5mY0Uw,001,2025-09-04_20h32.09.148,continuous_performance_test,2024.2.4,Win32,59.88023952,15f43cd9-afe9-43ce-b48f-bae83f5ab33a,4,499.1945,501.0924,space,0,0,7,7,25,1,X,,0.3591,,,,,,,,,
,,,,,R_2a8lCnXgf5mY0Uw,001,2025-09-04_20h32.09.148,continuous_performance_test,2024.2.4,Win32,59.88023952,15f43cd9-afe9-43ce-b48f-bae83f5ab33a,4,501.0937,502.7423,space,1,0,8,8,6,1,G,space,0.8476,,,,,,,,,
,,,,,R_2a8lCnXgf5mY0Uw,001,2025-09-04_20h32.09.148,continuous_performance_test,2024.2.4,Win32,59.88023952,15f43cd9-afe9-43ce-b48f-bae83f5ab33a,4,502.7437,504.6925,space,1,0,9,9,10,1,K,space,0.482699999,,,,,,,,,
,,,,,R_2a8lCnXgf5mY0Uw,001,2025-09-04_20h32.09.148,continuous_performance_test,2024.2.4,Win32,59.88023952,15f43cd9-afe9-43ce-b48f-bae83f5ab33a,4,504.6934,506.6925,space,1,0,10,10,16,1,Q,space,0.489,,,,,,,,,
,,,,,R_2a8lCnXgf5mY0Uw,001,2025-09-04_20h32.09.148,continuous_performance_test,2024.2.4,Win32,59.88023952,15f43cd9-afe9-43ce-b48f-bae83f5ab33a,4,506.6945,508.3922,space,1,0,11,11,17,1,R,space,0.351599998,,,,,,,,,
,,,,,R_2a8lCnXgf5mY0Uw,001,2025-09-04_20h32.09.148,continuous_performance_test,2024.2.4,Win32,59.88023952,15f43cd9-afe9-43ce-b48f-bae83f5ab33a,4,508.3928,510.0923,space,1,0,12,12,8,1,I,space,0.457199999,,,,,,,,,
,,,,,R_2a8lCnXgf5mY0Uw,001,2025-09-04_20h32.09.148,continuous_performance_test,2024.2.4,Win32,59.88023952,15f43cd9-afe9-43ce-b48f-bae83f5ab33a,4,510.0931,511.6427,space,1,0,13,13,22,1,W,space,0.464299999,,,,,,,,,
,,,,,R_2a8lCnXgf5mY0Uw,001,2025-09-04_20h32.09.148,continuous_performance_test,2024.2.4,Win32,59.88023952,15f43cd9-afe9-43ce-b48f-bae83f5ab33a,4,511.644,513.3423,space,1,0,14,14,18,1,S,space,0.431,,,,,,,,,
,,,,,R_2a8lCnXgf5mY0Uw,001,2025-09-04_20h32.09.148,continuous_performance_test,2024.2.4,Win32,59.88023952,15f43cd9-afe9-43ce-b48f-bae83f5ab33a,4,513.3433,515.0925,space,1,0,15,15,9,1,J,space,0.4666,,,,,,,,,
,,,,,R_2a8lCnXgf5mY0Uw,001,2025-09-04_20h32.09.148,continuous_performance_test,2024.2.4,Win32,59.88023952,15f43cd9-afe9-43ce-b48f-bae83f5ab33a,4,515.0937,516.7427,space,1,0,16,16,19,1,T,space,0.463900002,,,,,,,,,
,,,,,R_2a8lCnXgf5mY0Uw,001,2025-09-04_20h32.09.148,continuous_performance_test,2024.2.4,Win32,59.88023952,15f43cd9-afe9-43ce-b48f-bae83f5ab33a,4,516.7442,518.4924,space,1,0,17,17,24,1,Z,space,0.0666,,,,,,,,,
,,,,,R_2a8lCnXgf5mY0Uw,001,2025-09-04_20h32.09.148,continuous_performance_test,2024.2.4,Win32,59.88023952,15f43cd9-afe9-43ce-b48f-bae83f5ab33a,4,518.4937,520.4926,space,0,0,18,18,27,1,X,,0.316700001,,,,,,,,,
,,,,,R_2a8lCnXgf5mY0Uw,001,2025-09-04_20h32.09.148,continuous_performance_test,2024.2.4,Win32,59.88023952,15f43cd9-afe9-43ce-b48f-bae83f5ab33a,4,520.494,522.1425,space,1,0,19,19,12,1,M,space,0.3986,,,,,,,,,
,,,,,R_2a8lCnXgf5mY0Uw,001,2025-09-04_20h32.09.148,continuous_performance_test,2024.2.4,Win32,59.88023952,15f43cd9-afe9-43ce-b48f-bae83f5ab33a,4,522.1435,524.1421,space,1,0,20,20,11,1,L,space,0.4751,,,,,,,,,
,,,,,R_2a8lCnXgf5mY0Uw,001,2025-09-04_20h32.09.148,continuous_performance_test,2024.2.4,Win32,59.88023952,15f43cd9-afe9-43ce-b48f-bae83f5ab33a,4,524.1433,525.9926,space,1,0,21,21,20,1,U,space,0.4234,,,,,,,,,
,,,,,R_2a8lCnXgf5mY0Uw,001,2025-09-04_20h32.09.148,continuous_performance_test,2024.2.4,Win32,59.88023952,15f43cd9-afe9-43ce-b48f-bae83f5ab33a,4,525.994,527.6436,space,1,0,22,22,23,1,Y,space,0.459299999,,,,,,,,,
,,,,,R_2a8lCnXgf5mY0Uw,001,2025-09-04_20h32.09.148,continuous_performance_test,2024.2.4,Win32,59.88023952,15f43cd9-afe9-43ce-b48f-bae83f5ab33a,4,527.6443,529.193,space,1,0,23,23,1,1,B,space,0.3826,,,,,,,,,
,,,,,R_2a8lCnXgf5mY0Uw,001,2025-09-04_20h32.09.148,continuous_performance_test,2024.2.4,Win32,59.88023952,15f43cd9-afe9-43ce-b48f-bae83f5ab33a,4,529.1948,530.892,space,1,0,24,24,15,1,P,space,0.415199999,,,,,,,,,
,,,,,R_2a8lCnXgf5mY0Uw,001,2025-09-04_20h32.09.148,continuous_performance_test,2024.2.4,Win32,59.88023952,15f43cd9-afe9-43ce-b48f-bae83f5ab33a,4,530.8932,532.7423,space,1,0,25,25,14,1,O,space,0.448800001,,,,,,,,,
,,,,,R_2a8lCnXgf5mY0Uw,001,2025-09-04_20h32.09.148,continuous_performance_test,2024.2.4,Win32,59.88023952,15f43cd9-afe9-43ce-b48f-bae83f5ab33a,4,532.7431,534.3927,space,1,0,26,26,21,1,V,space,0.614700001,,,,,,,,,
,,,,,R_2a8lCnXgf5mY0Uw,001,2025-09-04_20h32.09.148,continuous_performance_test,2024.2.4,Win32,59.88023952,15f43cd9-afe9-43ce-b48f-bae83f5ab33a,4,534.3938,536.0921,,1,0,27,27,26,1,X,,,,,,,,,,,
,,,,,R_2a8lCnXgf5mY0Uw,001,2025-09-04_20h32.09.148,continuous_performance_test,2024.2.4,Win32,59.88023952,15f43cd9-afe9-43ce-b48f-bae83f5ab33a,4,536.0928,537.7924,space,1,0,28,28,3,1,D,space,0.3809,,,,,,,,,
,,,,,R_2a8lCnXgf5mY0Uw,001,2025-09-04_20h32.09.148,continuous_performance_test,2024.2.4,Win32,59.88023952,15f43cd9-afe9-43ce-b48f-bae83f5ab33a,4,537.7935,539.693,space,1,0,29,29,0,1,A,space,0.516199999,,,,,,,,,
,,,,,R_2a8lCnXgf5mY0Uw,001,2025-09-04_20h32.09.148,continuous_performance_test,2024.2.4,Win32,59.88023952,15f43cd9-afe9-43ce-b48f-bae83f5ab33a,4,554.7009,556.5423,space,1,0,0,0,9,1,J,space,0.5171,,539.6944,554.6925,,,,,,
,,,,,R_2a8lCnXgf5mY0Uw,001,2025-09-04_20h32.09.148,continuous_performance_test,2024.2.4,Win32,59.88023952,15f43cd9-afe9-43ce-b48f-bae83f5ab33a,4,556.5436,558.142,space,1,0,1,1,16,1,Q,space,0.4405,,,,,,,,,
,,,,,R_2a8lCnXgf5mY0Uw,001,2025-09-04_20h32.09.148,continuous_performance_test,2024.2.4,Win32,59.88023952,15f43cd9-afe9-43ce-b48f-bae83f5ab33a,4,558.1426,559.8924,space,1,0,2,2,0,1,A,space,0.390200001,,,,,,,,,
,,,,,R_2a8lCnXgf5mY0Uw,001,2025-09-04_20h32.09.148,continuous_performance_test,2024.2.4,Win32,59.88023952,15f43cd9-afe9-43ce-b48f-bae83f5ab33a,4,559.8937,561.5925,space,1,0,3,3,7,1,H,space,0.3321,,,,,,,,,
,,,,,R_2a8lCnXgf5mY0Uw,001,2025-09-04_20h32.09.148,continuous_performance_test,2024.2.4,Win32,59.88023952,15f43cd9-afe9-43ce-b48f-bae83f5ab33a,4,561.5934,563.2926,space,1,0,4,4,4,1,E,space,0.4006,,,,,,,,,
,,,,,R_2a8lCnXgf5mY0Uw,001,2025-09-04_20h32.09.148,continuous_performance_test,2024.2.4,Win32,59.88023952,15f43cd9-afe9-43ce-b48f-bae83f5ab33a,4,563.2933,564.9423,,1,0,5,5,29,1,X,,,,,,,,,,,
,,,,,R_2a8lCnXgf5mY0Uw,001,2025-09-04_20h32.09.148,continuous_performance_test,2024.2.4,Win32,59.88023952,15f43cd9-afe9-43ce-b48f-bae83f5ab33a,4,564.9431,566.5426,space,1,0,6,6,19,1,T,space,0.3685,,,,,,,,,
,,,,,R_2a8lCnXgf5mY0Uw,001,2025-09-04_20h32.09.148,continuous_performance_test,2024.2.4,Win32,59.88023952,15f43cd9-afe9-43ce-b48f-bae83f5ab33a,4,566.5437,568.193,space,1,0,7,7,15,1,P,space,0.4344,,,,,,,,,
,,,,,R_2a8lCnXgf5mY0Uw,001,2025-09-04_20h32.09.148,continuous_performance_test,2024.2.4,Win32,59.88023952,15f43cd9-afe9-43ce-b48f-bae83f5ab33a,4,568.1941,570.0924,space,1,0,8,8,2,1,C,space,0.4985,,,,,,,,,
,,,,,R_2a8lCnXgf5mY0Uw,001,2025-09-04_20h32.09.148,continuous_performance_test,2024.2.4,Win32,59.88023952,15f43cd9-afe9-43ce-b48f-bae83f5ab33a,4,570.0938,572.0425,space,1,0,9,9,21,1,V,space,0.701599998,,,,,,,,,
,,,,,R_2a8lCnXgf5mY0Uw,001,2025-09-04_20h32.09.148,continuous_performance_test,2024.2.4,Win32,59.88023952,15f43cd9-afe9-43ce-b48f-bae83f5ab33a,4,572.0447,573.6427,space,1,0,10,10,10,1,K,space,0.839200001,,,,,,,,,
,,,,,R_2a8lCnXgf5mY0Uw,001,2025-09-04_20h32.09.148,continuous_performance_test,2024.2.4,Win32,59.88023952,15f43cd9-afe9-43ce-b48f-bae83f5ab33a,4,573.644,575.2924,space,1,0,11,11,6,1,G,space,0.6254,,,,,,,,,
,,,,,R_2a8lCnXgf5mY0Uw,001,2025-09-04_20h32.09.148,continuous_performance_test,2024.2.4,Win32,59.88023952,15f43cd9-afe9-43ce-b48f-bae83f5ab33a,4,575.294,577.0925,space,1,0,12,12,3,1,D,space,0.4076,,,,,,,,,
,,,,,R_2a8lCnXgf5mY0Uw,001,2025-09-04_20h32.09.148,continuous_performance_test,2024.2.4,Win32,59.88023952,15f43cd9-afe9-43ce-b48f-bae83f5ab33a,4,577.0932,578.9426,space,1,0,13,13,24,1,Z,space,0.8411,,,,,,,,,
,,,,,R_2a8lCnXgf5mY0Uw,001,2025-09-04_20h32.09.148,continuous_performance_test,2024.2.4,Win32,59.88023952,15f43cd9-afe9-43ce-b48f-bae83f5ab33a,4,578.9441,580.793,space,1,0,14,14,5,1,F,space,0.413599998,,,,,,,,,
,,,,,R_2a8lCnXgf5mY0Uw,001,2025-09-04_20h32.09.148,continuous_performance_test,2024.2.4,Win32,59.88023952,15f43cd9-afe9-43ce-b48f-bae83f5ab33a,4,580.7949,582.4425,space,1,0,15,15,20,1,U,space,0.3856,,,,,,,,,
,,,,,R_2a8lCnXgf5mY0Uw,001,2025-09-04_20h32.09.148,continuous_performance_test,2024.2.4,Win32,59.88023952,15f43cd9-afe9-43ce-b48f-bae83f5ab33a,4,582.4434,584.2918,,1,0,16,16,28,1,X,,,,,,,,,,,
,,,,,R_2a8lCnXgf5mY0Uw,001,2025-09-04_20h32.09.148,continuous_performance_test,2024.2.4,Win32,59.88023952,15f43cd9-afe9-43ce-b48f-bae83f5ab33a,4,584.2925,586.2921,space,1,0,17,17,23,1,Y,space,0.4809,,,,,,,,,
,,,,,R_2a8lCnXgf5mY0Uw,001,2025-09-04_20h32.09.148,continuous_performance_test,2024.2.4,Win32,59.88023952,15f43cd9-afe9-43ce-b48f-bae83f5ab33a,4,586.2929,587.9923,space,1,0,18,18,13,1,N,space,0.464900002,,,,,,,,,
,,,,,R_2a8lCnXgf5mY0Uw,001,2025-09-04_20h32.09.148,continuous_performance_test,2024.2.4,Win32,59.88023952,15f43cd9-afe9-43ce-b48f-bae83f5ab33a,4,587.993,589.7425,space,1,0,19,19,1,1,B,space,0.3809,,,,,,,,,
,,,,,R_2a8lCnXgf5mY0Uw,001,2025-09-04_20h32.09.148,continuous_performance_test,2024.2.4,Win32,59.88023952,15f43cd9-afe9-43ce-b48f-bae83f5ab33a,4,589.7435,591.392,space,1,0,20,20,12,1,M,space,0.355900002,,,,,,,,,
,,,,,R_2a8lCnXgf5mY0Uw,001,2025-09-04_20h32.09.148,continuous_performance_test,2024.2.4,Win32,59.88023952,15f43cd9-afe9-43ce-b48f-bae83f5ab33a,4,591.3927,593.0927,space,1,0,21,21,18,1,S,space,0.432299999,,,,,,,,,
,,,,,R_2a8lCnXgf5mY0Uw,001,2025-09-04_20h32.09.148,continuous_performance_test,2024.2.4,Win32,59.88023952,15f43cd9-afe9-43ce-b48f-bae83f5ab33a,4,593.0939,594.7923,,1,0,22,22,25,1,X,,,,,,,,,,,
,,,,,R_2a8lCnXgf5mY0Uw,001,2025-09-04_20h32.09.148,continuous_performance_test,2024.2.4,Win32,59.88023952,15f43cd9-afe9-43ce-b48f-bae83f5ab33a,4,594.7929,596.7425,space,0,0,23,23,26,1,X,,0.299900002,,,,,,,,,
,,,,,R_2a8lCnXgf5mY0Uw,001,2025-09-04_20h32.09.148,continuous_performance_test,2024.2.4,Win32,59.88023952,15f43cd9-afe9-43ce-b48f-bae83f5ab33a,4,596.7434,598.5426,space,1,0,24,24,17,1,R,space,0.3995,,,,,,,,,
,,,,,R_2a8lCnXgf5mY0Uw,001,2025-09-04_20h32.09.148,continuous_performance_test,2024.2.4,Win32,59.88023952,15f43cd9-afe9-43ce-b48f-bae83f5ab33a,4,598.5435,600.2427,space,1,0,25,25,14,1,O,space,0.4379,,,,,,,,,
,,,,,R_2a8lCnXgf5mY0Uw,001,2025-09-04_20h32.09.148,continuous_performance_test,2024.2.4,Win32,59.88023952,15f43cd9-afe9-43ce-b48f-bae83f5ab33a,4,600.2441,601.9926,space,1,0,26,26,8,1,I,space,0.392800001,,,,,,,,,
,,,,,R_2a8lCnXgf5mY0Uw,001,2025-09-04_20h32.09.148,continuous_performance_test,2024.2.4,Win32,59.88023952,15f43cd9-afe9-43ce-b48f-bae83f5ab33a,4,601.9943,603.5924,space,1,0,27,27,22,1,W,space,0.5541,,,,,,,,,
,,,,,R_2a8lCnXgf5mY0Uw,001,2025-09-04_20h32.09.148,continuous_performance_test,2024.2.4,Win32,59.88023952,15f43cd9-afe9-43ce-b48f-bae83f5ab33a,4,603.5931,605.243,,1,0,28,28,27,1,X,,,,,,,,,,,
,,,,,R_2a8lCnXgf5mY0Uw,001,2025-09-04_20h32.09.148,continuous_performance_test,2024.2.4,Win32,59.88023952,15f43cd9-afe9-43ce-b48f-bae83f5ab33a,4,605.2443,606.9426,space,1,0,29,29,11,1,L,space,0.517599998,,,,,,,,,
,,,,,R_2a8lCnXgf5mY0Uw,001,2025-09-04_20h32.09.148,continuous_performance_test,2024.2.4,Win32,59.88023952,15f43cd9-afe9-43ce-b48f-bae83f5ab33a,4,621.9472,623.5926,space,1,0,0,0,8,1,I,space,0.553699999,,606.9434,621.9423,,,,,,
,,,,,R_2a8lCnXgf5mY0Uw,001,2025-09-04_20h32.09.148,continuous_performance_test,2024.2.4,Win32,59.88023952,15f43cd9-afe9-43ce-b48f-bae83f5ab33a,4,623.5935,625.2431,space,1,0,1,1,22,1,W,space,0.4655,,,,,,,,,
,,,,,R_2a8lCnXgf5mY0Uw,001,2025-09-04_20h32.09.148,continuous_performance_test,2024.2.4,Win32,59.88023952,15f43cd9-afe9-43ce-b48f-bae83f5ab33a,4,625.2444,626.8426,space,1,0,2,2,24,1,Z,space,0.567700001,,,,,,,,,
,,,,,R_2a8lCnXgf5mY0Uw,001,2025-09-04_20h32.09.148,continuous_performance_test,2024.2.4,Win32,59.88023952,15f43cd9-afe9-43ce-b48f-bae83f5ab33a,4,626.844,628.6923,,1,0,3,3,25,1,X,,,,,,,,,,,
,,,,,R_2a8lCnXgf5mY0Uw,001,2025-09-04_20h32.09.148,continuous_performance_test,2024.2.4,Win32,59.88023952,15f43cd9-afe9-43ce-b48f-bae83f5ab33a,4,628.6931,630.5926,space,1,0,4,4,21,1,V,space,0.3224,,,,,,,,,
,,,,,R_2a8lCnXgf5mY0Uw,001,2025-09-04_20h32.09.148,continuous_performance_test,2024.2.4,Win32,59.88023952,15f43cd9-afe9-43ce-b48f-bae83f5ab33a,4,630.5935,632.3425,space,1,0,5,5,13,1,N,space,0.3396,,,,,,,,,
,,,,,R_2a8lCnXgf5mY0Uw,001,2025-09-04_20h32.09.148,continuous_performance_test,2024.2.4,Win32,59.88023952,15f43cd9-afe9-43ce-b48f-bae83f5ab33a,4,632.344,633.9926,space,1,0,6,6,17,1,R,space,0.420799999,,,,,,,,,
,,,,,R_2a8lCnXgf5mY0Uw,001,2025-09-04_20h32.09.148,continuous_performance_test,2024.2.4,Win32,59.88023952,15f43cd9-afe9-43ce-b48f-bae83f5ab33a,4,633.9938,635.7926,space,1,0,7,7,20,1,U,space,0.3734,,,,,,,,,
,,,,,R_2a8lCnXgf5mY0Uw,001,2025-09-04_20h32.09.148,continuous_performance_test,2024.2.4,Win32,59.88023952,15f43cd9-afe9-43ce-b48f-bae83f5ab33a,4,635.7933,637.7927,space,1,0,8,8,12,1,M,space,0.3525,,,,,,,,,
,,,,,R_2a8lCnXgf5mY0Uw,001,2025-09-04_20h32.09.148,continuous_performance_test,2024.2.4,Win32,59.88023952,15f43cd9-afe9-43ce-b48f-bae83f5ab33a,4,637.7937,639.5927,space,1,0,9,9,18,1,S,space,0.4229,,,,,,,,,
,,,,,R_2a8lCnXgf5mY0Uw,001,2025-09-04_20h32.09.148,continuous_performance_test,2024.2.4,Win32,59.88023952,15f43cd9-afe9-43ce-b48f-bae83f5ab33a,4,639.594,641.5927,space,1,0,10,10,19,1,T,space,0.3835,,,,,,,,,
,,,,,R_2a8lCnXgf5mY0Uw,001,2025-09-04_20h32.09.148,continuous_performance_test,2024.2.4,Win32,59.88023952,15f43cd9-afe9-43ce-b48f-bae83f5ab33a,4,641.5935,643.5426,space,0,0,11,11,29,1,X,,0.3604,,,,,,,,,
,,,,,R_2a8lCnXgf5mY0Uw,001,2025-09-04_20h32.09.148,continuous_performance_test,2024.2.4,Win32,59.88023952,15f43cd9-afe9-43ce-b48f-bae83f5ab33a,4,643.5439,645.5425,space,1,0,12,12,2,1,C,space,0.317300001,,,,,,,,,
,,,,,R_2a8lCnXgf5mY0Uw,001,2025-09-04_20h32.09.148,continuous_performance_test,2024.2.4,Win32,59.88023952,15f43cd9-afe9-43ce-b48f-bae83f5ab33a,4,645.5438,647.3425,space,1,0,13,13,4,1,E,space,0.397,,,,,,,,,
,,,,,R_2a8lCnXgf5mY0Uw,001,2025-09-04_20h32.09.148,continuous_performance_test,2024.2.4,Win32,59.88023952,15f43cd9-afe9-43ce-b48f-bae83f5ab33a,4,647.3437,648.8927,space,1,0,14,14,1,1,B,space,0.3925,,,,,,,,,
,,,,,R_2a8lCnXgf5mY0Uw,001,2025-09-04_20h32.09.148,continuous_performance_test,2024.2.4,Win32,59.88023952,15f43cd9-afe9-43ce-b48f-bae83f5ab33a,4,648.8941,650.5421,space,1,0,15,15,23,1,Y,space,0.466,,,,,,,,,
,,,,,R_2a8lCnXgf5mY0Uw,001,2025-09-04_20h32.09.148,continuous_performance_test,2024.2.4,Win32,59.88023952,15f43cd9-afe9-43ce-b48f-bae83f5ab33a,4,650.5428,652.1423,space,1,0,16,16,6,1,G,space,0.4161,,,,,,,,,
,,,,,R_2a8lCnXgf5mY0Uw,001,2025-09-04_20h32.09.148,continuous_performance_test,2024.2.4,Win32,59.88023952,15f43cd9-afe9-43ce-b48f-bae83f5ab33a,4,652.1433,653.8424,space,1,0,17,17,3,1,D,space,0.3855,,,,,,,,,
,,,,,R_2a8lCnXgf5mY0Uw,001,2025-09-04_20h32.09.148,continuous_performance_test,2024.2.4,Win32,59.88023952,15f43cd9-afe9-43ce-b48f-bae83f5ab33a,4,653.8432,655.4425,space,1,0,18,18,9,1,J,space,0.436699999,,,,,,,,,
,,,,,R_2a8lCnXgf5mY0Uw,001,2025-09-04_20h32.09.148,continuous_performance_test,2024.2.4,Win32,59.88023952,15f43cd9-afe9-43ce-b48f-bae83f5ab33a,4,655.4435,657.3925,,1,0,19,19,27,1,X,,,,,,,,,,,
,,,,,R_2a8lCnXgf5mY0Uw,001,2025-09-04_20h32.09.148,continuous_performance_test,2024.2.4,Win32,59.88023952,15f43cd9-afe9-43ce-b48f-bae83f5ab33a,4,657.3932,658.9426,space,1,0,20,20,10,1,K,space,0.4249,,,,,,,,,
,,,,,R_2a8lCnXgf5mY0Uw,001,2025-09-04_20h32.09.148,continuous_performance_test,2024.2.4,Win32,59.88023952,15f43cd9-afe9-43ce-b48f-bae83f5ab33a,4,658.9436,660.7924,space,1,0,21,21,11,1,L,space,0.4396,,,,,,,,,
,,,,,R_2a8lCnXgf5mY0Uw,001,2025-09-04_20h32.09.148,continuous_performance_test,2024.2.4,Win32,59.88023952,15f43cd9-afe9-43ce-b48f-bae83f5ab33a,4,660.7933,662.5927,space,1,0,22,22,15,1,P,space,0.3469,,,,,,,,,
,,,,,R_2a8lCnXgf5mY0Uw,001,2025-09-04_20h32.09.148,continuous_performance_test,2024.2.4,Win32,59.88023952,15f43cd9-afe9-43ce-b48f-bae83f5ab33a,4,662.5934,664.4425,space,1,0,23,23,7,1,H,space,0.3835,,,,,,,,,
,,,,,R_2a8lCnXgf5mY0Uw,001,2025-09-04_20h32.09.148,continuous_performance_test,2024.2.4,Win32,59.88023952,15f43cd9-afe9-43ce-b48f-bae83f5ab33a,4,664.4433,666.2935,space,1,0,24,24,5,1,F,space,0.389799999,,,,,,,,,
,,,,,R_2a8lCnXgf5mY0Uw,001,2025-09-04_20h32.09.148,continuous_performance_test,2024.2.4,Win32,59.88023952,15f43cd9-afe9-43ce-b48f-bae83f5ab33a,4,666.2945,668.0425,space,0,0,25,25,26,1,X,,0.405200001,,,,,,,,,
,,,,,R_2a8lCnXgf5mY0Uw,001,2025-09-04_20h32.09.148,continuous_performance_test,2024.2.4,Win32,59.88023952,15f43cd9-afe9-43ce-b48f-bae83f5ab33a,4,668.0434,670.0424,,1,0,26,26,28,1,X,,,,,,,,,,,
,,,,,R_2a8lCnXgf5mY0Uw,001,2025-09-04_20h32.09.148,continuous_performance_test,2024.2.4,Win32,59.88023952,15f43cd9-afe9-43ce-b48f-bae83f5ab33a,4,670.0433,671.8424,space,1,0,27,27,0,1,A,space,0.337700001,,,,,,,,,
,,,,,R_2a8lCnXgf5mY0Uw,001,2025-09-04_20h32.09.148,continuous_performance_test,2024.2.4,Win32,59.88023952,15f43cd9-afe9-43ce-b48f-bae83f5ab33a,4,671.8432,673.7926,space,1,0,28,28,14,1,O,space,0.348900002,,,,,,,,,
,,,,,R_2a8lCnXgf5mY0Uw,001,2025-09-04_20h32.09.148,continuous_performance_test,2024.2.4,Win32,59.88023952,15f43cd9-afe9-43ce-b48f-bae83f5ab33a,4,673.794,675.5926,space,1,0,29,29,16,1,Q,space,0.356300001,,,,,,,,,
,,,,,R_2a8lCnXgf5mY0Uw,001,2025-09-04_20h32.09.148,continuous_performance_test,2024.2.4,Win32,59.88023952,15f43cd9-afe9-43ce-b48f-bae83f5ab33a,4,,,,,,,,,,,,,,675.5937,675.5949,,675.5954,678.676,space,3.0611,
