Instructions.started,Instructions.stopped,key_resp.keys,key_resp.rt,key_resp.duration,participant,session,date,expName,psychopyVersion,OS,frameRate,realeye-tester-id,realeye-tester-quality_grade,Trial_noX.started,Trial_noX.stopped,response.keys,response.corr,response.rt,response.duration,trials_noX.thisRepN,trials_noX.thisTrialN,trials_noX.thisN,trials_noX.thisIndex,trials_noX.ran,letter,corrAns,BlockBreak.started,BlockBreak.stopped,key_instruct.keys,key_instruct.rt,key_instruct.duration,End_NoX.started,End_NoX.stopped,key_resp_end_noX.keys,key_resp_end_noX.rt,key_resp_end_noX.duration
0,6.001,space,5.929,,R_2dcrbL6JgBCbV58,001,2025-08-17_20h10.49.213,continuous_performance_test,2024.2.4,Win32,60.0240096,79aa71e7-4f1b-4c00-ad1b-fb58860c0f7c,3,,,,,,,,,,,,,,,,,,,,,,,
,,,,,R_2dcrbL6JgBCbV58,001,2025-08-17_20h10.49.213,continuous_performance_test,2024.2.4,Win32,60.0240096,79aa71e7-4f1b-4c00-ad1b-fb58860c0f7c,3,6.019,7.662,space,1,0.749,,0,0,0,19,1,T,space,,,,,,,,,,
,,,,,R_2dcrbL6JgBCbV58,001,2025-08-17_20h10.49.213,continuous_performance_test,2024.2.4,Win32,60.0240096,79aa71e7-4f1b-4c00-ad1b-fb58860c0f7c,3,7.669,9.312,space,1,0.4,,0,1,1,8,1,I,space,,,,,,,,,,
,,,,,R_2dcrbL6JgBCbV58,001,2025-08-17_20h10.49.213,continuous_performance_test,2024.2.4,Win32,60.0240096,79aa71e7-4f1b-4c00-ad1b-fb58860c0f7c,3,9.317,11.311,space,0,0.75,,0,2,2,25,1,X,,,,,,,,,,,
,,,,,R_2dcrbL6JgBCbV58,001,2025-08-17_20h10.49.213,continuous_performance_test,2024.2.4,Win32,60.0240096,79aa71e7-4f1b-4c00-ad1b-fb58860c0f7c,3,11.315,13.211,space,1,0.418,,0,3,3,9,1,J,space,,,,,,,,,,
,,,,,R_2dcrbL6JgBCbV58,001,2025-08-17_20h10.49.213,continuous_performance_test,2024.2.4,Win32,60.0240096,79aa71e7-4f1b-4c00-ad1b-fb58860c0f7c,3,13.214,14.76,space,1,0.439,,0,4,4,14,1,O,space,,,,,,,,,,
,,,,,R_2dcrbL6JgBCbV58,001,2025-08-17_20h10.49.213,continuous_performance_test,2024.2.4,Win32,60.0240096,79aa71e7-4f1b-4c00-ad1b-fb58860c0f7c,3,14.764,16.46,space,1,0.518,,0,5,5,0,1,A,space,,,,,,,,,,
,,,,,R_2dcrbL6JgBCbV58,001,2025-08-17_20h10.49.213,continuous_performance_test,2024.2.4,Win32,60.0240096,79aa71e7-4f1b-4c00-ad1b-fb58860c0f7c,3,16.462,18.258,space,1,0.385,,0,6,6,4,1,E,space,,,,,,,,,,
,,,,,R_2dcrbL6JgBCbV58,001,2025-08-17_20h10.49.213,continuous_performance_test,2024.2.4,Win32,60.0240096,79aa71e7-4f1b-4c00-ad1b-fb58860c0f7c,3,18.264,20.108,space,1,0.35,,0,7,7,16,1,Q,space,,,,,,,,,,
,,,,,R_2dcrbL6JgBCbV58,001,2025-08-17_20h10.49.213,continuous_performance_test,2024.2.4,Win32,60.0240096,79aa71e7-4f1b-4c00-ad1b-fb58860c0f7c,3,20.112,21.807,space,1,0.534,,0,8,8,10,1,K,space,,,,,,,,,,
,,,,,R_2dcrbL6JgBCbV58,001,2025-08-17_20h10.49.213,continuous_performance_test,2024.2.4,Win32,60.0240096,79aa71e7-4f1b-4c00-ad1b-fb58860c0f7c,3,21.81,23.457,,1,,,0,9,9,27,1,X,,,,,,,,,,,
,,,,,R_2dcrbL6JgBCbV58,001,2025-08-17_20h10.49.213,continuous_performance_test,2024.2.4,Win32,60.0240096,79aa71e7-4f1b-4c00-ad1b-fb58860c0f7c,3,23.46,25.356,space,1,0.35,,0,10,10,22,1,W,space,,,,,,,,,,
,,,,,R_2dcrbL6JgBCbV58,001,2025-08-17_20h10.49.213,continuous_performance_test,2024.2.4,Win32,60.0240096,79aa71e7-4f1b-4c00-ad1b-fb58860c0f7c,3,25.359,27.305,space,1,0.501,,0,11,11,13,1,N,space,,,,,,,,,,
,,,,,R_2dcrbL6JgBCbV58,001,2025-08-17_20h10.49.213,continuous_performance_test,2024.2.4,Win32,60.0240096,79aa71e7-4f1b-4c00-ad1b-fb58860c0f7c,3,27.309,29.305,space,1,0.586,,0,12,12,24,1,Z,space,,,,,,,,,,
,,,,,R_2dcrbL6JgBCbV58,001,2025-08-17_20h10.49.213,continuous_performance_test,2024.2.4,Win32,60.0240096,79aa71e7-4f1b-4c00-ad1b-fb58860c0f7c,3,29.308,31.104,space,1,0.534,,0,13,13,21,1,V,space,,,,,,,,,,
,,,,,R_2dcrbL6JgBCbV58,001,2025-08-17_20h10.49.213,continuous_performance_test,2024.2.4,Win32,60.0240096,79aa71e7-4f1b-4c00-ad1b-fb58860c0f7c,3,31.107,32.754,space,1,0.503,,0,14,14,2,1,C,space,,,,,,,,,,
,,,,,R_2dcrbL6JgBCbV58,001,2025-08-17_20h10.49.213,continuous_performance_test,2024.2.4,Win32,60.0240096,79aa71e7-4f1b-4c00-ad1b-fb58860c0f7c,3,32.756,34.304,space,1,0.405,,0,15,15,23,1,Y,space,,,,,,,,,,
,,,,,R_2dcrbL6JgBCbV58,001,2025-08-17_20h10.49.213,continuous_performance_test,2024.2.4,Win32,60.0240096,79aa71e7-4f1b-4c00-ad1b-fb58860c0f7c,3,34.306,36.104,space,1,0.381,,0,16,16,6,1,G,space,,,,,,,,,,
,,,,,R_2dcrbL6JgBCbV58,001,2025-08-17_20h10.49.213,continuous_performance_test,2024.2.4,Win32,60.0240096,79aa71e7-4f1b-4c00-ad1b-fb58860c0f7c,3,36.113,37.752,space,1,0.4,,0,17,17,7,1,H,space,,,,,,,,,,
,,,,,R_2dcrbL6JgBCbV58,001,2025-08-17_20h10.49.213,continuous_performance_test,2024.2.4,Win32,60.0240096,79aa71e7-4f1b-4c00-ad1b-fb58860c0f7c,3,37.756,39.751,space,1,0.532,,0,18,18,3,1,D,space,,,,,,,,,,
,,,,,R_2dcrbL6JgBCbV58,001,2025-08-17_20h10.49.213,continuous_performance_test,2024.2.4,Win32,60.0240096,79aa71e7-4f1b-4c00-ad1b-fb58860c0f7c,3,39.755,41.7,space,1,0.386,,0,19,19,15,1,P,space,,,,,,,,,,
,,,,,R_2dcrbL6JgBCbV58,001,2025-08-17_20h10.49.213,continuous_performance_test,2024.2.4,Win32,60.0240096,79aa71e7-4f1b-4c00-ad1b-fb58860c0f7c,3,41.704,43.25,space,0,0.468,,0,20,20,26,1,X,,,,,,,,,,,
,,,,,R_2dcrbL6JgBCbV58,001,2025-08-17_20h10.49.213,continuous_performance_test,2024.2.4,Win32,60.0240096,79aa71e7-4f1b-4c00-ad1b-fb58860c0f7c,3,43.251,45,,1,,,0,21,21,28,1,X,,,,,,,,,,,
,,,,,R_2dcrbL6JgBCbV58,001,2025-08-17_20h10.49.213,continuous_performance_test,2024.2.4,Win32,60.0240096,79aa71e7-4f1b-4c00-ad1b-fb58860c0f7c,3,45.003,46.599,space,1,0.401,,0,22,22,11,1,L,space,,,,,,,,,,
,,,,,R_2dcrbL6JgBCbV58,001,2025-08-17_20h10.49.213,continuous_performance_test,2024.2.4,Win32,60.0240096,79aa71e7-4f1b-4c00-ad1b-fb58860c0f7c,3,46.601,48.199,space,1,0.439,,0,23,23,12,1,M,space,,,,,,,,,,
,,,,,R_2dcrbL6JgBCbV58,001,2025-08-17_20h10.49.213,continuous_performance_test,2024.2.4,Win32,60.0240096,79aa71e7-4f1b-4c00-ad1b-fb58860c0f7c,3,48.202,50.098,space,0,0.418,,0,24,24,29,1,X,,,,,,,,,,,
,,,,,R_2dcrbL6JgBCbV58,001,2025-08-17_20h10.49.213,continuous_performance_test,2024.2.4,Win32,60.0240096,79aa71e7-4f1b-4c00-ad1b-fb58860c0f7c,3,50.101,52.047,space,1,0.467,,0,25,25,1,1,B,space,,,,,,,,,,
,,,,,R_2dcrbL6JgBCbV58,001,2025-08-17_20h10.49.213,continuous_performance_test,2024.2.4,Win32,60.0240096,79aa71e7-4f1b-4c00-ad1b-fb58860c0f7c,3,52.05,53.746,space,1,0.438,,0,26,26,18,1,S,space,,,,,,,,,,
,,,,,R_2dcrbL6JgBCbV58,001,2025-08-17_20h10.49.213,continuous_performance_test,2024.2.4,Win32,60.0240096,79aa71e7-4f1b-4c00-ad1b-fb58860c0f7c,3,53.752,55.446,space,1,0.52,,0,27,27,17,1,R,space,,,,,,,,,,
,,,,,R_2dcrbL6JgBCbV58,001,2025-08-17_20h10.49.213,continuous_performance_test,2024.2.4,Win32,60.0240096,79aa71e7-4f1b-4c00-ad1b-fb58860c0f7c,3,55.448,57.445,space,1,0.435,,0,28,28,5,1,F,space,,,,,,,,,,
,,,,,R_2dcrbL6JgBCbV58,001,2025-08-17_20h10.49.213,continuous_performance_test,2024.2.4,Win32,60.0240096,79aa71e7-4f1b-4c00-ad1b-fb58860c0f7c,3,57.449,59.095,space,1,0.515,,0,29,29,20,1,U,space,,,,,,,,,,
,,,,,R_2dcrbL6JgBCbV58,001,2025-08-17_20h10.49.213,continuous_performance_test,2024.2.4,Win32,60.0240096,79aa71e7-4f1b-4c00-ad1b-fb58860c0f7c,3,69.372,70.925,space,1,0.566,,0,0,0,15,1,P,space,59.095,69.358,space,10.227,,,,,,
,,,,,R_2dcrbL6JgBCbV58,001,2025-08-17_20h10.49.213,continuous_performance_test,2024.2.4,Win32,60.0240096,79aa71e7-4f1b-4c00-ad1b-fb58860c0f7c,3,70.929,72.573,space,1,0.434,,0,1,1,20,1,U,space,,,,,,,,,,
,,,,,R_2dcrbL6JgBCbV58,001,2025-08-17_20h10.49.213,continuous_performance_test,2024.2.4,Win32,60.0240096,79aa71e7-4f1b-4c00-ad1b-fb58860c0f7c,3,72.576,74.123,space,1,0.368,,0,2,2,23,1,Y,space,,,,,,,,,,
,,,,,R_2dcrbL6JgBCbV58,001,2025-08-17_20h10.49.213,continuous_performance_test,2024.2.4,Win32,60.0240096,79aa71e7-4f1b-4c00-ad1b-fb58860c0f7c,3,74.127,75.973,space,1,0.357,,0,3,3,9,1,J,space,,,,,,,,,,
,,,,,R_2dcrbL6JgBCbV58,001,2025-08-17_20h10.49.213,continuous_performance_test,2024.2.4,Win32,60.0240096,79aa71e7-4f1b-4c00-ad1b-fb58860c0f7c,3,75.977,77.772,space,1,0.384,,0,4,4,11,1,L,space,,,,,,,,,,
,,,,,R_2dcrbL6JgBCbV58,001,2025-08-17_20h10.49.213,continuous_performance_test,2024.2.4,Win32,60.0240096,79aa71e7-4f1b-4c00-ad1b-fb58860c0f7c,3,77.775,79.721,space,1,0.45,,0,5,5,2,1,C,space,,,,,,,,,,
,,,,,R_2dcrbL6JgBCbV58,001,2025-08-17_20h10.49.213,continuous_performance_test,2024.2.4,Win32,60.0240096,79aa71e7-4f1b-4c00-ad1b-fb58860c0f7c,3,79.726,81.671,space,1,0.42,,0,6,6,6,1,G,space,,,,,,,,,,
,,,,,R_2dcrbL6JgBCbV58,001,2025-08-17_20h10.49.213,continuous_performance_test,2024.2.4,Win32,60.0240096,79aa71e7-4f1b-4c00-ad1b-fb58860c0f7c,3,81.675,83.22,space,1,0.518,,0,7,7,10,1,K,space,,,,,,,,,,
,,,,,R_2dcrbL6JgBCbV58,001,2025-08-17_20h10.49.213,continuous_performance_test,2024.2.4,Win32,60.0240096,79aa71e7-4f1b-4c00-ad1b-fb58860c0f7c,3,83.222,85.219,,1,,,0,8,8,27,1,X,,,,,,,,,,,
,,,,,R_2dcrbL6JgBCbV58,001,2025-08-17_20h10.49.213,continuous_performance_test,2024.2.4,Win32,60.0240096,79aa71e7-4f1b-4c00-ad1b-fb58860c0f7c,3,85.221,86.919,space,1,0.434,,0,9,9,1,1,B,space,,,,,,,,,,
,,,,,R_2dcrbL6JgBCbV58,001,2025-08-17_20h10.49.213,continuous_performance_test,2024.2.4,Win32,60.0240096,79aa71e7-4f1b-4c00-ad1b-fb58860c0f7c,3,86.922,88.519,space,1,0.45,,0,10,10,19,1,T,space,,,,,,,,,,
,,,,,R_2dcrbL6JgBCbV58,001,2025-08-17_20h10.49.213,continuous_performance_test,2024.2.4,Win32,60.0240096,79aa71e7-4f1b-4c00-ad1b-fb58860c0f7c,3,88.521,90.367,space,1,0.5,,0,11,11,8,1,I,space,,,,,,,,,,
,,,,,R_2dcrbL6JgBCbV58,001,2025-08-17_20h10.49.213,continuous_performance_test,2024.2.4,Win32,60.0240096,79aa71e7-4f1b-4c00-ad1b-fb58860c0f7c,3,90.37,91.917,,1,,,0,12,12,29,1,X,,,,,,,,,,,
,,,,,R_2dcrbL6JgBCbV58,001,2025-08-17_20h10.49.213,continuous_performance_test,2024.2.4,Win32,60.0240096,79aa71e7-4f1b-4c00-ad1b-fb58860c0f7c,3,91.92,93.717,space,1,0.501,,0,13,13,3,1,D,space,,,,,,,,,,
,,,,,R_2dcrbL6JgBCbV58,001,2025-08-17_20h10.49.213,continuous_performance_test,2024.2.4,Win32,60.0240096,79aa71e7-4f1b-4c00-ad1b-fb58860c0f7c,3,93.719,95.666,space,1,0.501,,0,14,14,21,1,V,space,,,,,,,,,,
,,,,,R_2dcrbL6JgBCbV58,001,2025-08-17_20h10.49.213,continuous_performance_test,2024.2.4,Win32,60.0240096,79aa71e7-4f1b-4c00-ad1b-fb58860c0f7c,3,95.668,97.565,space,1,0.538,,0,15,15,7,1,H,space,,,,,,,,,,
,,,,,R_2dcrbL6JgBCbV58,001,2025-08-17_20h10.49.213,continuous_performance_test,2024.2.4,Win32,60.0240096,79aa71e7-4f1b-4c00-ad1b-fb58860c0f7c,3,97.567,99.365,,1,,,0,16,16,28,1,X,,,,,,,,,,,
,,,,,R_2dcrbL6JgBCbV58,001,2025-08-17_20h10.49.213,continuous_performance_test,2024.2.4,Win32,60.0240096,79aa71e7-4f1b-4c00-ad1b-fb58860c0f7c,3,99.366,101.364,,1,,,0,17,17,26,1,X,,,,,,,,,,,
,,,,,R_2dcrbL6JgBCbV58,001,2025-08-17_20h10.49.213,continuous_performance_test,2024.2.4,Win32,60.0240096,79aa71e7-4f1b-4c00-ad1b-fb58860c0f7c,3,101.369,102.914,space,1,0.484,,0,18,18,17,1,R,space,,,,,,,,,,
,,,,,R_2dcrbL6JgBCbV58,001,2025-08-17_20h10.49.213,continuous_performance_test,2024.2.4,Win32,60.0240096,79aa71e7-4f1b-4c00-ad1b-fb58860c0f7c,3,102.917,104.813,,1,,,0,19,19,25,1,X,,,,,,,,,,,
,,,,,R_2dcrbL6JgBCbV58,001,2025-08-17_20h10.49.213,continuous_performance_test,2024.2.4,Win32,60.0240096,79aa71e7-4f1b-4c00-ad1b-fb58860c0f7c,3,104.816,106.462,space,1,0.451,,0,20,20,13,1,N,space,,,,,,,,,,
,,,,,R_2dcrbL6JgBCbV58,001,2025-08-17_20h10.49.213,continuous_performance_test,2024.2.4,Win32,60.0240096,79aa71e7-4f1b-4c00-ad1b-fb58860c0f7c,3,106.466,108.262,space,1,0.602,,0,21,21,16,1,Q,space,,,,,,,,,,
,,,,,R_2dcrbL6JgBCbV58,001,2025-08-17_20h10.49.213,continuous_performance_test,2024.2.4,Win32,60.0240096,79aa71e7-4f1b-4c00-ad1b-fb58860c0f7c,3,108.265,110.261,space,1,0.554,,0,22,22,22,1,W,space,,,,,,,,,,
,,,,,R_2dcrbL6JgBCbV58,001,2025-08-17_20h10.49.213,continuous_performance_test,2024.2.4,Win32,60.0240096,79aa71e7-4f1b-4c00-ad1b-fb58860c0f7c,3,110.264,112.261,space,1,0.718,,0,23,23,5,1,F,space,,,,,,,,,,
,,,,,R_2dcrbL6JgBCbV58,001,2025-08-17_20h10.49.213,continuous_performance_test,2024.2.4,Win32,60.0240096,79aa71e7-4f1b-4c00-ad1b-fb58860c0f7c,3,112.263,114.159,space,1,0.502,,0,24,24,14,1,O,space,,,,,,,,,,
,,,,,R_2dcrbL6JgBCbV58,001,2025-08-17_20h10.49.213,continuous_performance_test,2024.2.4,Win32,60.0240096,79aa71e7-4f1b-4c00-ad1b-fb58860c0f7c,3,114.162,115.959,space,1,0.436,,0,25,25,4,1,E,space,,,,,,,,,,
,,,,,R_2dcrbL6JgBCbV58,001,2025-08-17_20h10.49.213,continuous_performance_test,2024.2.4,Win32,60.0240096,79aa71e7-4f1b-4c00-ad1b-fb58860c0f7c,3,115.961,117.708,space,1,0.65,,0,26,26,24,1,Z,space,,,,,,,,,,
,,,,,R_2dcrbL6JgBCbV58,001,2025-08-17_20h10.49.213,continuous_performance_test,2024.2.4,Win32,60.0240096,79aa71e7-4f1b-4c00-ad1b-fb58860c0f7c,3,117.711,119.558,space,1,0.535,,0,27,27,0,1,A,space,,,,,,,,,,
,,,,,R_2dcrbL6JgBCbV58,001,2025-08-17_20h10.49.213,continuous_performance_test,2024.2.4,Win32,60.0240096,79aa71e7-4f1b-4c00-ad1b-fb58860c0f7c,3,119.56,121.208,space,1,0.503,,0,28,28,12,1,M,space,,,,,,,,,,
,,,,,R_2dcrbL6JgBCbV58,001,2025-08-17_20h10.49.213,continuous_performance_test,2024.2.4,Win32,60.0240096,79aa71e7-4f1b-4c00-ad1b-fb58860c0f7c,3,121.209,123.157,space,1,0.418,,0,29,29,18,1,S,space,,,,,,,,,,
,,,,,R_2dcrbL6JgBCbV58,001,2025-08-17_20h10.49.213,continuous_performance_test,2024.2.4,Win32,60.0240096,79aa71e7-4f1b-4c00-ad1b-fb58860c0f7c,3,137.568,139.568,space,1,0.486,,0,0,0,10,1,K,space,123.16,137.553,space,14.362,,,,,,
,,,,,R_2dcrbL6JgBCbV58,001,2025-08-17_20h10.49.213,continuous_performance_test,2024.2.4,Win32,60.0240096,79aa71e7-4f1b-4c00-ad1b-fb58860c0f7c,3,139.572,141.567,space,1,0.385,,0,1,1,15,1,P,space,,,,,,,,,,
,,,,,R_2dcrbL6JgBCbV58,001,2025-08-17_20h10.49.213,continuous_performance_test,2024.2.4,Win32,60.0240096,79aa71e7-4f1b-4c00-ad1b-fb58860c0f7c,3,141.57,143.567,space,1,0.434,,0,2,2,4,1,E,space,,,,,,,,,,
,,,,,R_2dcrbL6JgBCbV58,001,2025-08-17_20h10.49.213,continuous_performance_test,2024.2.4,Win32,60.0240096,79aa71e7-4f1b-4c00-ad1b-fb58860c0f7c,3,143.569,145.316,space,1,0.401,,0,3,3,18,1,S,space,,,,,,,,,,
,,,,,R_2dcrbL6JgBCbV58,001,2025-08-17_20h10.49.213,continuous_performance_test,2024.2.4,Win32,60.0240096,79aa71e7-4f1b-4c00-ad1b-fb58860c0f7c,3,145.319,147.315,space,1,0.386,,0,4,4,14,1,O,space,,,,,,,,,,
,,,,,R_2dcrbL6JgBCbV58,001,2025-08-17_20h10.49.213,continuous_performance_test,2024.2.4,Win32,60.0240096,79aa71e7-4f1b-4c00-ad1b-fb58860c0f7c,3,147.319,148.965,space,1,0.588,,0,5,5,24,1,Z,space,,,,,,,,,,
,,,,,R_2dcrbL6JgBCbV58,001,2025-08-17_20h10.49.213,continuous_performance_test,2024.2.4,Win32,60.0240096,79aa71e7-4f1b-4c00-ad1b-fb58860c0f7c,3,148.967,150.914,space,1,0.584,,0,6,6,13,1,N,space,,,,,,,,,,
,,,,,R_2dcrbL6JgBCbV58,001,2025-08-17_20h10.49.213,continuous_performance_test,2024.2.4,Win32,60.0240096,79aa71e7-4f1b-4c00-ad1b-fb58860c0f7c,3,150.917,152.866,space,1,0.452,,0,7,7,16,1,Q,space,,,,,,,,,,
,,,,,R_2dcrbL6JgBCbV58,001,2025-08-17_20h10.49.213,continuous_performance_test,2024.2.4,Win32,60.0240096,79aa71e7-4f1b-4c00-ad1b-fb58860c0f7c,3,152.868,154.813,space,1,0.404,,0,8,8,20,1,U,space,,,,,,,,,,
,,,,,R_2dcrbL6JgBCbV58,001,2025-08-17_20h10.49.213,continuous_performance_test,2024.2.4,Win32,60.0240096,79aa71e7-4f1b-4c00-ad1b-fb58860c0f7c,3,154.817,156.562,space,0,0.403,,0,9,9,25,1,X,,,,,,,,,,,
,,,,,R_2dcrbL6JgBCbV58,001,2025-08-17_20h10.49.213,continuous_performance_test,2024.2.4,Win32,60.0240096,79aa71e7-4f1b-4c00-ad1b-fb58860c0f7c,3,156.565,158.361,space,1,0.385,,0,10,10,6,1,G,space,,,,,,,,,,
,,,,,R_2dcrbL6JgBCbV58,001,2025-08-17_20h10.49.213,continuous_performance_test,2024.2.4,Win32,60.0240096,79aa71e7-4f1b-4c00-ad1b-fb58860c0f7c,3,158.364,160.211,,1,,,0,11,11,29,1,X,,,,,,,,,,,
,,,,,R_2dcrbL6JgBCbV58,001,2025-08-17_20h10.49.213,continuous_performance_test,2024.2.4,Win32,60.0240096,79aa71e7-4f1b-4c00-ad1b-fb58860c0f7c,3,160.212,162.21,,1,,,0,12,12,28,1,X,,,,,,,,,,,
,,,,,R_2dcrbL6JgBCbV58,001,2025-08-17_20h10.49.213,continuous_performance_test,2024.2.4,Win32,60.0240096,79aa71e7-4f1b-4c00-ad1b-fb58860c0f7c,3,162.211,163.91,,1,,,0,13,13,27,1,X,,,,,,,,,,,
,,,,,R_2dcrbL6JgBCbV58,001,2025-08-17_20h10.49.213,continuous_performance_test,2024.2.4,Win32,60.0240096,79aa71e7-4f1b-4c00-ad1b-fb58860c0f7c,3,163.912,165.609,space,1,0.501,,0,14,14,3,1,D,space,,,,,,,,,,
,,,,,R_2dcrbL6JgBCbV58,001,2025-08-17_20h10.49.213,continuous_performance_test,2024.2.4,Win32,60.0240096,79aa71e7-4f1b-4c00-ad1b-fb58860c0f7c,3,165.615,167.209,space,1,0.569,,0,15,15,21,1,V,space,,,,,,,,,,
,,,,,R_2dcrbL6JgBCbV58,001,2025-08-17_20h10.49.213,continuous_performance_test,2024.2.4,Win32,60.0240096,79aa71e7-4f1b-4c00-ad1b-fb58860c0f7c,3,167.211,169.208,,1,,,0,16,16,26,1,X,,,,,,,,,,,
,,,,,R_2dcrbL6JgBCbV58,001,2025-08-17_20h10.49.213,continuous_performance_test,2024.2.4,Win32,60.0240096,79aa71e7-4f1b-4c00-ad1b-fb58860c0f7c,3,169.21,170.957,space,1,0.469,,0,17,17,23,1,Y,space,,,,,,,,,,
,,,,,R_2dcrbL6JgBCbV58,001,2025-08-17_20h10.49.213,continuous_performance_test,2024.2.4,Win32,60.0240096,79aa71e7-4f1b-4c00-ad1b-fb58860c0f7c,3,170.96,172.556,space,1,0.468,,0,18,18,2,1,C,space,,,,,,,,,,
,,,,,R_2dcrbL6JgBCbV58,001,2025-08-17_20h10.49.213,continuous_performance_test,2024.2.4,Win32,60.0240096,79aa71e7-4f1b-4c00-ad1b-fb58860c0f7c,3,172.559,174.256,space,1,0.516,,0,19,19,11,1,L,space,,,,,,,,,,
,,,,,R_2dcrbL6JgBCbV58,001,2025-08-17_20h10.49.213,continuous_performance_test,2024.2.4,Win32,60.0240096,79aa71e7-4f1b-4c00-ad1b-fb58860c0f7c,3,174.26,176.055,space,1,0.504,,0,20,20,1,1,B,space,,,,,,,,,,
,,,,,R_2dcrbL6JgBCbV58,001,2025-08-17_20h10.49.213,continuous_performance_test,2024.2.4,Win32,60.0240096,79aa71e7-4f1b-4c00-ad1b-fb58860c0f7c,3,176.057,177.755,space,1,0.45,,0,21,21,7,1,H,space,,,,,,,,,,
,,,,,R_2dcrbL6JgBCbV58,001,2025-08-17_20h10.49.213,continuous_performance_test,2024.2.4,Win32,60.0240096,79aa71e7-4f1b-4c00-ad1b-fb58860c0f7c,3,177.757,179.304,space,1,0.585,,0,22,22,8,1,I,space,,,,,,,,,,
,,,,,R_2dcrbL6JgBCbV58,001,2025-08-17_20h10.49.213,continuous_performance_test,2024.2.4,Win32,60.0240096,79aa71e7-4f1b-4c00-ad1b-fb58860c0f7c,3,179.306,180.854,space,1,0.521,,0,23,23,12,1,M,space,,,,,,,,,,
,,,,,R_2dcrbL6JgBCbV58,001,2025-08-17_20h10.49.213,continuous_performance_test,2024.2.4,Win32,60.0240096,79aa71e7-4f1b-4c00-ad1b-fb58860c0f7c,3,180.856,182.853,space,1,0.451,,0,24,24,9,1,J,space,,,,,,,,,,
,,,,,R_2dcrbL6JgBCbV58,001,2025-08-17_20h10.49.213,continuous_performance_test,2024.2.4,Win32,60.0240096,79aa71e7-4f1b-4c00-ad1b-fb58860c0f7c,3,182.856,184.652,space,1,0.499,,0,25,25,22,1,W,space,,,,,,,,,,
,,,,,R_2dcrbL6JgBCbV58,001,2025-08-17_20h10.49.213,continuous_performance_test,2024.2.4,Win32,60.0240096,79aa71e7-4f1b-4c00-ad1b-fb58860c0f7c,3,184.655,186.352,space,1,0.404,,0,26,26,19,1,T,space,,,,,,,,,,
,,,,,R_2dcrbL6JgBCbV58,001,2025-08-17_20h10.49.213,continuous_performance_test,2024.2.4,Win32,60.0240096,79aa71e7-4f1b-4c00-ad1b-fb58860c0f7c,3,186.354,188.302,space,1,0.37,,0,27,27,5,1,F,space,,,,,,,,,,
,,,,,R_2dcrbL6JgBCbV58,001,2025-08-17_20h10.49.213,continuous_performance_test,2024.2.4,Win32,60.0240096,79aa71e7-4f1b-4c00-ad1b-fb58860c0f7c,3,188.305,190.001,space,1,0.416,,0,28,28,17,1,R,space,,,,,,,,,,
,,,,,R_2dcrbL6JgBCbV58,001,2025-08-17_20h10.49.213,continuous_performance_test,2024.2.4,Win32,60.0240096,79aa71e7-4f1b-4c00-ad1b-fb58860c0f7c,3,190.003,191.6,space,1,0.403,,0,29,29,0,1,A,space,,,,,,,,,,
,,,,,R_2dcrbL6JgBCbV58,001,2025-08-17_20h10.49.213,continuous_performance_test,2024.2.4,Win32,60.0240096,79aa71e7-4f1b-4c00-ad1b-fb58860c0f7c,3,204.625,206.312,space,1,0.421,,0,0,0,0,1,A,space,191.602,204.598,space,12.967,,,,,,
,,,,,R_2dcrbL6JgBCbV58,001,2025-08-17_20h10.49.213,continuous_performance_test,2024.2.4,Win32,60.0240096,79aa71e7-4f1b-4c00-ad1b-fb58860c0f7c,3,206.317,207.997,space,1,0.47,,0,1,1,18,1,S,space,,,,,,,,,,
,,,,,R_2dcrbL6JgBCbV58,001,2025-08-17_20h10.49.213,continuous_performance_test,2024.2.4,Win32,60.0240096,79aa71e7-4f1b-4c00-ad1b-fb58860c0f7c,3,207.998,209.644,space,0,0.449,,0,2,2,25,1,X,,,,,,,,,,,
,,,,,R_2dcrbL6JgBCbV58,001,2025-08-17_20h10.49.213,continuous_performance_test,2024.2.4,Win32,60.0240096,79aa71e7-4f1b-4c00-ad1b-fb58860c0f7c,3,209.647,211.193,space,1,0.427,,0,3,3,16,1,Q,space,,,,,,,,,,
,,,,,R_2dcrbL6JgBCbV58,001,2025-08-17_20h10.49.213,continuous_performance_test,2024.2.4,Win32,60.0240096,79aa71e7-4f1b-4c00-ad1b-fb58860c0f7c,3,211.199,213.143,space,1,0.635,,0,4,4,2,1,C,space,,,,,,,,,,
,,,,,R_2dcrbL6JgBCbV58,001,2025-08-17_20h10.49.213,continuous_performance_test,2024.2.4,Win32,60.0240096,79aa71e7-4f1b-4c00-ad1b-fb58860c0f7c,3,213.147,214.942,space,1,0.431,,0,5,5,20,1,U,space,,,,,,,,,,
,,,,,R_2dcrbL6JgBCbV58,001,2025-08-17_20h10.49.213,continuous_performance_test,2024.2.4,Win32,60.0240096,79aa71e7-4f1b-4c00-ad1b-fb58860c0f7c,3,214.948,216.791,,1,,,0,6,6,27,1,X,,,,,,,,,,,
,,,,,R_2dcrbL6JgBCbV58,001,2025-08-17_20h10.49.213,continuous_performance_test,2024.2.4,Win32,60.0240096,79aa71e7-4f1b-4c00-ad1b-fb58860c0f7c,3,216.796,218.791,space,1,0.465,,0,7,7,23,1,Y,space,,,,,,,,,,
,,,,,R_2dcrbL6JgBCbV58,001,2025-08-17_20h10.49.213,continuous_performance_test,2024.2.4,Win32,60.0240096,79aa71e7-4f1b-4c00-ad1b-fb58860c0f7c,3,218.796,220.541,space,1,0.434,,0,8,8,14,1,O,space,,,,,,,,,,
,,,,,R_2dcrbL6JgBCbV58,001,2025-08-17_20h10.49.213,continuous_performance_test,2024.2.4,Win32,60.0240096,79aa71e7-4f1b-4c00-ad1b-fb58860c0f7c,3,220.544,222.39,,1,,,0,9,9,28,1,X,,,,,,,,,,,
,,,,,R_2dcrbL6JgBCbV58,001,2025-08-17_20h10.49.213,continuous_performance_test,2024.2.4,Win32,60.0240096,79aa71e7-4f1b-4c00-ad1b-fb58860c0f7c,3,222.395,224.039,space,1,0.401,,0,10,10,4,1,E,space,,,,,,,,,,
,,,,,R_2dcrbL6JgBCbV58,001,2025-08-17_20h10.49.213,continuous_performance_test,2024.2.4,Win32,60.0240096,79aa71e7-4f1b-4c00-ad1b-fb58860c0f7c,3,224.045,225.589,space,1,0.486,,0,11,11,7,1,H,space,,,,,,,,,,
,,,,,R_2dcrbL6JgBCbV58,001,2025-08-17_20h10.49.213,continuous_performance_test,2024.2.4,Win32,60.0240096,79aa71e7-4f1b-4c00-ad1b-fb58860c0f7c,3,225.595,227.238,space,1,0.521,,0,12,12,13,1,N,space,,,,,,,,,,
,,,,,R_2dcrbL6JgBCbV58,001,2025-08-17_20h10.49.213,continuous_performance_test,2024.2.4,Win32,60.0240096,79aa71e7-4f1b-4c00-ad1b-fb58860c0f7c,3,227.242,229.188,space,1,0.617,,0,13,13,21,1,V,space,,,,,,,,,,
,,,,,R_2dcrbL6JgBCbV58,001,2025-08-17_20h10.49.213,continuous_performance_test,2024.2.4,Win32,60.0240096,79aa71e7-4f1b-4c00-ad1b-fb58860c0f7c,3,229.192,230.937,space,1,0.481,,0,14,14,15,1,P,space,,,,,,,,,,
,,,,,R_2dcrbL6JgBCbV58,001,2025-08-17_20h10.49.213,continuous_performance_test,2024.2.4,Win32,60.0240096,79aa71e7-4f1b-4c00-ad1b-fb58860c0f7c,3,230.945,232.537,space,1,0.504,,0,15,15,9,1,J,space,,,,,,,,,,
,,,,,R_2dcrbL6JgBCbV58,001,2025-08-17_20h10.49.213,continuous_performance_test,2024.2.4,Win32,60.0240096,79aa71e7-4f1b-4c00-ad1b-fb58860c0f7c,3,232.541,234.336,space,0,0.432,,0,16,16,26,1,X,,,,,,,,,,,
,,,,,R_2dcrbL6JgBCbV58,001,2025-08-17_20h10.49.213,continuous_performance_test,2024.2.4,Win32,60.0240096,79aa71e7-4f1b-4c00-ad1b-fb58860c0f7c,3,234.342,235.935,space,1,0.381,,0,17,17,6,1,G,space,,,,,,,,,,
,,,,,R_2dcrbL6JgBCbV58,001,2025-08-17_20h10.49.213,continuous_performance_test,2024.2.4,Win32,60.0240096,79aa71e7-4f1b-4c00-ad1b-fb58860c0f7c,3,235.94,237.685,space,1,0.471,,0,18,18,11,1,L,space,,,,,,,,,,
,,,,,R_2dcrbL6JgBCbV58,001,2025-08-17_20h10.49.213,continuous_performance_test,2024.2.4,Win32,60.0240096,79aa71e7-4f1b-4c00-ad1b-fb58860c0f7c,3,237.689,239.685,space,1,0.567,,0,19,19,5,1,F,space,,,,,,,,,,
,,,,,R_2dcrbL6JgBCbV58,001,2025-08-17_20h10.49.213,continuous_performance_test,2024.2.4,Win32,60.0240096,79aa71e7-4f1b-4c00-ad1b-fb58860c0f7c,3,239.689,241.683,space,1,0.603,,0,20,20,24,1,Z,space,,,,,,,,,,
,,,,,R_2dcrbL6JgBCbV58,001,2025-08-17_20h10.49.213,continuous_performance_test,2024.2.4,Win32,60.0240096,79aa71e7-4f1b-4c00-ad1b-fb58860c0f7c,3,241.687,243.435,space,1,0.569,,0,21,21,22,1,W,space,,,,,,,,,,
,,,,,R_2dcrbL6JgBCbV58,001,2025-08-17_20h10.49.213,continuous_performance_test,2024.2.4,Win32,60.0240096,79aa71e7-4f1b-4c00-ad1b-fb58860c0f7c,3,243.444,245.082,space,1,0.434,,0,22,22,3,1,D,space,,,,,,,,,,
,,,,,R_2dcrbL6JgBCbV58,001,2025-08-17_20h10.49.213,continuous_performance_test,2024.2.4,Win32,60.0240096,79aa71e7-4f1b-4c00-ad1b-fb58860c0f7c,3,245.089,246.832,space,1,0.485,,0,23,23,10,1,K,space,,,,,,,,,,
,,,,,R_2dcrbL6JgBCbV58,001,2025-08-17_20h10.49.213,continuous_performance_test,2024.2.4,Win32,60.0240096,79aa71e7-4f1b-4c00-ad1b-fb58860c0f7c,3,246.833,248.581,space,1,0.468,,0,24,24,19,1,T,space,,,,,,,,,,
,,,,,R_2dcrbL6JgBCbV58,001,2025-08-17_20h10.49.213,continuous_performance_test,2024.2.4,Win32,60.0240096,79aa71e7-4f1b-4c00-ad1b-fb58860c0f7c,3,248.586,250.58,space,1,0.408,,0,25,25,12,1,M,space,,,,,,,,,,
,,,,,R_2dcrbL6JgBCbV58,001,2025-08-17_20h10.49.213,continuous_performance_test,2024.2.4,Win32,60.0240096,79aa71e7-4f1b-4c00-ad1b-fb58860c0f7c,3,250.587,252.531,space,1,0.467,,0,26,26,8,1,I,space,,,,,,,,,,
,,,,,R_2dcrbL6JgBCbV58,001,2025-08-17_20h10.49.213,continuous_performance_test,2024.2.4,Win32,60.0240096,79aa71e7-4f1b-4c00-ad1b-fb58860c0f7c,3,252.537,254.379,space,0,0.401,,0,27,27,29,1,X,,,,,,,,,,,
,,,,,R_2dcrbL6JgBCbV58,001,2025-08-17_20h10.49.213,continuous_performance_test,2024.2.4,Win32,60.0240096,79aa71e7-4f1b-4c00-ad1b-fb58860c0f7c,3,254.385,256.329,space,1,0.364,,0,28,28,17,1,R,space,,,,,,,,,,
,,,,,R_2dcrbL6JgBCbV58,001,2025-08-17_20h10.49.213,continuous_performance_test,2024.2.4,Win32,60.0240096,79aa71e7-4f1b-4c00-ad1b-fb58860c0f7c,3,256.334,258.228,space,1,0.472,,0,29,29,1,1,B,space,,,,,,,,,,
,,,,,R_2dcrbL6JgBCbV58,001,2025-08-17_20h10.49.213,continuous_performance_test,2024.2.4,Win32,60.0240096,79aa71e7-4f1b-4c00-ad1b-fb58860c0f7c,3,266.891,268.642,space,1,0.513,,0,0,0,10,1,K,space,258.23,266.876,space,8.615,,,,,,
,,,,,R_2dcrbL6JgBCbV58,001,2025-08-17_20h10.49.213,continuous_performance_test,2024.2.4,Win32,60.0240096,79aa71e7-4f1b-4c00-ad1b-fb58860c0f7c,3,268.649,270.54,space,1,0.475,,0,1,1,8,1,I,space,,,,,,,,,,
,,,,,R_2dcrbL6JgBCbV58,001,2025-08-17_20h10.49.213,continuous_performance_test,2024.2.4,Win32,60.0240096,79aa71e7-4f1b-4c00-ad1b-fb58860c0f7c,3,270.545,272.139,space,1,0.388,,0,2,2,14,1,O,space,,,,,,,,,,
,,,,,R_2dcrbL6JgBCbV58,001,2025-08-17_20h10.49.213,continuous_performance_test,2024.2.4,Win32,60.0240096,79aa71e7-4f1b-4c00-ad1b-fb58860c0f7c,3,272.142,273.84,space,1,0.389,,0,3,3,3,1,D,space,,,,,,,,,,
,,,,,R_2dcrbL6JgBCbV58,001,2025-08-17_20h10.49.213,continuous_performance_test,2024.2.4,Win32,60.0240096,79aa71e7-4f1b-4c00-ad1b-fb58860c0f7c,3,273.844,275.789,space,1,0.368,,0,4,4,18,1,S,space,,,,,,,,,,
,,,,,R_2dcrbL6JgBCbV58,001,2025-08-17_20h10.49.213,continuous_performance_test,2024.2.4,Win32,60.0240096,79aa71e7-4f1b-4c00-ad1b-fb58860c0f7c,3,275.793,277.737,space,1,0.42,,0,5,5,19,1,T,space,,,,,,,,,,
,,,,,R_2dcrbL6JgBCbV58,001,2025-08-17_20h10.49.213,continuous_performance_test,2024.2.4,Win32,60.0240096,79aa71e7-4f1b-4c00-ad1b-fb58860c0f7c,3,277.742,279.287,space,1,0.485,,0,6,6,23,1,Y,space,,,,,,,,,,
,,,,,R_2dcrbL6JgBCbV58,001,2025-08-17_20h10.49.213,continuous_performance_test,2024.2.4,Win32,60.0240096,79aa71e7-4f1b-4c00-ad1b-fb58860c0f7c,3,279.292,281.187,space,1,0.419,,0,7,7,9,1,J,space,,,,,,,,,,
,,,,,R_2dcrbL6JgBCbV58,001,2025-08-17_20h10.49.213,continuous_performance_test,2024.2.4,Win32,60.0240096,79aa71e7-4f1b-4c00-ad1b-fb58860c0f7c,3,281.192,283.086,space,1,0.553,,0,8,8,24,1,Z,space,,,,,,,,,,
,,,,,R_2dcrbL6JgBCbV58,001,2025-08-17_20h10.49.213,continuous_performance_test,2024.2.4,Win32,60.0240096,79aa71e7-4f1b-4c00-ad1b-fb58860c0f7c,3,283.089,284.935,space,1,0.549,,0,9,9,22,1,W,space,,,,,,,,,,
,,,,,R_2dcrbL6JgBCbV58,001,2025-08-17_20h10.49.213,continuous_performance_test,2024.2.4,Win32,60.0240096,79aa71e7-4f1b-4c00-ad1b-fb58860c0f7c,3,284.939,286.789,space,1,0.551,,0,10,10,15,1,P,space,,,,,,,,,,
,,,,,R_2dcrbL6JgBCbV58,001,2025-08-17_20h10.49.213,continuous_performance_test,2024.2.4,Win32,60.0240096,79aa71e7-4f1b-4c00-ad1b-fb58860c0f7c,3,286.79,288.584,space,1,0.398,,0,11,11,1,1,B,space,,,,,,,,,,
,,,,,R_2dcrbL6JgBCbV58,001,2025-08-17_20h10.49.213,continuous_performance_test,2024.2.4,Win32,60.0240096,79aa71e7-4f1b-4c00-ad1b-fb58860c0f7c,3,288.588,290.434,space,1,0.385,,0,12,12,21,1,V,space,,,,,,,,,,
,,,,,R_2dcrbL6JgBCbV58,001,2025-08-17_20h10.49.213,continuous_performance_test,2024.2.4,Win32,60.0240096,79aa71e7-4f1b-4c00-ad1b-fb58860c0f7c,3,290.439,292.382,space,1,0.382,,0,13,13,5,1,F,space,,,,,,,,,,
,,,,,R_2dcrbL6JgBCbV58,001,2025-08-17_20h10.49.213,continuous_performance_test,2024.2.4,Win32,60.0240096,79aa71e7-4f1b-4c00-ad1b-fb58860c0f7c,3,292.387,294.133,space,1,0.427,,0,14,14,2,1,C,space,,,,,,,,,,
,,,,,R_2dcrbL6JgBCbV58,001,2025-08-17_20h10.49.213,continuous_performance_test,2024.2.4,Win32,60.0240096,79aa71e7-4f1b-4c00-ad1b-fb58860c0f7c,3,294.139,295.732,space,1,0.467,,0,15,15,6,1,G,space,,,,,,,,,,
,,,,,R_2dcrbL6JgBCbV58,001,2025-08-17_20h10.49.213,continuous_performance_test,2024.2.4,Win32,60.0240096,79aa71e7-4f1b-4c00-ad1b-fb58860c0f7c,3,295.736,297.731,space,1,0.449,,0,16,16,4,1,E,space,,,,,,,,,,
,,,,,R_2dcrbL6JgBCbV58,001,2025-08-17_20h10.49.213,continuous_performance_test,2024.2.4,Win32,60.0240096,79aa71e7-4f1b-4c00-ad1b-fb58860c0f7c,3,297.737,299.381,space,0,0.418,,0,17,17,26,1,X,,,,,,,,,,,
,,,,,R_2dcrbL6JgBCbV58,001,2025-08-17_20h10.49.213,continuous_performance_test,2024.2.4,Win32,60.0240096,79aa71e7-4f1b-4c00-ad1b-fb58860c0f7c,3,299.384,301.33,,1,,,0,18,18,28,1,X,,,,,,,,,,,
,,,,,R_2dcrbL6JgBCbV58,001,2025-08-17_20h10.49.213,continuous_performance_test,2024.2.4,Win32,60.0240096,79aa71e7-4f1b-4c00-ad1b-fb58860c0f7c,3,301.336,302.98,space,1,0.499,,0,19,19,20,1,U,space,,,,,,,,,,
,,,,,R_2dcrbL6JgBCbV58,001,2025-08-17_20h10.49.213,continuous_performance_test,2024.2.4,Win32,60.0240096,79aa71e7-4f1b-4c00-ad1b-fb58860c0f7c,3,302.986,304.679,space,1,0.524,,0,20,20,0,1,A,space,,,,,,,,,,
,,,,,R_2dcrbL6JgBCbV58,001,2025-08-17_20h10.49.213,continuous_performance_test,2024.2.4,Win32,60.0240096,79aa71e7-4f1b-4c00-ad1b-fb58860c0f7c,3,304.683,306.478,space,1,0.504,,0,21,21,12,1,M,space,,,,,,,,,,
,,,,,R_2dcrbL6JgBCbV58,001,2025-08-17_20h10.49.213,continuous_performance_test,2024.2.4,Win32,60.0240096,79aa71e7-4f1b-4c00-ad1b-fb58860c0f7c,3,306.481,308.077,,1,,,0,22,22,27,1,X,,,,,,,,,,,
,,,,,R_2dcrbL6JgBCbV58,001,2025-08-17_20h10.49.213,continuous_performance_test,2024.2.4,Win32,60.0240096,79aa71e7-4f1b-4c00-ad1b-fb58860c0f7c,3,308.084,309.677,space,1,0.469,,0,23,23,7,1,H,space,,,,,,,,,,
,,,,,R_2dcrbL6JgBCbV58,001,2025-08-17_20h10.49.213,continuous_performance_test,2024.2.4,Win32,60.0240096,79aa71e7-4f1b-4c00-ad1b-fb58860c0f7c,3,309.682,311.626,space,1,0.536,,0,24,24,11,1,L,space,,,,,,,,,,
,,,,,R_2dcrbL6JgBCbV58,001,2025-08-17_20h10.49.213,continuous_performance_test,2024.2.4,Win32,60.0240096,79aa71e7-4f1b-4c00-ad1b-fb58860c0f7c,3,311.631,313.425,space,1,0.416,,0,25,25,17,1,R,space,,,,,,,,,,
,,,,,R_2dcrbL6JgBCbV58,001,2025-08-17_20h10.49.213,continuous_performance_test,2024.2.4,Win32,60.0240096,79aa71e7-4f1b-4c00-ad1b-fb58860c0f7c,3,313.431,315.175,space,1,0.433,,0,26,26,13,1,N,space,,,,,,,,,,
,,,,,R_2dcrbL6JgBCbV58,001,2025-08-17_20h10.49.213,continuous_performance_test,2024.2.4,Win32,60.0240096,79aa71e7-4f1b-4c00-ad1b-fb58860c0f7c,3,315.178,316.875,space,1,0.435,,0,27,27,16,1,Q,space,,,,,,,,,,
,,,,,R_2dcrbL6JgBCbV58,001,2025-08-17_20h10.49.213,continuous_performance_test,2024.2.4,Win32,60.0240096,79aa71e7-4f1b-4c00-ad1b-fb58860c0f7c,3,316.879,318.724,,1,,,0,28,28,25,1,X,,,,,,,,,,,
,,,,,R_2dcrbL6JgBCbV58,001,2025-08-17_20h10.49.213,continuous_performance_test,2024.2.4,Win32,60.0240096,79aa71e7-4f1b-4c00-ad1b-fb58860c0f7c,3,318.728,320.523,,1,,,0,29,29,29,1,X,,,,,,,,,,,
,,,,,R_2dcrbL6JgBCbV58,001,2025-08-17_20h10.49.213,continuous_performance_test,2024.2.4,Win32,60.0240096,79aa71e7-4f1b-4c00-ad1b-fb58860c0f7c,3,335.561,337.252,space,1,0.501,,0,0,0,20,1,U,space,320.526,335.52,,,,,,,,
,,,,,R_2dcrbL6JgBCbV58,001,2025-08-17_20h10.49.213,continuous_performance_test,2024.2.4,Win32,60.0240096,79aa71e7-4f1b-4c00-ad1b-fb58860c0f7c,3,337.257,339.205,space,1,0.524,,0,1,1,13,1,N,space,,,,,,,,,,
,,,,,R_2dcrbL6JgBCbV58,001,2025-08-17_20h10.49.213,continuous_performance_test,2024.2.4,Win32,60.0240096,79aa71e7-4f1b-4c00-ad1b-fb58860c0f7c,3,339.207,340.751,space,1,0.517,,0,2,2,10,1,K,space,,,,,,,,,,
,,,,,R_2dcrbL6JgBCbV58,001,2025-08-17_20h10.49.213,continuous_performance_test,2024.2.4,Win32,60.0240096,79aa71e7-4f1b-4c00-ad1b-fb58860c0f7c,3,340.757,342.35,space,1,0.414,,0,3,3,22,1,W,space,,,,,,,,,,
,,,,,R_2dcrbL6JgBCbV58,001,2025-08-17_20h10.49.213,continuous_performance_test,2024.2.4,Win32,60.0240096,79aa71e7-4f1b-4c00-ad1b-fb58860c0f7c,3,342.356,344.149,space,0,0.382,,0,4,4,27,1,X,,,,,,,,,,,
,,,,,R_2dcrbL6JgBCbV58,001,2025-08-17_20h10.49.213,continuous_performance_test,2024.2.4,Win32,60.0240096,79aa71e7-4f1b-4c00-ad1b-fb58860c0f7c,3,344.154,345.849,space,1,0.403,,0,5,5,11,1,L,space,,,,,,,,,,
,,,,,R_2dcrbL6JgBCbV58,001,2025-08-17_20h10.49.213,continuous_performance_test,2024.2.4,Win32,60.0240096,79aa71e7-4f1b-4c00-ad1b-fb58860c0f7c,3,345.853,347.498,space,1,0.436,,0,6,6,19,1,T,space,,,,,,,,,,
,,,,,R_2dcrbL6JgBCbV58,001,2025-08-17_20h10.49.213,continuous_performance_test,2024.2.4,Win32,60.0240096,79aa71e7-4f1b-4c00-ad1b-fb58860c0f7c,3,347.502,349.497,,1,,,0,7,7,26,1,X,,,,,,,,,,,
,,,,,R_2dcrbL6JgBCbV58,001,2025-08-17_20h10.49.213,continuous_performance_test,2024.2.4,Win32,60.0240096,79aa71e7-4f1b-4c00-ad1b-fb58860c0f7c,3,349.501,351.296,space,0,0.469,,0,8,8,29,1,X,,,,,,,,,,,
,,,,,R_2dcrbL6JgBCbV58,001,2025-08-17_20h10.49.213,continuous_performance_test,2024.2.4,Win32,60.0240096,79aa71e7-4f1b-4c00-ad1b-fb58860c0f7c,3,351.3,353.296,space,1,0.465,,0,9,9,23,1,Y,space,,,,,,,,,,
,,,,,R_2dcrbL6JgBCbV58,001,2025-08-17_20h10.49.213,continuous_performance_test,2024.2.4,Win32,60.0240096,79aa71e7-4f1b-4c00-ad1b-fb58860c0f7c,3,353.3,355.045,space,1,0.434,,0,10,10,14,1,O,space,,,,,,,,,,
,,,,,R_2dcrbL6JgBCbV58,001,2025-08-17_20h10.49.213,continuous_performance_test,2024.2.4,Win32,60.0240096,79aa71e7-4f1b-4c00-ad1b-fb58860c0f7c,3,355.05,356.796,space,1,0.482,,0,11,11,12,1,M,space,,,,,,,,,,
,,,,,R_2dcrbL6JgBCbV58,001,2025-08-17_20h10.49.213,continuous_performance_test,2024.2.4,Win32,60.0240096,79aa71e7-4f1b-4c00-ad1b-fb58860c0f7c,3,356.805,358.794,space,1,0.449,,0,12,12,3,1,D,space,,,,,,,,,,
,,,,,R_2dcrbL6JgBCbV58,001,2025-08-17_20h10.49.213,continuous_performance_test,2024.2.4,Win32,60.0240096,79aa71e7-4f1b-4c00-ad1b-fb58860c0f7c,3,358.798,360.494,space,1,0.435,,0,13,13,6,1,G,space,,,,,,,,,,
,,,,,R_2dcrbL6JgBCbV58,001,2025-08-17_20h10.49.213,continuous_performance_test,2024.2.4,Win32,60.0240096,79aa71e7-4f1b-4c00-ad1b-fb58860c0f7c,3,360.499,362.493,space,1,0.512,,0,14,14,21,1,V,space,,,,,,,,,,
,,,,,R_2dcrbL6JgBCbV58,001,2025-08-17_20h10.49.213,continuous_performance_test,2024.2.4,Win32,60.0240096,79aa71e7-4f1b-4c00-ad1b-fb58860c0f7c,3,362.498,364.043,space,1,0.516,,0,15,15,7,1,H,space,,,,,,,,,,
,,,,,R_2dcrbL6JgBCbV58,001,2025-08-17_20h10.49.213,continuous_performance_test,2024.2.4,Win32,60.0240096,79aa71e7-4f1b-4c00-ad1b-fb58860c0f7c,3,364.048,365.792,space,1,0.616,,0,16,16,2,1,C,space,,,,,,,,,,
,,,,,R_2dcrbL6JgBCbV58,001,2025-08-17_20h10.49.213,continuous_performance_test,2024.2.4,Win32,60.0240096,79aa71e7-4f1b-4c00-ad1b-fb58860c0f7c,3,365.798,367.44,space,1,0.418,,0,17,17,15,1,P,space,,,,,,,,,,
,,,,,R_2dcrbL6JgBCbV58,001,2025-08-17_20h10.49.213,continuous_performance_test,2024.2.4,Win32,60.0240096,79aa71e7-4f1b-4c00-ad1b-fb58860c0f7c,3,367.444,369.34,space,1,0.416,,0,18,18,16,1,Q,space,,,,,,,,,,
,,,,,R_2dcrbL6JgBCbV58,001,2025-08-17_20h10.49.213,continuous_performance_test,2024.2.4,Win32,60.0240096,79aa71e7-4f1b-4c00-ad1b-fb58860c0f7c,3,369.345,371.098,space,1,0.47,,0,19,19,5,1,F,space,,,,,,,,,,
,,,,,R_2dcrbL6JgBCbV58,001,2025-08-17_20h10.49.213,continuous_performance_test,2024.2.4,Win32,60.0240096,79aa71e7-4f1b-4c00-ad1b-fb58860c0f7c,3,371.102,372.94,space,1,0.467,,0,20,20,9,1,J,space,,,,,,,,,,
,,,,,R_2dcrbL6JgBCbV58,001,2025-08-17_20h10.49.213,continuous_performance_test,2024.2.4,Win32,60.0240096,79aa71e7-4f1b-4c00-ad1b-fb58860c0f7c,3,372.943,374.738,space,1,0.442,,0,21,21,17,1,R,space,,,,,,,,,,
,,,,,R_2dcrbL6JgBCbV58,001,2025-08-17_20h10.49.213,continuous_performance_test,2024.2.4,Win32,60.0240096,79aa71e7-4f1b-4c00-ad1b-fb58860c0f7c,3,374.744,376.487,space,1,0.389,,0,22,22,0,1,A,space,,,,,,,,,,
,,,,,R_2dcrbL6JgBCbV58,001,2025-08-17_20h10.49.213,continuous_performance_test,2024.2.4,Win32,60.0240096,79aa71e7-4f1b-4c00-ad1b-fb58860c0f7c,3,376.491,378.188,space,1,0.448,,0,23,23,1,1,B,space,,,,,,,,,,
,,,,,R_2dcrbL6JgBCbV58,001,2025-08-17_20h10.49.213,continuous_performance_test,2024.2.4,Win32,60.0240096,79aa71e7-4f1b-4c00-ad1b-fb58860c0f7c,3,378.192,380.037,,1,,,0,24,24,28,1,X,,,,,,,,,,,
,,,,,R_2dcrbL6JgBCbV58,001,2025-08-17_20h10.49.213,continuous_performance_test,2024.2.4,Win32,60.0240096,79aa71e7-4f1b-4c00-ad1b-fb58860c0f7c,3,380.04,381.587,space,1,0.466,,0,25,25,18,1,S,space,,,,,,,,,,
,,,,,R_2dcrbL6JgBCbV58,001,2025-08-17_20h10.49.213,continuous_performance_test,2024.2.4,Win32,60.0240096,79aa71e7-4f1b-4c00-ad1b-fb58860c0f7c,3,381.591,383.235,space,1,0.581,,0,26,26,4,1,E,space,,,,,,,,,,
,,,,,R_2dcrbL6JgBCbV58,001,2025-08-17_20h10.49.213,continuous_performance_test,2024.2.4,Win32,60.0240096,79aa71e7-4f1b-4c00-ad1b-fb58860c0f7c,3,383.239,385.035,space,1,0.46,,0,27,27,8,1,I,space,,,,,,,,,,
,,,,,R_2dcrbL6JgBCbV58,001,2025-08-17_20h10.49.213,continuous_performance_test,2024.2.4,Win32,60.0240096,79aa71e7-4f1b-4c00-ad1b-fb58860c0f7c,3,385.038,386.684,,1,,,0,28,28,25,1,X,,,,,,,,,,,
,,,,,R_2dcrbL6JgBCbV58,001,2025-08-17_20h10.49.213,continuous_performance_test,2024.2.4,Win32,60.0240096,79aa71e7-4f1b-4c00-ad1b-fb58860c0f7c,3,386.687,388.233,space,1,0.618,,0,29,29,24,1,Z,space,,,,,,,,,,
,,,,,R_2dcrbL6JgBCbV58,001,2025-08-17_20h10.49.213,continuous_performance_test,2024.2.4,Win32,60.0240096,79aa71e7-4f1b-4c00-ad1b-fb58860c0f7c,3,403.27,405.212,space,1,0.517,,0,0,0,8,1,I,space,388.236,403.231,,,,,,,,
,,,,,R_2dcrbL6JgBCbV58,001,2025-08-17_20h10.49.213,continuous_performance_test,2024.2.4,Win32,60.0240096,79aa71e7-4f1b-4c00-ad1b-fb58860c0f7c,3,405.218,406.861,space,1,0.498,,0,1,1,5,1,F,space,,,,,,,,,,
,,,,,R_2dcrbL6JgBCbV58,001,2025-08-17_20h10.49.213,continuous_performance_test,2024.2.4,Win32,60.0240096,79aa71e7-4f1b-4c00-ad1b-fb58860c0f7c,3,406.865,408.461,space,1,0.433,,0,2,2,12,1,M,space,,,,,,,,,,
,,,,,R_2dcrbL6JgBCbV58,001,2025-08-17_20h10.49.213,continuous_performance_test,2024.2.4,Win32,60.0240096,79aa71e7-4f1b-4c00-ad1b-fb58860c0f7c,3,408.463,410.209,space,1,0.382,,0,3,3,6,1,G,space,,,,,,,,,,
,,,,,R_2dcrbL6JgBCbV58,001,2025-08-17_20h10.49.213,continuous_performance_test,2024.2.4,Win32,60.0240096,79aa71e7-4f1b-4c00-ad1b-fb58860c0f7c,3,410.215,411.91,space,1,0.419,,0,4,4,11,1,L,space,,,,,,,,,,
,,,,,R_2dcrbL6JgBCbV58,001,2025-08-17_20h10.49.213,continuous_performance_test,2024.2.4,Win32,60.0240096,79aa71e7-4f1b-4c00-ad1b-fb58860c0f7c,3,411.913,413.908,space,1,0.433,,0,5,5,17,1,R,space,,,,,,,,,,
,,,,,R_2dcrbL6JgBCbV58,001,2025-08-17_20h10.49.213,continuous_performance_test,2024.2.4,Win32,60.0240096,79aa71e7-4f1b-4c00-ad1b-fb58860c0f7c,3,413.912,415.458,space,1,0.417,,0,6,6,7,1,H,space,,,,,,,,,,
,,,,,R_2dcrbL6JgBCbV58,001,2025-08-17_20h10.49.213,continuous_performance_test,2024.2.4,Win32,60.0240096,79aa71e7-4f1b-4c00-ad1b-fb58860c0f7c,3,415.462,417.257,space,1,0.467,,0,7,7,0,1,A,space,,,,,,,,,,
,,,,,R_2dcrbL6JgBCbV58,001,2025-08-17_20h10.49.213,continuous_performance_test,2024.2.4,Win32,60.0240096,79aa71e7-4f1b-4c00-ad1b-fb58860c0f7c,3,417.263,418.856,space,1,0.401,,0,8,8,4,1,E,space,,,,,,,,,,
,,,,,R_2dcrbL6JgBCbV58,001,2025-08-17_20h10.49.213,continuous_performance_test,2024.2.4,Win32,60.0240096,79aa71e7-4f1b-4c00-ad1b-fb58860c0f7c,3,418.86,420.856,space,1,0.45,,0,9,9,15,1,P,space,,,,,,,,,,
,,,,,R_2dcrbL6JgBCbV58,001,2025-08-17_20h10.49.213,continuous_performance_test,2024.2.4,Win32,60.0240096,79aa71e7-4f1b-4c00-ad1b-fb58860c0f7c,3,420.861,422.756,space,0,0.417,,0,10,10,27,1,X,,,,,,,,,,,
,,,,,R_2dcrbL6JgBCbV58,001,2025-08-17_20h10.49.213,continuous_performance_test,2024.2.4,Win32,60.0240096,79aa71e7-4f1b-4c00-ad1b-fb58860c0f7c,3,422.761,424.354,space,0,0.407,,0,11,11,26,1,X,,,,,,,,,,,
,,,,,R_2dcrbL6JgBCbV58,001,2025-08-17_20h10.49.213,continuous_performance_test,2024.2.4,Win32,60.0240096,79aa71e7-4f1b-4c00-ad1b-fb58860c0f7c,3,424.358,426.255,space,1,0.465,,0,12,12,22,1,W,space,,,,,,,,,,
,,,,,R_2dcrbL6JgBCbV58,001,2025-08-17_20h10.49.213,continuous_performance_test,2024.2.4,Win32,60.0240096,79aa71e7-4f1b-4c00-ad1b-fb58860c0f7c,3,426.259,428.004,,1,,,0,13,13,25,1,X,,,,,,,,,,,
,,,,,R_2dcrbL6JgBCbV58,001,2025-08-17_20h10.49.213,continuous_performance_test,2024.2.4,Win32,60.0240096,79aa71e7-4f1b-4c00-ad1b-fb58860c0f7c,3,428.007,429.803,space,1,0.4,,0,14,14,9,1,J,space,,,,,,,,,,
,,,,,R_2dcrbL6JgBCbV58,001,2025-08-17_20h10.49.213,continuous_performance_test,2024.2.4,Win32,60.0240096,79aa71e7-4f1b-4c00-ad1b-fb58860c0f7c,3,429.808,431.503,,1,,,0,15,15,28,1,X,,,,,,,,,,,
,,,,,R_2dcrbL6JgBCbV58,001,2025-08-17_20h10.49.213,continuous_performance_test,2024.2.4,Win32,60.0240096,79aa71e7-4f1b-4c00-ad1b-fb58860c0f7c,3,431.507,433.352,,1,,,0,16,16,29,1,X,,,,,,,,,,,
,,,,,R_2dcrbL6JgBCbV58,001,2025-08-17_20h10.49.213,continuous_performance_test,2024.2.4,Win32,60.0240096,79aa71e7-4f1b-4c00-ad1b-fb58860c0f7c,3,433.357,435.251,space,1,0.485,,0,17,17,19,1,T,space,,,,,,,,,,
,,,,,R_2dcrbL6JgBCbV58,001,2025-08-17_20h10.49.213,continuous_performance_test,2024.2.4,Win32,60.0240096,79aa71e7-4f1b-4c00-ad1b-fb58860c0f7c,3,435.257,436.951,space,1,0.532,,0,18,18,20,1,U,space,,,,,,,,,,
,,,,,R_2dcrbL6JgBCbV58,001,2025-08-17_20h10.49.213,continuous_performance_test,2024.2.4,Win32,60.0240096,79aa71e7-4f1b-4c00-ad1b-fb58860c0f7c,3,436.956,438.75,space,1,0.453,,0,19,19,18,1,S,space,,,,,,,,,,
,,,,,R_2dcrbL6JgBCbV58,001,2025-08-17_20h10.49.213,continuous_performance_test,2024.2.4,Win32,60.0240096,79aa71e7-4f1b-4c00-ad1b-fb58860c0f7c,3,438.756,440.749,space,1,0.664,,0,20,20,16,1,Q,space,,,,,,,,,,
,,,,,R_2dcrbL6JgBCbV58,001,2025-08-17_20h10.49.213,continuous_performance_test,2024.2.4,Win32,60.0240096,79aa71e7-4f1b-4c00-ad1b-fb58860c0f7c,3,440.755,442.749,space,1,0.485,,0,21,21,24,1,Z,space,,,,,,,,,,
,,,,,R_2dcrbL6JgBCbV58,001,2025-08-17_20h10.49.213,continuous_performance_test,2024.2.4,Win32,60.0240096,79aa71e7-4f1b-4c00-ad1b-fb58860c0f7c,3,442.754,444.748,space,1,0.518,,0,22,22,3,1,D,space,,,,,,,,,,
,,,,,R_2dcrbL6JgBCbV58,001,2025-08-17_20h10.49.213,continuous_performance_test,2024.2.4,Win32,60.0240096,79aa71e7-4f1b-4c00-ad1b-fb58860c0f7c,3,444.752,446.548,space,1,0.52,,0,23,23,1,1,B,space,,,,,,,,,,
,,,,,R_2dcrbL6JgBCbV58,001,2025-08-17_20h10.49.213,continuous_performance_test,2024.2.4,Win32,60.0240096,79aa71e7-4f1b-4c00-ad1b-fb58860c0f7c,3,446.553,448.552,space,1,0.385,,0,24,24,14,1,O,space,,,,,,,,,,
,,,,,R_2dcrbL6JgBCbV58,001,2025-08-17_20h10.49.213,continuous_performance_test,2024.2.4,Win32,60.0240096,79aa71e7-4f1b-4c00-ad1b-fb58860c0f7c,3,448.554,450.446,space,1,0.518,,0,25,25,21,1,V,space,,,,,,,,,,
,,,,,R_2dcrbL6JgBCbV58,001,2025-08-17_20h10.49.213,continuous_performance_test,2024.2.4,Win32,60.0240096,79aa71e7-4f1b-4c00-ad1b-fb58860c0f7c,3,450.45,451.995,space,1,0.475,,0,26,26,13,1,N,space,,,,,,,,,,
,,,,,R_2dcrbL6JgBCbV58,001,2025-08-17_20h10.49.213,continuous_performance_test,2024.2.4,Win32,60.0240096,79aa71e7-4f1b-4c00-ad1b-fb58860c0f7c,3,452,453.795,space,1,0.409,,0,27,27,2,1,C,space,,,,,,,,,,
,,,,,R_2dcrbL6JgBCbV58,001,2025-08-17_20h10.49.213,continuous_performance_test,2024.2.4,Win32,60.0240096,79aa71e7-4f1b-4c00-ad1b-fb58860c0f7c,3,453.799,455.744,space,1,0.383,,0,28,28,10,1,K,space,,,,,,,,,,
,,,,,R_2dcrbL6JgBCbV58,001,2025-08-17_20h10.49.213,continuous_performance_test,2024.2.4,Win32,60.0240096,79aa71e7-4f1b-4c00-ad1b-fb58860c0f7c,3,455.75,457.744,space,1,0.666,,0,29,29,23,1,Y,space,,,,,,,,,,
,,,,,R_2dcrbL6JgBCbV58,001,2025-08-17_20h10.49.213,continuous_performance_test,2024.2.4,Win32,60.0240096,79aa71e7-4f1b-4c00-ad1b-fb58860c0f7c,3,472.78,474.322,space,1,0.552,,0,0,0,21,1,V,space,457.748,472.739,,,,,,,,
,,,,,R_2dcrbL6JgBCbV58,001,2025-08-17_20h10.49.213,continuous_performance_test,2024.2.4,Win32,60.0240096,79aa71e7-4f1b-4c00-ad1b-fb58860c0f7c,3,474.327,475.971,space,1,0.466,,0,1,1,15,1,P,space,,,,,,,,,,
,,,,,R_2dcrbL6JgBCbV58,001,2025-08-17_20h10.49.213,continuous_performance_test,2024.2.4,Win32,60.0240096,79aa71e7-4f1b-4c00-ad1b-fb58860c0f7c,3,475.977,477.77,space,1,0.483,,0,2,2,6,1,G,space,,,,,,,,,,
,,,,,R_2dcrbL6JgBCbV58,001,2025-08-17_20h10.49.213,continuous_performance_test,2024.2.4,Win32,60.0240096,79aa71e7-4f1b-4c00-ad1b-fb58860c0f7c,3,477.774,479.52,space,1,0.401,,0,3,3,7,1,H,space,,,,,,,,,,
,,,,,R_2dcrbL6JgBCbV58,001,2025-08-17_20h10.49.213,continuous_performance_test,2024.2.4,Win32,60.0240096,79aa71e7-4f1b-4c00-ad1b-fb58860c0f7c,3,479.523,481.169,space,0,0.419,,0,4,4,26,1,X,,,,,,,,,,,
,,,,,R_2dcrbL6JgBCbV58,001,2025-08-17_20h10.49.213,continuous_performance_test,2024.2.4,Win32,60.0240096,79aa71e7-4f1b-4c00-ad1b-fb58860c0f7c,3,481.173,482.909,space,0,0.387,,0,5,5,29,1,X,,,,,,,,,,,
,,,,,R_2dcrbL6JgBCbV58,001,2025-08-17_20h10.49.213,continuous_performance_test,2024.2.4,Win32,60.0240096,79aa71e7-4f1b-4c00-ad1b-fb58860c0f7c,3,482.914,484.451,space,1,0.532,,0,6,6,11,1,L,space,,,,,,,,,,
,,,,,R_2dcrbL6JgBCbV58,001,2025-08-17_20h10.49.213,continuous_performance_test,2024.2.4,Win32,60.0240096,79aa71e7-4f1b-4c00-ad1b-fb58860c0f7c,3,484.456,486.101,space,0,0.469,,0,7,7,25,1,X,,,,,,,,,,,
,,,,,R_2dcrbL6JgBCbV58,001,2025-08-17_20h10.49.213,continuous_performance_test,2024.2.4,Win32,60.0240096,79aa71e7-4f1b-4c00-ad1b-fb58860c0f7c,3,486.106,488.051,space,1,0.461,,0,8,8,2,1,C,space,,,,,,,,,,
,,,,,R_2dcrbL6JgBCbV58,001,2025-08-17_20h10.49.213,continuous_performance_test,2024.2.4,Win32,60.0240096,79aa71e7-4f1b-4c00-ad1b-fb58860c0f7c,3,488.057,489.849,space,1,0.501,,0,9,9,3,1,D,space,,,,,,,,,,
,,,,,R_2dcrbL6JgBCbV58,001,2025-08-17_20h10.49.213,continuous_performance_test,2024.2.4,Win32,60.0240096,79aa71e7-4f1b-4c00-ad1b-fb58860c0f7c,3,489.855,491.499,space,1,0.516,,0,10,10,17,1,R,space,,,,,,,,,,
,,,,,R_2dcrbL6JgBCbV58,001,2025-08-17_20h10.49.213,continuous_performance_test,2024.2.4,Win32,60.0240096,79aa71e7-4f1b-4c00-ad1b-fb58860c0f7c,3,491.505,493.494,space,1,0.432,,0,11,11,19,1,T,space,,,,,,,,,,
,,,,,R_2dcrbL6JgBCbV58,001,2025-08-17_20h10.49.213,continuous_performance_test,2024.2.4,Win32,60.0240096,79aa71e7-4f1b-4c00-ad1b-fb58860c0f7c,3,493.496,495.047,space,1,0.45,,0,12,12,1,1,B,space,,,,,,,,,,
,,,,,R_2dcrbL6JgBCbV58,001,2025-08-17_20h10.49.213,continuous_performance_test,2024.2.4,Win32,60.0240096,79aa71e7-4f1b-4c00-ad1b-fb58860c0f7c,3,495.05,496.648,space,0,0.414,,0,13,13,27,1,X,,,,,,,,,,,
,,,,,R_2dcrbL6JgBCbV58,001,2025-08-17_20h10.49.213,continuous_performance_test,2024.2.4,Win32,60.0240096,79aa71e7-4f1b-4c00-ad1b-fb58860c0f7c,3,496.655,498.397,space,1,0.414,,0,14,14,10,1,K,space,,,,,,,,,,
,,,,,R_2dcrbL6JgBCbV58,001,2025-08-17_20h10.49.213,continuous_performance_test,2024.2.4,Win32,60.0240096,79aa71e7-4f1b-4c00-ad1b-fb58860c0f7c,3,498.404,500.296,space,1,0.474,,0,15,15,23,1,Y,space,,,,,,,,,,
,,,,,R_2dcrbL6JgBCbV58,001,2025-08-17_20h10.49.213,continuous_performance_test,2024.2.4,Win32,60.0240096,79aa71e7-4f1b-4c00-ad1b-fb58860c0f7c,3,500.3,502.196,space,1,0.48,,0,16,16,4,1,E,space,,,,,,,,,,
,,,,,R_2dcrbL6JgBCbV58,001,2025-08-17_20h10.49.213,continuous_performance_test,2024.2.4,Win32,60.0240096,79aa71e7-4f1b-4c00-ad1b-fb58860c0f7c,3,502.199,504.045,,1,,,0,17,17,28,1,X,,,,,,,,,,,
,,,,,R_2dcrbL6JgBCbV58,001,2025-08-17_20h10.49.213,continuous_performance_test,2024.2.4,Win32,60.0240096,79aa71e7-4f1b-4c00-ad1b-fb58860c0f7c,3,504.05,505.947,space,1,0.417,,0,18,18,0,1,A,space,,,,,,,,,,
,,,,,R_2dcrbL6JgBCbV58,001,2025-08-17_20h10.49.213,continuous_performance_test,2024.2.4,Win32,60.0240096,79aa71e7-4f1b-4c00-ad1b-fb58860c0f7c,3,505.953,507.594,space,1,0.537,,0,19,19,12,1,M,space,,,,,,,,,,
,,,,,R_2dcrbL6JgBCbV58,001,2025-08-17_20h10.49.213,continuous_performance_test,2024.2.4,Win32,60.0240096,79aa71e7-4f1b-4c00-ad1b-fb58860c0f7c,3,507.598,509.343,space,1,0.416,,0,20,20,18,1,S,space,,,,,,,,,,
,,,,,R_2dcrbL6JgBCbV58,001,2025-08-17_20h10.49.213,continuous_performance_test,2024.2.4,Win32,60.0240096,79aa71e7-4f1b-4c00-ad1b-fb58860c0f7c,3,509.347,510.992,space,1,0.534,,0,21,21,14,1,O,space,,,,,,,,,,
,,,,,R_2dcrbL6JgBCbV58,001,2025-08-17_20h10.49.213,continuous_performance_test,2024.2.4,Win32,60.0240096,79aa71e7-4f1b-4c00-ad1b-fb58860c0f7c,3,510.996,512.642,space,1,0.549,,0,22,22,24,1,Z,space,,,,,,,,,,
,,,,,R_2dcrbL6JgBCbV58,001,2025-08-17_20h10.49.213,continuous_performance_test,2024.2.4,Win32,60.0240096,79aa71e7-4f1b-4c00-ad1b-fb58860c0f7c,3,512.645,514.441,space,1,0.553,,0,23,23,5,1,F,space,,,,,,,,,,
,,,,,R_2dcrbL6JgBCbV58,001,2025-08-17_20h10.49.213,continuous_performance_test,2024.2.4,Win32,60.0240096,79aa71e7-4f1b-4c00-ad1b-fb58860c0f7c,3,514.446,515.99,space,1,0.606,,0,24,24,9,1,J,space,,,,,,,,,,
,,,,,R_2dcrbL6JgBCbV58,001,2025-08-17_20h10.49.213,continuous_performance_test,2024.2.4,Win32,60.0240096,79aa71e7-4f1b-4c00-ad1b-fb58860c0f7c,3,515.995,517.69,space,1,0.524,,0,25,25,22,1,W,space,,,,,,,,,,
,,,,,R_2dcrbL6JgBCbV58,001,2025-08-17_20h10.49.213,continuous_performance_test,2024.2.4,Win32,60.0240096,79aa71e7-4f1b-4c00-ad1b-fb58860c0f7c,3,517.692,519.34,space,1,0.437,,0,26,26,16,1,Q,space,,,,,,,,,,
,,,,,R_2dcrbL6JgBCbV58,001,2025-08-17_20h10.49.213,continuous_performance_test,2024.2.4,Win32,60.0240096,79aa71e7-4f1b-4c00-ad1b-fb58860c0f7c,3,519.349,521.089,space,1,0.449,,0,27,27,13,1,N,space,,,,,,,,,,
,,,,,R_2dcrbL6JgBCbV58,001,2025-08-17_20h10.49.213,continuous_performance_test,2024.2.4,Win32,60.0240096,79aa71e7-4f1b-4c00-ad1b-fb58860c0f7c,3,521.094,522.838,space,1,0.54,,0,28,28,20,1,U,space,,,,,,,,,,
,,,,,R_2dcrbL6JgBCbV58,001,2025-08-17_20h10.49.213,continuous_performance_test,2024.2.4,Win32,60.0240096,79aa71e7-4f1b-4c00-ad1b-fb58860c0f7c,3,522.841,524.388,space,1,0.598,,0,29,29,8,1,I,space,,,,,,,,,,
,,,,,R_2dcrbL6JgBCbV58,001,2025-08-17_20h10.49.213,continuous_performance_test,2024.2.4,Win32,60.0240096,79aa71e7-4f1b-4c00-ad1b-fb58860c0f7c,3,539.407,541.348,space,1,0.498,,0,0,0,2,1,C,space,524.395,539.383,,,,,,,,
,,,,,R_2dcrbL6JgBCbV58,001,2025-08-17_20h10.49.213,continuous_performance_test,2024.2.4,Win32,60.0240096,79aa71e7-4f1b-4c00-ad1b-fb58860c0f7c,3,541.352,543.098,space,1,0.564,,0,1,1,3,1,D,space,,,,,,,,,,
,,,,,R_2dcrbL6JgBCbV58,001,2025-08-17_20h10.49.213,continuous_performance_test,2024.2.4,Win32,60.0240096,79aa71e7-4f1b-4c00-ad1b-fb58860c0f7c,3,543.101,545.047,space,1,0.483,,0,2,2,17,1,R,space,,,,,,,,,,
,,,,,R_2dcrbL6JgBCbV58,001,2025-08-17_20h10.49.213,continuous_performance_test,2024.2.4,Win32,60.0240096,79aa71e7-4f1b-4c00-ad1b-fb58860c0f7c,3,545.051,546.747,,1,,,0,3,3,26,1,X,,,,,,,,,,,
,,,,,R_2dcrbL6JgBCbV58,001,2025-08-17_20h10.49.213,continuous_performance_test,2024.2.4,Win32,60.0240096,79aa71e7-4f1b-4c00-ad1b-fb58860c0f7c,3,546.75,548.346,space,1,0.567,,0,4,4,16,1,Q,space,,,,,,,,,,
,,,,,R_2dcrbL6JgBCbV58,001,2025-08-17_20h10.49.213,continuous_performance_test,2024.2.4,Win32,60.0240096,79aa71e7-4f1b-4c00-ad1b-fb58860c0f7c,3,548.35,550.346,space,1,0.652,,0,5,5,21,1,V,space,,,,,,,,,,
,,,,,R_2dcrbL6JgBCbV58,001,2025-08-17_20h10.49.213,continuous_performance_test,2024.2.4,Win32,60.0240096,79aa71e7-4f1b-4c00-ad1b-fb58860c0f7c,3,550.35,551.945,space,1,0.62,,0,6,6,18,1,S,space,,,,,,,,,,
,,,,,R_2dcrbL6JgBCbV58,001,2025-08-17_20h10.49.213,continuous_performance_test,2024.2.4,Win32,60.0240096,79aa71e7-4f1b-4c00-ad1b-fb58860c0f7c,3,551.949,553.794,space,1,0.618,,0,7,7,9,1,J,space,,,,,,,,,,
,,,,,R_2dcrbL6JgBCbV58,001,2025-08-17_20h10.49.213,continuous_performance_test,2024.2.4,Win32,60.0240096,79aa71e7-4f1b-4c00-ad1b-fb58860c0f7c,3,553.797,555.346,space,1,0.541,,0,8,8,23,1,Y,space,,,,,,,,,,
,,,,,R_2dcrbL6JgBCbV58,001,2025-08-17_20h10.49.213,continuous_performance_test,2024.2.4,Win32,60.0240096,79aa71e7-4f1b-4c00-ad1b-fb58860c0f7c,3,555.352,557.194,space,1,0.483,,0,9,9,6,1,G,space,,,,,,,,,,
,,,,,R_2dcrbL6JgBCbV58,001,2025-08-17_20h10.49.213,continuous_performance_test,2024.2.4,Win32,60.0240096,79aa71e7-4f1b-4c00-ad1b-fb58860c0f7c,3,557.197,558.843,space,1,0.487,,0,10,10,5,1,F,space,,,,,,,,,,
,,,,,R_2dcrbL6JgBCbV58,001,2025-08-17_20h10.49.213,continuous_performance_test,2024.2.4,Win32,60.0240096,79aa71e7-4f1b-4c00-ad1b-fb58860c0f7c,3,558.848,560.842,space,1,0.716,,0,11,11,12,1,M,space,,,,,,,,,,
,,,,,R_2dcrbL6JgBCbV58,001,2025-08-17_20h10.49.213,continuous_performance_test,2024.2.4,Win32,60.0240096,79aa71e7-4f1b-4c00-ad1b-fb58860c0f7c,3,560.846,562.391,space,1,0.632,,0,12,12,8,1,I,space,,,,,,,,,,
,,,,,R_2dcrbL6JgBCbV58,001,2025-08-17_20h10.49.213,continuous_performance_test,2024.2.4,Win32,60.0240096,79aa71e7-4f1b-4c00-ad1b-fb58860c0f7c,3,562.397,563.991,,1,,,0,13,13,27,1,X,,,,,,,,,,,
,,,,,R_2dcrbL6JgBCbV58,001,2025-08-17_20h10.49.213,continuous_performance_test,2024.2.4,Win32,60.0240096,79aa71e7-4f1b-4c00-ad1b-fb58860c0f7c,3,563.995,565.946,,1,,,0,14,14,25,1,X,,,,,,,,,,,
,,,,,R_2dcrbL6JgBCbV58,001,2025-08-17_20h10.49.213,continuous_performance_test,2024.2.4,Win32,60.0240096,79aa71e7-4f1b-4c00-ad1b-fb58860c0f7c,3,565.947,567.84,space,1,0.65,,0,15,15,7,1,H,space,,,,,,,,,,
,,,,,R_2dcrbL6JgBCbV58,001,2025-08-17_20h10.49.213,continuous_performance_test,2024.2.4,Win32,60.0240096,79aa71e7-4f1b-4c00-ad1b-fb58860c0f7c,3,567.844,569.39,space,1,0.62,,0,16,16,14,1,O,space,,,,,,,,,,
,,,,,R_2dcrbL6JgBCbV58,001,2025-08-17_20h10.49.213,continuous_performance_test,2024.2.4,Win32,60.0240096,79aa71e7-4f1b-4c00-ad1b-fb58860c0f7c,3,569.393,570.938,space,1,0.782,,0,17,17,10,1,K,space,,,,,,,,,,
,,,,,R_2dcrbL6JgBCbV58,001,2025-08-17_20h10.49.213,continuous_performance_test,2024.2.4,Win32,60.0240096,79aa71e7-4f1b-4c00-ad1b-fb58860c0f7c,3,570.941,572.738,,1,,,0,18,18,29,1,X,,,,,,,,,,,
,,,,,R_2dcrbL6JgBCbV58,001,2025-08-17_20h10.49.213,continuous_performance_test,2024.2.4,Win32,60.0240096,79aa71e7-4f1b-4c00-ad1b-fb58860c0f7c,3,572.743,574.288,space,1,0.653,,0,19,19,4,1,E,space,,,,,,,,,,
,,,,,R_2dcrbL6JgBCbV58,001,2025-08-17_20h10.49.213,continuous_performance_test,2024.2.4,Win32,60.0240096,79aa71e7-4f1b-4c00-ad1b-fb58860c0f7c,3,574.293,575.988,space,1,0.588,,0,20,20,11,1,L,space,,,,,,,,,,
,,,,,R_2dcrbL6JgBCbV58,001,2025-08-17_20h10.49.213,continuous_performance_test,2024.2.4,Win32,60.0240096,79aa71e7-4f1b-4c00-ad1b-fb58860c0f7c,3,575.992,577.637,space,1,0.77,,0,21,21,1,1,B,space,,,,,,,,,,
,,,,,R_2dcrbL6JgBCbV58,001,2025-08-17_20h10.49.213,continuous_performance_test,2024.2.4,Win32,60.0240096,79aa71e7-4f1b-4c00-ad1b-fb58860c0f7c,3,577.639,579.386,space,1,0.648,,0,22,22,22,1,W,space,,,,,,,,,,
,,,,,R_2dcrbL6JgBCbV58,001,2025-08-17_20h10.49.213,continuous_performance_test,2024.2.4,Win32,60.0240096,79aa71e7-4f1b-4c00-ad1b-fb58860c0f7c,3,579.389,581.385,space,1,0.684,,0,23,23,13,1,N,space,,,,,,,,,,
,,,,,R_2dcrbL6JgBCbV58,001,2025-08-17_20h10.49.213,continuous_performance_test,2024.2.4,Win32,60.0240096,79aa71e7-4f1b-4c00-ad1b-fb58860c0f7c,3,581.389,583.285,space,1,0.619,,0,24,24,19,1,T,space,,,,,,,,,,
,,,,,R_2dcrbL6JgBCbV58,001,2025-08-17_20h10.49.213,continuous_performance_test,2024.2.4,Win32,60.0240096,79aa71e7-4f1b-4c00-ad1b-fb58860c0f7c,3,583.289,585.134,space,1,0.649,,0,25,25,15,1,P,space,,,,,,,,,,
,,,,,R_2dcrbL6JgBCbV58,001,2025-08-17_20h10.49.213,continuous_performance_test,2024.2.4,Win32,60.0240096,79aa71e7-4f1b-4c00-ad1b-fb58860c0f7c,3,585.138,587.083,space,1,0.618,,0,26,26,20,1,U,space,,,,,,,,,,
,,,,,R_2dcrbL6JgBCbV58,001,2025-08-17_20h10.49.213,continuous_performance_test,2024.2.4,Win32,60.0240096,79aa71e7-4f1b-4c00-ad1b-fb58860c0f7c,3,587.088,588.984,,1,,,0,27,27,28,1,X,,,,,,,,,,,
,,,,,R_2dcrbL6JgBCbV58,001,2025-08-17_20h10.49.213,continuous_performance_test,2024.2.4,Win32,60.0240096,79aa71e7-4f1b-4c00-ad1b-fb58860c0f7c,3,588.991,590.982,space,1,0.683,,0,28,28,24,1,Z,space,,,,,,,,,,
,,,,,R_2dcrbL6JgBCbV58,001,2025-08-17_20h10.49.213,continuous_performance_test,2024.2.4,Win32,60.0240096,79aa71e7-4f1b-4c00-ad1b-fb58860c0f7c,3,590.986,592.882,space,1,0.563,,0,29,29,0,1,A,space,,,,,,,,,,
,,,,,R_2dcrbL6JgBCbV58,001,2025-08-17_20h10.49.213,continuous_performance_test,2024.2.4,Win32,60.0240096,79aa71e7-4f1b-4c00-ad1b-fb58860c0f7c,3,607.892,609.693,space,1,0.633,,0,0,0,11,1,L,space,592.886,607.876,,,,,,,,
,,,,,R_2dcrbL6JgBCbV58,001,2025-08-17_20h10.49.213,continuous_performance_test,2024.2.4,Win32,60.0240096,79aa71e7-4f1b-4c00-ad1b-fb58860c0f7c,3,609.696,611.692,space,1,0.603,,0,1,1,9,1,J,space,,,,,,,,,,
,,,,,R_2dcrbL6JgBCbV58,001,2025-08-17_20h10.49.213,continuous_performance_test,2024.2.4,Win32,60.0240096,79aa71e7-4f1b-4c00-ad1b-fb58860c0f7c,3,611.695,613.341,space,1,0.532,,0,2,2,4,1,E,space,,,,,,,,,,
,,,,,R_2dcrbL6JgBCbV58,001,2025-08-17_20h10.49.213,continuous_performance_test,2024.2.4,Win32,60.0240096,79aa71e7-4f1b-4c00-ad1b-fb58860c0f7c,3,613.347,615.34,space,1,0.55,,0,3,3,19,1,T,space,,,,,,,,,,
,,,,,R_2dcrbL6JgBCbV58,001,2025-08-17_20h10.49.213,continuous_performance_test,2024.2.4,Win32,60.0240096,79aa71e7-4f1b-4c00-ad1b-fb58860c0f7c,3,615.344,617.19,,1,,,0,4,4,26,1,X,,,,,,,,,,,
,,,,,R_2dcrbL6JgBCbV58,001,2025-08-17_20h10.49.213,continuous_performance_test,2024.2.4,Win32,60.0240096,79aa71e7-4f1b-4c00-ad1b-fb58860c0f7c,3,617.194,618.94,space,1,0.594,,0,5,5,7,1,H,space,,,,,,,,,,
,,,,,R_2dcrbL6JgBCbV58,001,2025-08-17_20h10.49.213,continuous_performance_test,2024.2.4,Win32,60.0240096,79aa71e7-4f1b-4c00-ad1b-fb58860c0f7c,3,618.948,620.889,space,1,0.518,,0,6,6,21,1,V,space,,,,,,,,,,
,,,,,R_2dcrbL6JgBCbV58,001,2025-08-17_20h10.49.213,continuous_performance_test,2024.2.4,Win32,60.0240096,79aa71e7-4f1b-4c00-ad1b-fb58860c0f7c,3,620.892,622.438,space,1,0.517,,0,7,7,14,1,O,space,,,,,,,,,,
,,,,,R_2dcrbL6JgBCbV58,001,2025-08-17_20h10.49.213,continuous_performance_test,2024.2.4,Win32,60.0240096,79aa71e7-4f1b-4c00-ad1b-fb58860c0f7c,3,622.442,624.337,space,1,0.512,,0,8,8,17,1,R,space,,,,,,,,,,
,,,,,R_2dcrbL6JgBCbV58,001,2025-08-17_20h10.49.213,continuous_performance_test,2024.2.4,Win32,60.0240096,79aa71e7-4f1b-4c00-ad1b-fb58860c0f7c,3,624.343,625.937,space,1,0.546,,0,9,9,12,1,M,space,,,,,,,,,,
,,,,,R_2dcrbL6JgBCbV58,001,2025-08-17_20h10.49.213,continuous_performance_test,2024.2.4,Win32,60.0240096,79aa71e7-4f1b-4c00-ad1b-fb58860c0f7c,3,625.94,627.637,space,1,0.485,,0,10,10,10,1,K,space,,,,,,,,,,
,,,,,R_2dcrbL6JgBCbV58,001,2025-08-17_20h10.49.213,continuous_performance_test,2024.2.4,Win32,60.0240096,79aa71e7-4f1b-4c00-ad1b-fb58860c0f7c,3,627.641,629.385,,1,,,0,11,11,25,1,X,,,,,,,,,,,
,,,,,R_2dcrbL6JgBCbV58,001,2025-08-17_20h10.49.213,continuous_performance_test,2024.2.4,Win32,60.0240096,79aa71e7-4f1b-4c00-ad1b-fb58860c0f7c,3,629.388,631.035,space,1,0.667,,0,12,12,1,1,B,space,,,,,,,,,,
,,,,,R_2dcrbL6JgBCbV58,001,2025-08-17_20h10.49.213,continuous_performance_test,2024.2.4,Win32,60.0240096,79aa71e7-4f1b-4c00-ad1b-fb58860c0f7c,3,631.038,632.885,,1,,,0,13,13,29,1,X,,,,,,,,,,,
,,,,,R_2dcrbL6JgBCbV58,001,2025-08-17_20h10.49.213,continuous_performance_test,2024.2.4,Win32,60.0240096,79aa71e7-4f1b-4c00-ad1b-fb58860c0f7c,3,632.889,634.584,space,1,0.582,,0,14,14,3,1,D,space,,,,,,,,,,
,,,,,R_2dcrbL6JgBCbV58,001,2025-08-17_20h10.49.213,continuous_performance_test,2024.2.4,Win32,60.0240096,79aa71e7-4f1b-4c00-ad1b-fb58860c0f7c,3,634.587,636.234,space,1,0.551,,0,15,15,0,1,A,space,,,,,,,,,,
,,,,,R_2dcrbL6JgBCbV58,001,2025-08-17_20h10.49.213,continuous_performance_test,2024.2.4,Win32,60.0240096,79aa71e7-4f1b-4c00-ad1b-fb58860c0f7c,3,636.237,638.182,space,1,0.634,,0,16,16,18,1,S,space,,,,,,,,,,
,,,,,R_2dcrbL6JgBCbV58,001,2025-08-17_20h10.49.213,continuous_performance_test,2024.2.4,Win32,60.0240096,79aa71e7-4f1b-4c00-ad1b-fb58860c0f7c,3,638.186,640.133,space,1,0.67,,0,17,17,24,1,Z,space,,,,,,,,,,
,,,,,R_2dcrbL6JgBCbV58,001,2025-08-17_20h10.49.213,continuous_performance_test,2024.2.4,Win32,60.0240096,79aa71e7-4f1b-4c00-ad1b-fb58860c0f7c,3,640.137,642.081,space,1,0.588,,0,18,18,8,1,I,space,,,,,,,,,,
,,,,,R_2dcrbL6JgBCbV58,001,2025-08-17_20h10.49.213,continuous_performance_test,2024.2.4,Win32,60.0240096,79aa71e7-4f1b-4c00-ad1b-fb58860c0f7c,3,642.086,643.781,space,1,0.586,,0,19,19,15,1,P,space,,,,,,,,,,
,,,,,R_2dcrbL6JgBCbV58,001,2025-08-17_20h10.49.213,continuous_performance_test,2024.2.4,Win32,60.0240096,79aa71e7-4f1b-4c00-ad1b-fb58860c0f7c,3,643.784,645.631,,1,,,0,20,20,27,1,X,,,,,,,,,,,
,,,,,R_2dcrbL6JgBCbV58,001,2025-08-17_20h10.49.213,continuous_performance_test,2024.2.4,Win32,60.0240096,79aa71e7-4f1b-4c00-ad1b-fb58860c0f7c,3,645.633,647.581,space,1,0.55,,0,21,21,22,1,W,space,,,,,,,,,,
,,,,,R_2dcrbL6JgBCbV58,001,2025-08-17_20h10.49.213,continuous_performance_test,2024.2.4,Win32,60.0240096,79aa71e7-4f1b-4c00-ad1b-fb58860c0f7c,3,647.584,649.272,space,1,0.602,,0,22,22,6,1,G,space,,,,,,,,,,
,,,,,R_2dcrbL6JgBCbV58,001,2025-08-17_20h10.49.213,continuous_performance_test,2024.2.4,Win32,60.0240096,79aa71e7-4f1b-4c00-ad1b-fb58860c0f7c,3,649.283,651.279,space,1,0.522,,0,23,23,23,1,Y,space,,,,,,,,,,
,,,,,R_2dcrbL6JgBCbV58,001,2025-08-17_20h10.49.213,continuous_performance_test,2024.2.4,Win32,60.0240096,79aa71e7-4f1b-4c00-ad1b-fb58860c0f7c,3,651.282,653.231,space,1,0.582,,0,24,24,13,1,N,space,,,,,,,,,,
,,,,,R_2dcrbL6JgBCbV58,001,2025-08-17_20h10.49.213,continuous_performance_test,2024.2.4,Win32,60.0240096,79aa71e7-4f1b-4c00-ad1b-fb58860c0f7c,3,653.235,654.827,space,1,0.571,,0,25,25,20,1,U,space,,,,,,,,,,
,,,,,R_2dcrbL6JgBCbV58,001,2025-08-17_20h10.49.213,continuous_performance_test,2024.2.4,Win32,60.0240096,79aa71e7-4f1b-4c00-ad1b-fb58860c0f7c,3,654.831,656.526,space,1,0.485,,0,26,26,16,1,Q,space,,,,,,,,,,
,,,,,R_2dcrbL6JgBCbV58,001,2025-08-17_20h10.49.213,continuous_performance_test,2024.2.4,Win32,60.0240096,79aa71e7-4f1b-4c00-ad1b-fb58860c0f7c,3,656.53,658.326,space,1,0.519,,0,27,27,2,1,C,space,,,,,,,,,,
,,,,,R_2dcrbL6JgBCbV58,001,2025-08-17_20h10.49.213,continuous_performance_test,2024.2.4,Win32,60.0240096,79aa71e7-4f1b-4c00-ad1b-fb58860c0f7c,3,658.331,660.325,space,1,0.518,,0,28,28,5,1,F,space,,,,,,,,,,
,,,,,R_2dcrbL6JgBCbV58,001,2025-08-17_20h10.49.213,continuous_performance_test,2024.2.4,Win32,60.0240096,79aa71e7-4f1b-4c00-ad1b-fb58860c0f7c,3,660.33,662.125,,1,,,0,29,29,28,1,X,,,,,,,,,,,
,,,,,R_2dcrbL6JgBCbV58,001,2025-08-17_20h10.49.213,continuous_performance_test,2024.2.4,Win32,60.0240096,79aa71e7-4f1b-4c00-ad1b-fb58860c0f7c,3,,,,,,,,,,,,,,662.129,662.131,,,,662.131,665.906,space,3.726,
