Instructions.started,Instructions.stopped,key_resp.keys,key_resp.rt,key_resp.duration,participant,session,date,expName,psychopyVersion,OS,frameRate,realeye-tester-id,realeye-tester-quality_grade,Trial_noX.started,Trial_noX.stopped,response.keys,response.corr,response.rt,response.duration,trials_noX.thisRepN,trials_noX.thisTrialN,trials_noX.thisN,trials_noX.thisIndex,trials_noX.ran,letter,corrAns,BlockBreak.started,BlockBreak.stopped,key_instruct.keys,key_instruct.rt,key_instruct.duration,End_NoX.started,End_NoX.stopped,key_resp_end_noX.keys,key_resp_end_noX.rt,key_resp_end_noX.duration
0.0002,26.0511,space,26.0296,,R_2dFOvI7zqIsdGXr,001,2025-09-19_16h28.56.662,continuous_performance_test,2024.2.4,Win32,59.88023952,9908e358-5fef-41f7-8b16-dd1e47dc19d0,4,,,,,,,,,,,,,,,,,,,,,,,
,,,,,R_2dFOvI7zqIsdGXr,001,2025-09-19_16h28.56.662,continuous_performance_test,2024.2.4,Win32,59.88023952,9908e358-5fef-41f7-8b16-dd1e47dc19d0,4,26.0708,27.7157,space,1,0.6475,,0,0,0,9,1,J,space,,,,,,,,,,
,,,,,R_2dFOvI7zqIsdGXr,001,2025-09-19_16h28.56.662,continuous_performance_test,2024.2.4,Win32,59.88023952,9908e358-5fef-41f7-8b16-dd1e47dc19d0,4,27.7196,29.3644,space,1,0.3711,,0,1,1,20,1,U,space,,,,,,,,,,
,,,,,R_2dFOvI7zqIsdGXr,001,2025-09-19_16h28.56.662,continuous_performance_test,2024.2.4,Win32,59.88023952,9908e358-5fef-41f7-8b16-dd1e47dc19d0,4,29.3684,31.0131,space,1,0.5069,,0,2,2,6,1,G,space,,,,,,,,,,
,,,,,R_2dFOvI7zqIsdGXr,001,2025-09-19_16h28.56.662,continuous_performance_test,2024.2.4,Win32,59.88023952,9908e358-5fef-41f7-8b16-dd1e47dc19d0,4,31.0173,32.9618,space,0,0.3516,,0,3,3,28,1,X,,,,,,,,,,,
,,,,,R_2dFOvI7zqIsdGXr,001,2025-09-19_16h28.56.662,continuous_performance_test,2024.2.4,Win32,59.88023952,9908e358-5fef-41f7-8b16-dd1e47dc19d0,4,32.9661,34.8617,space,1,0.3678,,0,4,4,18,1,S,space,,,,,,,,,,
,,,,,R_2dFOvI7zqIsdGXr,001,2025-09-19_16h28.56.662,continuous_performance_test,2024.2.4,Win32,59.88023952,9908e358-5fef-41f7-8b16-dd1e47dc19d0,4,34.8655,36.8605,,1,,,0,5,5,29,1,X,,,,,,,,,,,
,,,,,R_2dFOvI7zqIsdGXr,001,2025-09-19_16h28.56.662,continuous_performance_test,2024.2.4,Win32,59.88023952,9908e358-5fef-41f7-8b16-dd1e47dc19d0,4,36.8645,38.8595,space,1,0.4178,,0,6,6,22,1,W,space,,,,,,,,,,
,,,,,R_2dFOvI7zqIsdGXr,001,2025-09-19_16h28.56.662,continuous_performance_test,2024.2.4,Win32,59.88023952,9908e358-5fef-41f7-8b16-dd1e47dc19d0,4,38.8635,40.4586,space,1,0.6084,,0,7,7,19,1,T,space,,,,,,,,,,
,,,,,R_2dFOvI7zqIsdGXr,001,2025-09-19_16h28.56.662,continuous_performance_test,2024.2.4,Win32,59.88023952,9908e358-5fef-41f7-8b16-dd1e47dc19d0,4,40.4627,42.0578,space,1,0.7003,,0,8,8,10,1,K,space,,,,,,,,,,
,,,,,R_2dFOvI7zqIsdGXr,001,2025-09-19_16h28.56.662,continuous_performance_test,2024.2.4,Win32,59.88023952,9908e358-5fef-41f7-8b16-dd1e47dc19d0,4,42.0615,43.6569,space,1,0.7833,,0,9,9,5,1,F,space,,,,,,,,,,
,,,,,R_2dFOvI7zqIsdGXr,001,2025-09-19_16h28.56.662,continuous_performance_test,2024.2.4,Win32,59.88023952,9908e358-5fef-41f7-8b16-dd1e47dc19d0,4,43.6607,45.6056,space,1,0.5843,,0,10,10,3,1,D,space,,,,,,,,,,
,,,,,R_2dFOvI7zqIsdGXr,001,2025-09-19_16h28.56.662,continuous_performance_test,2024.2.4,Win32,59.88023952,9908e358-5fef-41f7-8b16-dd1e47dc19d0,4,45.6093,47.3048,space,1,0.6836,,0,11,11,11,1,L,space,,,,,,,,,,
,,,,,R_2dFOvI7zqIsdGXr,001,2025-09-19_16h28.56.662,continuous_performance_test,2024.2.4,Win32,59.88023952,9908e358-5fef-41f7-8b16-dd1e47dc19d0,4,47.3086,49.0041,space,1,0.535,,0,12,12,0,1,A,space,,,,,,,,,,
,,,,,R_2dFOvI7zqIsdGXr,001,2025-09-19_16h28.56.662,continuous_performance_test,2024.2.4,Win32,59.88023952,9908e358-5fef-41f7-8b16-dd1e47dc19d0,4,49.0078,50.5537,space,1,0.5707,,0,13,13,2,1,C,space,,,,,,,,,,
,,,,,R_2dFOvI7zqIsdGXr,001,2025-09-19_16h28.56.662,continuous_performance_test,2024.2.4,Win32,59.88023952,9908e358-5fef-41f7-8b16-dd1e47dc19d0,4,50.557,52.2518,space,1,0.4691,,0,14,14,1,1,B,space,,,,,,,,,,
,,,,,R_2dFOvI7zqIsdGXr,001,2025-09-19_16h28.56.662,continuous_performance_test,2024.2.4,Win32,59.88023952,9908e358-5fef-41f7-8b16-dd1e47dc19d0,4,52.2555,53.8516,,1,,,0,15,15,25,1,X,,,,,,,,,,,
,,,,,R_2dFOvI7zqIsdGXr,001,2025-09-19_16h28.56.662,continuous_performance_test,2024.2.4,Win32,59.88023952,9908e358-5fef-41f7-8b16-dd1e47dc19d0,4,53.8552,55.7006,,1,,,0,16,16,26,1,X,,,,,,,,,,,
,,,,,R_2dFOvI7zqIsdGXr,001,2025-09-19_16h28.56.662,continuous_performance_test,2024.2.4,Win32,59.88023952,9908e358-5fef-41f7-8b16-dd1e47dc19d0,4,55.7044,57.3998,space,1,0.6512,,0,17,17,15,1,P,space,,,,,,,,,,
,,,,,R_2dFOvI7zqIsdGXr,001,2025-09-19_16h28.56.662,continuous_performance_test,2024.2.4,Win32,59.88023952,9908e358-5fef-41f7-8b16-dd1e47dc19d0,4,57.4037,59.3987,space,1,0.567,,0,18,18,4,1,E,space,,,,,,,,,,
,,,,,R_2dFOvI7zqIsdGXr,001,2025-09-19_16h28.56.662,continuous_performance_test,2024.2.4,Win32,59.88023952,9908e358-5fef-41f7-8b16-dd1e47dc19d0,4,59.4026,61.0972,space,1,0.5082,,0,19,19,21,1,V,space,,,,,,,,,,
,,,,,R_2dFOvI7zqIsdGXr,001,2025-09-19_16h28.56.662,continuous_performance_test,2024.2.4,Win32,59.88023952,9908e358-5fef-41f7-8b16-dd1e47dc19d0,4,61.1009,62.9469,space,1,0.6244,,0,20,20,7,1,H,space,,,,,,,,,,
,,,,,R_2dFOvI7zqIsdGXr,001,2025-09-19_16h28.56.662,continuous_performance_test,2024.2.4,Win32,59.88023952,9908e358-5fef-41f7-8b16-dd1e47dc19d0,4,62.9507,64.546,space,1,0.436,,0,21,21,16,1,Q,space,,,,,,,,,,
,,,,,R_2dFOvI7zqIsdGXr,001,2025-09-19_16h28.56.662,continuous_performance_test,2024.2.4,Win32,59.88023952,9908e358-5fef-41f7-8b16-dd1e47dc19d0,4,64.5494,66.4949,,1,,,0,22,22,27,1,X,,,,,,,,,,,
,,,,,R_2dFOvI7zqIsdGXr,001,2025-09-19_16h28.56.662,continuous_performance_test,2024.2.4,Win32,59.88023952,9908e358-5fef-41f7-8b16-dd1e47dc19d0,4,66.4986,68.0939,space,1,0.5761,,0,23,23,8,1,I,space,,,,,,,,,,
,,,,,R_2dFOvI7zqIsdGXr,001,2025-09-19_16h28.56.662,continuous_performance_test,2024.2.4,Win32,59.88023952,9908e358-5fef-41f7-8b16-dd1e47dc19d0,4,68.0975,69.893,space,1,0.5537,,0,24,24,12,1,M,space,,,,,,,,,,
,,,,,R_2dFOvI7zqIsdGXr,001,2025-09-19_16h28.56.662,continuous_performance_test,2024.2.4,Win32,59.88023952,9908e358-5fef-41f7-8b16-dd1e47dc19d0,4,69.8966,71.4922,space,1,0.558,,0,25,25,24,1,Z,space,,,,,,,,,,
,,,,,R_2dFOvI7zqIsdGXr,001,2025-09-19_16h28.56.662,continuous_performance_test,2024.2.4,Win32,59.88023952,9908e358-5fef-41f7-8b16-dd1e47dc19d0,4,71.4961,73.3413,space,1,0.5689,,0,26,26,13,1,N,space,,,,,,,,,,
,,,,,R_2dFOvI7zqIsdGXr,001,2025-09-19_16h28.56.662,continuous_performance_test,2024.2.4,Win32,59.88023952,9908e358-5fef-41f7-8b16-dd1e47dc19d0,4,73.3452,74.9909,space,1,0.5345,,0,27,27,14,1,O,space,,,,,,,,,,
,,,,,R_2dFOvI7zqIsdGXr,001,2025-09-19_16h28.56.662,continuous_performance_test,2024.2.4,Win32,59.88023952,9908e358-5fef-41f7-8b16-dd1e47dc19d0,4,74.9945,76.8403,space,1,0.5259,,0,28,28,23,1,Y,space,,,,,,,,,,
,,,,,R_2dFOvI7zqIsdGXr,001,2025-09-19_16h28.56.662,continuous_performance_test,2024.2.4,Win32,59.88023952,9908e358-5fef-41f7-8b16-dd1e47dc19d0,4,76.8439,78.4389,space,1,0.4516,,0,29,29,17,1,R,space,,,,,,,,,,
,,,,,R_2dFOvI7zqIsdGXr,001,2025-09-19_16h28.56.662,continuous_performance_test,2024.2.4,Win32,59.88023952,9908e358-5fef-41f7-8b16-dd1e47dc19d0,4,93.4403,95.1794,space,1,0.507,,0,0,0,22,1,W,space,78.4413,93.4315,,,,,,,,
,,,,,R_2dFOvI7zqIsdGXr,001,2025-09-19_16h28.56.662,continuous_performance_test,2024.2.4,Win32,59.88023952,9908e358-5fef-41f7-8b16-dd1e47dc19d0,4,95.1831,96.8286,space,1,0.5009,,0,1,1,4,1,E,space,,,,,,,,,,
,,,,,R_2dFOvI7zqIsdGXr,001,2025-09-19_16h28.56.662,continuous_performance_test,2024.2.4,Win32,59.88023952,9908e358-5fef-41f7-8b16-dd1e47dc19d0,4,96.8323,98.7779,,1,,,0,2,2,28,1,X,,,,,,,,,,,
,,,,,R_2dFOvI7zqIsdGXr,001,2025-09-19_16h28.56.662,continuous_performance_test,2024.2.4,Win32,59.88023952,9908e358-5fef-41f7-8b16-dd1e47dc19d0,4,98.7816,100.6766,space,1,0.3835,,0,3,3,17,1,R,space,,,,,,,,,,
,,,,,R_2dFOvI7zqIsdGXr,001,2025-09-19_16h28.56.662,continuous_performance_test,2024.2.4,Win32,59.88023952,9908e358-5fef-41f7-8b16-dd1e47dc19d0,4,100.6801,102.676,space,1,0.4924,,0,4,4,8,1,I,space,,,,,,,,,,
,,,,,R_2dFOvI7zqIsdGXr,001,2025-09-19_16h28.56.662,continuous_performance_test,2024.2.4,Win32,59.88023952,9908e358-5fef-41f7-8b16-dd1e47dc19d0,4,102.6795,104.6248,space,1,0.3172,,0,5,5,5,1,F,space,,,,,,,,,,
,,,,,R_2dFOvI7zqIsdGXr,001,2025-09-19_16h28.56.662,continuous_performance_test,2024.2.4,Win32,59.88023952,9908e358-5fef-41f7-8b16-dd1e47dc19d0,4,104.6283,106.174,space,1,0.3706,,0,6,6,11,1,L,space,,,,,,,,,,
,,,,,R_2dFOvI7zqIsdGXr,001,2025-09-19_16h28.56.662,continuous_performance_test,2024.2.4,Win32,59.88023952,9908e358-5fef-41f7-8b16-dd1e47dc19d0,4,106.1776,107.723,space,1,0.3517,,0,7,7,1,1,B,space,,,,,,,,,,
,,,,,R_2dFOvI7zqIsdGXr,001,2025-09-19_16h28.56.662,continuous_performance_test,2024.2.4,Win32,59.88023952,9908e358-5fef-41f7-8b16-dd1e47dc19d0,4,107.7269,109.4722,,1,,,0,8,8,26,1,X,,,,,,,,,,,
,,,,,R_2dFOvI7zqIsdGXr,001,2025-09-19_16h28.56.662,continuous_performance_test,2024.2.4,Win32,59.88023952,9908e358-5fef-41f7-8b16-dd1e47dc19d0,4,109.4758,111.4208,space,1,0.3039,,0,9,9,3,1,D,space,,,,,,,,,,
,,,,,R_2dFOvI7zqIsdGXr,001,2025-09-19_16h28.56.662,continuous_performance_test,2024.2.4,Win32,59.88023952,9908e358-5fef-41f7-8b16-dd1e47dc19d0,4,111.425,113.2206,space,1,0.4681,,0,10,10,18,1,S,space,,,,,,,,,,
,,,,,R_2dFOvI7zqIsdGXr,001,2025-09-19_16h28.56.662,continuous_performance_test,2024.2.4,Win32,59.88023952,9908e358-5fef-41f7-8b16-dd1e47dc19d0,4,113.2241,114.8698,space,1,0.3706,,0,11,11,10,1,K,space,,,,,,,,,,
,,,,,R_2dFOvI7zqIsdGXr,001,2025-09-19_16h28.56.662,continuous_performance_test,2024.2.4,Win32,59.88023952,9908e358-5fef-41f7-8b16-dd1e47dc19d0,4,114.8734,116.6685,space,1,0.4011,,0,12,12,24,1,Z,space,,,,,,,,,,
,,,,,R_2dFOvI7zqIsdGXr,001,2025-09-19_16h28.56.662,continuous_performance_test,2024.2.4,Win32,59.88023952,9908e358-5fef-41f7-8b16-dd1e47dc19d0,4,116.6722,118.4672,,1,,,0,13,13,29,1,X,,,,,,,,,,,
,,,,,R_2dFOvI7zqIsdGXr,001,2025-09-19_16h28.56.662,continuous_performance_test,2024.2.4,Win32,59.88023952,9908e358-5fef-41f7-8b16-dd1e47dc19d0,4,118.4707,120.0663,space,1,0.4676,,0,14,14,19,1,T,space,,,,,,,,,,
,,,,,R_2dFOvI7zqIsdGXr,001,2025-09-19_16h28.56.662,continuous_performance_test,2024.2.4,Win32,59.88023952,9908e358-5fef-41f7-8b16-dd1e47dc19d0,4,120.0702,121.7659,space,1,0.5054,,0,15,15,15,1,P,space,,,,,,,,,,
,,,,,R_2dFOvI7zqIsdGXr,001,2025-09-19_16h28.56.662,continuous_performance_test,2024.2.4,Win32,59.88023952,9908e358-5fef-41f7-8b16-dd1e47dc19d0,4,121.7696,123.765,space,1,0.3719,,0,16,16,12,1,M,space,,,,,,,,,,
,,,,,R_2dFOvI7zqIsdGXr,001,2025-09-19_16h28.56.662,continuous_performance_test,2024.2.4,Win32,59.88023952,9908e358-5fef-41f7-8b16-dd1e47dc19d0,4,123.768,125.6639,space,1,0.5007,,0,17,17,23,1,Y,space,,,,,,,,,,
,,,,,R_2dFOvI7zqIsdGXr,001,2025-09-19_16h28.56.662,continuous_performance_test,2024.2.4,Win32,59.88023952,9908e358-5fef-41f7-8b16-dd1e47dc19d0,4,125.6675,127.263,,1,,,0,18,18,27,1,X,,,,,,,,,,,
,,,,,R_2dFOvI7zqIsdGXr,001,2025-09-19_16h28.56.662,continuous_performance_test,2024.2.4,Win32,59.88023952,9908e358-5fef-41f7-8b16-dd1e47dc19d0,4,127.2659,128.9116,,1,,,0,19,19,25,1,X,,,,,,,,,,,
,,,,,R_2dFOvI7zqIsdGXr,001,2025-09-19_16h28.56.662,continuous_performance_test,2024.2.4,Win32,59.88023952,9908e358-5fef-41f7-8b16-dd1e47dc19d0,4,128.9153,130.5617,space,1,0.4008,,0,20,20,14,1,O,space,,,,,,,,,,
,,,,,R_2dFOvI7zqIsdGXr,001,2025-09-19_16h28.56.662,continuous_performance_test,2024.2.4,Win32,59.88023952,9908e358-5fef-41f7-8b16-dd1e47dc19d0,4,130.5651,132.3606,space,1,0.502,,0,21,21,7,1,H,space,,,,,,,,,,
,,,,,R_2dFOvI7zqIsdGXr,001,2025-09-19_16h28.56.662,continuous_performance_test,2024.2.4,Win32,59.88023952,9908e358-5fef-41f7-8b16-dd1e47dc19d0,4,132.3641,134.2096,space,1,0.4848,,0,22,22,16,1,Q,space,,,,,,,,,,
,,,,,R_2dFOvI7zqIsdGXr,001,2025-09-19_16h28.56.662,continuous_performance_test,2024.2.4,Win32,59.88023952,9908e358-5fef-41f7-8b16-dd1e47dc19d0,4,134.2131,135.8587,space,1,0.517,,0,23,23,20,1,U,space,,,,,,,,,,
,,,,,R_2dFOvI7zqIsdGXr,001,2025-09-19_16h28.56.662,continuous_performance_test,2024.2.4,Win32,59.88023952,9908e358-5fef-41f7-8b16-dd1e47dc19d0,4,135.8622,137.8572,space,1,0.657,,0,24,24,21,1,V,space,,,,,,,,,,
,,,,,R_2dFOvI7zqIsdGXr,001,2025-09-19_16h28.56.662,continuous_performance_test,2024.2.4,Win32,59.88023952,9908e358-5fef-41f7-8b16-dd1e47dc19d0,4,137.8607,139.4561,space,1,0.5174,,0,25,25,2,1,C,space,,,,,,,,,,
,,,,,R_2dFOvI7zqIsdGXr,001,2025-09-19_16h28.56.662,continuous_performance_test,2024.2.4,Win32,59.88023952,9908e358-5fef-41f7-8b16-dd1e47dc19d0,4,139.4599,141.2559,space,1,0.3861,,0,26,26,9,1,J,space,,,,,,,,,,
,,,,,R_2dFOvI7zqIsdGXr,001,2025-09-19_16h28.56.662,continuous_performance_test,2024.2.4,Win32,59.88023952,9908e358-5fef-41f7-8b16-dd1e47dc19d0,4,141.2593,143.0045,space,1,0.5002,,0,27,27,13,1,N,space,,,,,,,,,,
,,,,,R_2dFOvI7zqIsdGXr,001,2025-09-19_16h28.56.662,continuous_performance_test,2024.2.4,Win32,59.88023952,9908e358-5fef-41f7-8b16-dd1e47dc19d0,4,143.008,145.0037,space,1,0.5179,,0,28,28,0,1,A,space,,,,,,,,,,
,,,,,R_2dFOvI7zqIsdGXr,001,2025-09-19_16h28.56.662,continuous_performance_test,2024.2.4,Win32,59.88023952,9908e358-5fef-41f7-8b16-dd1e47dc19d0,4,145.0076,146.8529,space,1,0.4836,,0,29,29,6,1,G,space,,,,,,,,,,
,,,,,R_2dFOvI7zqIsdGXr,001,2025-09-19_16h28.56.662,continuous_performance_test,2024.2.4,Win32,59.88023952,9908e358-5fef-41f7-8b16-dd1e47dc19d0,4,161.8516,163.7439,space,1,0.3868,,0,0,0,10,1,K,space,146.8557,161.8449,,,,,,,,
,,,,,R_2dFOvI7zqIsdGXr,001,2025-09-19_16h28.56.662,continuous_performance_test,2024.2.4,Win32,59.88023952,9908e358-5fef-41f7-8b16-dd1e47dc19d0,4,163.7475,165.3928,space,1,0.4175,,0,1,1,5,1,F,space,,,,,,,,,,
,,,,,R_2dFOvI7zqIsdGXr,001,2025-09-19_16h28.56.662,continuous_performance_test,2024.2.4,Win32,59.88023952,9908e358-5fef-41f7-8b16-dd1e47dc19d0,4,165.3957,167.2424,space,1,0.3676,,0,2,2,8,1,I,space,,,,,,,,,,
,,,,,R_2dFOvI7zqIsdGXr,001,2025-09-19_16h28.56.662,continuous_performance_test,2024.2.4,Win32,59.88023952,9908e358-5fef-41f7-8b16-dd1e47dc19d0,4,167.2461,168.991,,1,,,0,3,3,28,1,X,,,,,,,,,,,
,,,,,R_2dFOvI7zqIsdGXr,001,2025-09-19_16h28.56.662,continuous_performance_test,2024.2.4,Win32,59.88023952,9908e358-5fef-41f7-8b16-dd1e47dc19d0,4,168.9945,170.8904,space,1,0.401,,0,4,4,20,1,U,space,,,,,,,,,,
,,,,,R_2dFOvI7zqIsdGXr,001,2025-09-19_16h28.56.662,continuous_performance_test,2024.2.4,Win32,59.88023952,9908e358-5fef-41f7-8b16-dd1e47dc19d0,4,170.894,172.7394,space,1,0.3892,,0,5,5,1,1,B,space,,,,,,,,,,
,,,,,R_2dFOvI7zqIsdGXr,001,2025-09-19_16h28.56.662,continuous_performance_test,2024.2.4,Win32,59.88023952,9908e358-5fef-41f7-8b16-dd1e47dc19d0,4,172.7433,174.3385,,1,,,0,6,6,25,1,X,,,,,,,,,,,
,,,,,R_2dFOvI7zqIsdGXr,001,2025-09-19_16h28.56.662,continuous_performance_test,2024.2.4,Win32,59.88023952,9908e358-5fef-41f7-8b16-dd1e47dc19d0,4,174.3421,175.8877,space,1,0.4178,,0,7,7,18,1,S,space,,,,,,,,,,
,,,,,R_2dFOvI7zqIsdGXr,001,2025-09-19_16h28.56.662,continuous_performance_test,2024.2.4,Win32,59.88023952,9908e358-5fef-41f7-8b16-dd1e47dc19d0,4,175.8913,177.5368,,1,,,0,8,8,29,1,X,,,,,,,,,,,
,,,,,R_2dFOvI7zqIsdGXr,001,2025-09-19_16h28.56.662,continuous_performance_test,2024.2.4,Win32,59.88023952,9908e358-5fef-41f7-8b16-dd1e47dc19d0,4,177.5402,179.2859,space,1,0.368,,0,9,9,11,1,L,space,,,,,,,,,,
,,,,,R_2dFOvI7zqIsdGXr,001,2025-09-19_16h28.56.662,continuous_performance_test,2024.2.4,Win32,59.88023952,9908e358-5fef-41f7-8b16-dd1e47dc19d0,4,179.2899,180.885,space,1,0.3508,,0,10,10,15,1,P,space,,,,,,,,,,
,,,,,R_2dFOvI7zqIsdGXr,001,2025-09-19_16h28.56.662,continuous_performance_test,2024.2.4,Win32,59.88023952,9908e358-5fef-41f7-8b16-dd1e47dc19d0,4,180.8886,182.4341,space,1,0.3846,,0,11,11,7,1,H,space,,,,,,,,,,
,,,,,R_2dFOvI7zqIsdGXr,001,2025-09-19_16h28.56.662,continuous_performance_test,2024.2.4,Win32,59.88023952,9908e358-5fef-41f7-8b16-dd1e47dc19d0,4,182.4376,184.3328,space,1,0.3344,,0,12,12,2,1,C,space,,,,,,,,,,
,,,,,R_2dFOvI7zqIsdGXr,001,2025-09-19_16h28.56.662,continuous_performance_test,2024.2.4,Win32,59.88023952,9908e358-5fef-41f7-8b16-dd1e47dc19d0,4,184.3363,185.9326,space,1,0.2877,,0,13,13,14,1,O,space,,,,,,,,,,
,,,,,R_2dFOvI7zqIsdGXr,001,2025-09-19_16h28.56.662,continuous_performance_test,2024.2.4,Win32,59.88023952,9908e358-5fef-41f7-8b16-dd1e47dc19d0,4,185.9361,187.5814,space,0,0.3024,,0,14,14,27,1,X,,,,,,,,,,,
,,,,,R_2dFOvI7zqIsdGXr,001,2025-09-19_16h28.56.662,continuous_performance_test,2024.2.4,Win32,59.88023952,9908e358-5fef-41f7-8b16-dd1e47dc19d0,4,187.5851,189.3804,space,1,0.3347,,0,15,15,19,1,T,space,,,,,,,,,,
,,,,,R_2dFOvI7zqIsdGXr,001,2025-09-19_16h28.56.662,continuous_performance_test,2024.2.4,Win32,59.88023952,9908e358-5fef-41f7-8b16-dd1e47dc19d0,4,189.384,190.98,space,1,0.5013,,0,16,16,6,1,G,space,,,,,,,,,,
,,,,,R_2dFOvI7zqIsdGXr,001,2025-09-19_16h28.56.662,continuous_performance_test,2024.2.4,Win32,59.88023952,9908e358-5fef-41f7-8b16-dd1e47dc19d0,4,190.9835,192.529,space,1,0.543,,0,17,17,23,1,Y,space,,,,,,,,,,
,,,,,R_2dFOvI7zqIsdGXr,001,2025-09-19_16h28.56.662,continuous_performance_test,2024.2.4,Win32,59.88023952,9908e358-5fef-41f7-8b16-dd1e47dc19d0,4,192.5326,194.0783,space,1,0.3891,,0,18,18,21,1,V,space,,,,,,,,,,
,,,,,R_2dFOvI7zqIsdGXr,001,2025-09-19_16h28.56.662,continuous_performance_test,2024.2.4,Win32,59.88023952,9908e358-5fef-41f7-8b16-dd1e47dc19d0,4,194.0818,195.7774,space,1,0.384,,0,19,19,12,1,M,space,,,,,,,,,,
,,,,,R_2dFOvI7zqIsdGXr,001,2025-09-19_16h28.56.662,continuous_performance_test,2024.2.4,Win32,59.88023952,9908e358-5fef-41f7-8b16-dd1e47dc19d0,4,195.7809,197.6264,space,1,0.3723,,0,20,20,9,1,J,space,,,,,,,,,,
,,,,,R_2dFOvI7zqIsdGXr,001,2025-09-19_16h28.56.662,continuous_performance_test,2024.2.4,Win32,59.88023952,9908e358-5fef-41f7-8b16-dd1e47dc19d0,4,197.6299,199.3255,space,1,0.3173,,0,21,21,3,1,D,space,,,,,,,,,,
,,,,,R_2dFOvI7zqIsdGXr,001,2025-09-19_16h28.56.662,continuous_performance_test,2024.2.4,Win32,59.88023952,9908e358-5fef-41f7-8b16-dd1e47dc19d0,4,199.3289,201.0245,space,1,0.2548,,0,22,22,24,1,Z,space,,,,,,,,,,
,,,,,R_2dFOvI7zqIsdGXr,001,2025-09-19_16h28.56.662,continuous_performance_test,2024.2.4,Win32,59.88023952,9908e358-5fef-41f7-8b16-dd1e47dc19d0,4,201.0285,202.6236,space,1,0.2511,,0,23,23,0,1,A,space,,,,,,,,,,
,,,,,R_2dFOvI7zqIsdGXr,001,2025-09-19_16h28.56.662,continuous_performance_test,2024.2.4,Win32,59.88023952,9908e358-5fef-41f7-8b16-dd1e47dc19d0,4,202.6273,204.3223,space,1,0.3221,,0,24,24,17,1,R,space,,,,,,,,,,
,,,,,R_2dFOvI7zqIsdGXr,001,2025-09-19_16h28.56.662,continuous_performance_test,2024.2.4,Win32,59.88023952,9908e358-5fef-41f7-8b16-dd1e47dc19d0,4,204.3259,206.1717,space,1,0.3511,,0,25,25,13,1,N,space,,,,,,,,,,
,,,,,R_2dFOvI7zqIsdGXr,001,2025-09-19_16h28.56.662,continuous_performance_test,2024.2.4,Win32,59.88023952,9908e358-5fef-41f7-8b16-dd1e47dc19d0,4,206.1753,207.8211,space,1,0.2561,,0,26,26,16,1,Q,space,,,,,,,,,,
,,,,,R_2dFOvI7zqIsdGXr,001,2025-09-19_16h28.56.662,continuous_performance_test,2024.2.4,Win32,59.88023952,9908e358-5fef-41f7-8b16-dd1e47dc19d0,4,207.8247,209.6703,space,1,0.3207,,0,27,27,22,1,W,space,,,,,,,,,,
,,,,,R_2dFOvI7zqIsdGXr,001,2025-09-19_16h28.56.662,continuous_performance_test,2024.2.4,Win32,59.88023952,9908e358-5fef-41f7-8b16-dd1e47dc19d0,4,209.6739,211.5691,space,1,0.3511,,0,28,28,4,1,E,space,,,,,,,,,,
,,,,,R_2dFOvI7zqIsdGXr,001,2025-09-19_16h28.56.662,continuous_performance_test,2024.2.4,Win32,59.88023952,9908e358-5fef-41f7-8b16-dd1e47dc19d0,4,211.5726,213.1183,space,0,0.3843,,0,29,29,26,1,X,,,,,,,,,,,
,,,,,R_2dFOvI7zqIsdGXr,001,2025-09-19_16h28.56.662,continuous_performance_test,2024.2.4,Win32,59.88023952,9908e358-5fef-41f7-8b16-dd1e47dc19d0,4,223.3857,225.1787,space,1,0.384,,0,0,0,7,1,H,space,213.1207,223.3792,space,10.2324,,,,,,
,,,,,R_2dFOvI7zqIsdGXr,001,2025-09-19_16h28.56.662,continuous_performance_test,2024.2.4,Win32,59.88023952,9908e358-5fef-41f7-8b16-dd1e47dc19d0,4,225.1823,226.9278,space,1,0.6174,,0,1,1,5,1,F,space,,,,,,,,,,
,,,,,R_2dFOvI7zqIsdGXr,001,2025-09-19_16h28.56.662,continuous_performance_test,2024.2.4,Win32,59.88023952,9908e358-5fef-41f7-8b16-dd1e47dc19d0,4,226.9313,228.7269,space,1,0.4076,,0,2,2,2,1,C,space,,,,,,,,,,
,,,,,R_2dFOvI7zqIsdGXr,001,2025-09-19_16h28.56.662,continuous_performance_test,2024.2.4,Win32,59.88023952,9908e358-5fef-41f7-8b16-dd1e47dc19d0,4,228.7303,230.6759,space,1,0.4364,,0,3,3,16,1,Q,space,,,,,,,,,,
,,,,,R_2dFOvI7zqIsdGXr,001,2025-09-19_16h28.56.662,continuous_performance_test,2024.2.4,Win32,59.88023952,9908e358-5fef-41f7-8b16-dd1e47dc19d0,4,230.6793,232.2247,space,1,0.473,,0,4,4,23,1,Y,space,,,,,,,,,,
,,,,,R_2dFOvI7zqIsdGXr,001,2025-09-19_16h28.56.662,continuous_performance_test,2024.2.4,Win32,59.88023952,9908e358-5fef-41f7-8b16-dd1e47dc19d0,4,232.2282,233.824,space,1,0.3223,,0,5,5,14,1,O,space,,,,,,,,,,
,,,,,R_2dFOvI7zqIsdGXr,001,2025-09-19_16h28.56.662,continuous_performance_test,2024.2.4,Win32,59.88023952,9908e358-5fef-41f7-8b16-dd1e47dc19d0,4,233.8274,235.523,space,1,0.3845,,0,6,6,1,1,B,space,,,,,,,,,,
,,,,,R_2dFOvI7zqIsdGXr,001,2025-09-19_16h28.56.662,continuous_performance_test,2024.2.4,Win32,59.88023952,9908e358-5fef-41f7-8b16-dd1e47dc19d0,4,235.5265,237.0719,,1,,,0,7,7,27,1,X,,,,,,,,,,,
,,,,,R_2dFOvI7zqIsdGXr,001,2025-09-19_16h28.56.662,continuous_performance_test,2024.2.4,Win32,59.88023952,9908e358-5fef-41f7-8b16-dd1e47dc19d0,4,237.0755,238.6217,space,1,0.3923,,0,8,8,15,1,P,space,,,,,,,,,,
,,,,,R_2dFOvI7zqIsdGXr,001,2025-09-19_16h28.56.662,continuous_performance_test,2024.2.4,Win32,59.88023952,9908e358-5fef-41f7-8b16-dd1e47dc19d0,4,238.6252,240.3707,space,1,0.2908,,0,9,9,10,1,K,space,,,,,,,,,,
,,,,,R_2dFOvI7zqIsdGXr,001,2025-09-19_16h28.56.662,continuous_performance_test,2024.2.4,Win32,59.88023952,9908e358-5fef-41f7-8b16-dd1e47dc19d0,4,240.3742,241.9693,space,1,0.3894,,0,10,10,11,1,L,space,,,,,,,,,,
,,,,,R_2dFOvI7zqIsdGXr,001,2025-09-19_16h28.56.662,continuous_performance_test,2024.2.4,Win32,59.88023952,9908e358-5fef-41f7-8b16-dd1e47dc19d0,4,241.9731,243.569,space,1,0.4005,,0,11,11,22,1,W,space,,,,,,,,,,
,,,,,R_2dFOvI7zqIsdGXr,001,2025-09-19_16h28.56.662,continuous_performance_test,2024.2.4,Win32,59.88023952,9908e358-5fef-41f7-8b16-dd1e47dc19d0,4,243.5723,245.5178,space,1,0.5719,,0,12,12,6,1,G,space,,,,,,,,,,
,,,,,R_2dFOvI7zqIsdGXr,001,2025-09-19_16h28.56.662,continuous_performance_test,2024.2.4,Win32,59.88023952,9908e358-5fef-41f7-8b16-dd1e47dc19d0,4,245.5213,247.3671,,1,,,0,13,13,29,1,X,,,,,,,,,,,
,,,,,R_2dFOvI7zqIsdGXr,001,2025-09-19_16h28.56.662,continuous_performance_test,2024.2.4,Win32,59.88023952,9908e358-5fef-41f7-8b16-dd1e47dc19d0,4,247.3707,249.3159,space,1,0.3222,,0,14,14,17,1,R,space,,,,,,,,,,
,,,,,R_2dFOvI7zqIsdGXr,001,2025-09-19_16h28.56.662,continuous_performance_test,2024.2.4,Win32,59.88023952,9908e358-5fef-41f7-8b16-dd1e47dc19d0,4,249.3195,251.315,space,1,0.3883,,0,15,15,4,1,E,space,,,,,,,,,,
,,,,,R_2dFOvI7zqIsdGXr,001,2025-09-19_16h28.56.662,continuous_performance_test,2024.2.4,Win32,59.88023952,9908e358-5fef-41f7-8b16-dd1e47dc19d0,4,251.3182,253.0139,space,1,0.409,,0,16,16,13,1,N,space,,,,,,,,,,
,,,,,R_2dFOvI7zqIsdGXr,001,2025-09-19_16h28.56.662,continuous_performance_test,2024.2.4,Win32,59.88023952,9908e358-5fef-41f7-8b16-dd1e47dc19d0,4,253.0174,254.5628,space,1,0.3015,,0,17,17,21,1,V,space,,,,,,,,,,
,,,,,R_2dFOvI7zqIsdGXr,001,2025-09-19_16h28.56.662,continuous_performance_test,2024.2.4,Win32,59.88023952,9908e358-5fef-41f7-8b16-dd1e47dc19d0,4,254.5658,256.5622,space,1,0.2837,,0,18,18,0,1,A,space,,,,,,,,,,
,,,,,R_2dFOvI7zqIsdGXr,001,2025-09-19_16h28.56.662,continuous_performance_test,2024.2.4,Win32,59.88023952,9908e358-5fef-41f7-8b16-dd1e47dc19d0,4,256.5657,258.3116,space,1,0.3674,,0,19,19,20,1,U,space,,,,,,,,,,
,,,,,R_2dFOvI7zqIsdGXr,001,2025-09-19_16h28.56.662,continuous_performance_test,2024.2.4,Win32,59.88023952,9908e358-5fef-41f7-8b16-dd1e47dc19d0,4,258.315,259.8606,space,1,0.6562,,0,20,20,24,1,Z,space,,,,,,,,,,
,,,,,R_2dFOvI7zqIsdGXr,001,2025-09-19_16h28.56.662,continuous_performance_test,2024.2.4,Win32,59.88023952,9908e358-5fef-41f7-8b16-dd1e47dc19d0,4,259.8641,261.8596,space,0,0.3227,,0,21,21,28,1,X,,,,,,,,,,,
,,,,,R_2dFOvI7zqIsdGXr,001,2025-09-19_16h28.56.662,continuous_performance_test,2024.2.4,Win32,59.88023952,9908e358-5fef-41f7-8b16-dd1e47dc19d0,4,261.863,263.5586,space,1,0.4675,,0,22,22,18,1,S,space,,,,,,,,,,
,,,,,R_2dFOvI7zqIsdGXr,001,2025-09-19_16h28.56.662,continuous_performance_test,2024.2.4,Win32,59.88023952,9908e358-5fef-41f7-8b16-dd1e47dc19d0,4,263.5621,265.5577,space,1,0.3507,,0,23,23,19,1,T,space,,,,,,,,,,
,,,,,R_2dFOvI7zqIsdGXr,001,2025-09-19_16h28.56.662,continuous_performance_test,2024.2.4,Win32,59.88023952,9908e358-5fef-41f7-8b16-dd1e47dc19d0,4,265.5611,267.5563,,1,,,0,24,24,25,1,X,,,,,,,,,,,
,,,,,R_2dFOvI7zqIsdGXr,001,2025-09-19_16h28.56.662,continuous_performance_test,2024.2.4,Win32,59.88023952,9908e358-5fef-41f7-8b16-dd1e47dc19d0,4,267.5597,269.3554,space,1,0.4199,,0,25,25,9,1,J,space,,,,,,,,,,
,,,,,R_2dFOvI7zqIsdGXr,001,2025-09-19_16h28.56.662,continuous_performance_test,2024.2.4,Win32,59.88023952,9908e358-5fef-41f7-8b16-dd1e47dc19d0,4,269.3589,271.3043,space,1,0.5589,,0,26,26,8,1,I,space,,,,,,,,,,
,,,,,R_2dFOvI7zqIsdGXr,001,2025-09-19_16h28.56.662,continuous_performance_test,2024.2.4,Win32,59.88023952,9908e358-5fef-41f7-8b16-dd1e47dc19d0,4,271.3079,273.2031,space,1,0.4171,,0,27,27,3,1,D,space,,,,,,,,,,
,,,,,R_2dFOvI7zqIsdGXr,001,2025-09-19_16h28.56.662,continuous_performance_test,2024.2.4,Win32,59.88023952,9908e358-5fef-41f7-8b16-dd1e47dc19d0,4,273.2062,275.2025,space,1,0.4008,,0,28,28,12,1,M,space,,,,,,,,,,
,,,,,R_2dFOvI7zqIsdGXr,001,2025-09-19_16h28.56.662,continuous_performance_test,2024.2.4,Win32,59.88023952,9908e358-5fef-41f7-8b16-dd1e47dc19d0,4,275.2062,276.9017,,1,,,0,29,29,26,1,X,,,,,,,,,,,
,,,,,R_2dFOvI7zqIsdGXr,001,2025-09-19_16h28.56.662,continuous_performance_test,2024.2.4,Win32,59.88023952,9908e358-5fef-41f7-8b16-dd1e47dc19d0,4,282.6884,284.2312,space,1,0.6168,,0,0,0,24,1,Z,space,276.9022,282.6821,space,5.7505,,,,,,
,,,,,R_2dFOvI7zqIsdGXr,001,2025-09-19_16h28.56.662,continuous_performance_test,2024.2.4,Win32,59.88023952,9908e358-5fef-41f7-8b16-dd1e47dc19d0,4,284.2347,286.1295,space,1,0.4509,,0,1,1,22,1,W,space,,,,,,,,,,
,,,,,R_2dFOvI7zqIsdGXr,001,2025-09-19_16h28.56.662,continuous_performance_test,2024.2.4,Win32,59.88023952,9908e358-5fef-41f7-8b16-dd1e47dc19d0,4,286.1333,287.9294,space,1,0.5379,,0,2,2,12,1,M,space,,,,,,,,,,
,,,,,R_2dFOvI7zqIsdGXr,001,2025-09-19_16h28.56.662,continuous_performance_test,2024.2.4,Win32,59.88023952,9908e358-5fef-41f7-8b16-dd1e47dc19d0,4,287.9327,289.628,space,1,0.5395,,0,3,3,18,1,S,space,,,,,,,,,,
,,,,,R_2dFOvI7zqIsdGXr,001,2025-09-19_16h28.56.662,continuous_performance_test,2024.2.4,Win32,59.88023952,9908e358-5fef-41f7-8b16-dd1e47dc19d0,4,289.6317,291.6271,space,1,0.5509,,0,4,4,23,1,Y,space,,,,,,,,,,
,,,,,R_2dFOvI7zqIsdGXr,001,2025-09-19_16h28.56.662,continuous_performance_test,2024.2.4,Win32,59.88023952,9908e358-5fef-41f7-8b16-dd1e47dc19d0,4,291.6307,293.5762,space,1,0.3678,,0,5,5,14,1,O,space,,,,,,,,,,
,,,,,R_2dFOvI7zqIsdGXr,001,2025-09-19_16h28.56.662,continuous_performance_test,2024.2.4,Win32,59.88023952,9908e358-5fef-41f7-8b16-dd1e47dc19d0,4,293.5797,295.5249,,1,,,0,6,6,27,1,X,,,,,,,,,,,
,,,,,R_2dFOvI7zqIsdGXr,001,2025-09-19_16h28.56.662,continuous_performance_test,2024.2.4,Win32,59.88023952,9908e358-5fef-41f7-8b16-dd1e47dc19d0,4,295.5277,297.524,,1,,,0,7,7,25,1,X,,,,,,,,,,,
,,,,,R_2dFOvI7zqIsdGXr,001,2025-09-19_16h28.56.662,continuous_performance_test,2024.2.4,Win32,59.88023952,9908e358-5fef-41f7-8b16-dd1e47dc19d0,4,297.5274,299.2234,space,1,0.4172,,0,8,8,17,1,R,space,,,,,,,,,,
,,,,,R_2dFOvI7zqIsdGXr,001,2025-09-19_16h28.56.662,continuous_performance_test,2024.2.4,Win32,59.88023952,9908e358-5fef-41f7-8b16-dd1e47dc19d0,4,299.2268,300.8728,space,1,0.4093,,0,9,9,13,1,N,space,,,,,,,,,,
,,,,,R_2dFOvI7zqIsdGXr,001,2025-09-19_16h28.56.662,continuous_performance_test,2024.2.4,Win32,59.88023952,9908e358-5fef-41f7-8b16-dd1e47dc19d0,4,300.876,302.4216,space,1,0.5341,,0,10,10,20,1,U,space,,,,,,,,,,
,,,,,R_2dFOvI7zqIsdGXr,001,2025-09-19_16h28.56.662,continuous_performance_test,2024.2.4,Win32,59.88023952,9908e358-5fef-41f7-8b16-dd1e47dc19d0,4,302.425,304.0708,space,1,0.4013,,0,11,11,2,1,C,space,,,,,,,,,,
,,,,,R_2dFOvI7zqIsdGXr,001,2025-09-19_16h28.56.662,continuous_performance_test,2024.2.4,Win32,59.88023952,9908e358-5fef-41f7-8b16-dd1e47dc19d0,4,304.0744,305.6696,space,1,0.5088,,0,12,12,16,1,Q,space,,,,,,,,,,
,,,,,R_2dFOvI7zqIsdGXr,001,2025-09-19_16h28.56.662,continuous_performance_test,2024.2.4,Win32,59.88023952,9908e358-5fef-41f7-8b16-dd1e47dc19d0,4,305.6729,307.3692,space,1,0.4507,,0,13,13,6,1,G,space,,,,,,,,,,
,,,,,R_2dFOvI7zqIsdGXr,001,2025-09-19_16h28.56.662,continuous_performance_test,2024.2.4,Win32,59.88023952,9908e358-5fef-41f7-8b16-dd1e47dc19d0,4,307.3726,309.018,space,1,0.4533,,0,14,14,8,1,I,space,,,,,,,,,,
,,,,,R_2dFOvI7zqIsdGXr,001,2025-09-19_16h28.56.662,continuous_performance_test,2024.2.4,Win32,59.88023952,9908e358-5fef-41f7-8b16-dd1e47dc19d0,4,309.0215,310.9178,,1,,,0,15,15,28,1,X,,,,,,,,,,,
,,,,,R_2dFOvI7zqIsdGXr,001,2025-09-19_16h28.56.662,continuous_performance_test,2024.2.4,Win32,59.88023952,9908e358-5fef-41f7-8b16-dd1e47dc19d0,4,310.9207,312.6663,space,1,0.4178,,0,16,16,19,1,T,space,,,,,,,,,,
,,,,,R_2dFOvI7zqIsdGXr,001,2025-09-19_16h28.56.662,continuous_performance_test,2024.2.4,Win32,59.88023952,9908e358-5fef-41f7-8b16-dd1e47dc19d0,4,312.6698,314.2653,space,1,0.4042,,0,17,17,4,1,E,space,,,,,,,,,,
,,,,,R_2dFOvI7zqIsdGXr,001,2025-09-19_16h28.56.662,continuous_performance_test,2024.2.4,Win32,59.88023952,9908e358-5fef-41f7-8b16-dd1e47dc19d0,4,314.2689,316.2643,,1,,,0,18,18,29,1,X,,,,,,,,,,,
,,,,,R_2dFOvI7zqIsdGXr,001,2025-09-19_16h28.56.662,continuous_performance_test,2024.2.4,Win32,59.88023952,9908e358-5fef-41f7-8b16-dd1e47dc19d0,4,316.2677,317.813,space,1,0.4675,,0,19,19,10,1,K,space,,,,,,,,,,
,,,,,R_2dFOvI7zqIsdGXr,001,2025-09-19_16h28.56.662,continuous_performance_test,2024.2.4,Win32,59.88023952,9908e358-5fef-41f7-8b16-dd1e47dc19d0,4,317.8165,319.6626,space,1,0.4681,,0,20,20,0,1,A,space,,,,,,,,,,
,,,,,R_2dFOvI7zqIsdGXr,001,2025-09-19_16h28.56.662,continuous_performance_test,2024.2.4,Win32,59.88023952,9908e358-5fef-41f7-8b16-dd1e47dc19d0,4,319.6661,321.3616,space,1,0.4706,,0,21,21,1,1,B,space,,,,,,,,,,
,,,,,R_2dFOvI7zqIsdGXr,001,2025-09-19_16h28.56.662,continuous_performance_test,2024.2.4,Win32,59.88023952,9908e358-5fef-41f7-8b16-dd1e47dc19d0,4,321.3651,323.2608,,1,,,0,22,22,26,1,X,,,,,,,,,,,
,,,,,R_2dFOvI7zqIsdGXr,001,2025-09-19_16h28.56.662,continuous_performance_test,2024.2.4,Win32,59.88023952,9908e358-5fef-41f7-8b16-dd1e47dc19d0,4,323.2645,324.8099,space,1,0.5215,,0,23,23,15,1,P,space,,,,,,,,,,
,,,,,R_2dFOvI7zqIsdGXr,001,2025-09-19_16h28.56.662,continuous_performance_test,2024.2.4,Win32,59.88023952,9908e358-5fef-41f7-8b16-dd1e47dc19d0,4,324.8135,326.609,space,1,0.4349,,0,24,24,21,1,V,space,,,,,,,,,,
,,,,,R_2dFOvI7zqIsdGXr,001,2025-09-19_16h28.56.662,continuous_performance_test,2024.2.4,Win32,59.88023952,9908e358-5fef-41f7-8b16-dd1e47dc19d0,4,326.6125,328.4581,space,1,0.5522,,0,25,25,3,1,D,space,,,,,,,,,,
,,,,,R_2dFOvI7zqIsdGXr,001,2025-09-19_16h28.56.662,continuous_performance_test,2024.2.4,Win32,59.88023952,9908e358-5fef-41f7-8b16-dd1e47dc19d0,4,328.4615,330.1569,space,1,0.4209,,0,26,26,7,1,H,space,,,,,,,,,,
,,,,,R_2dFOvI7zqIsdGXr,001,2025-09-19_16h28.56.662,continuous_performance_test,2024.2.4,Win32,59.88023952,9908e358-5fef-41f7-8b16-dd1e47dc19d0,4,330.1604,331.8563,space,1,0.4674,,0,27,27,11,1,L,space,,,,,,,,,,
,,,,,R_2dFOvI7zqIsdGXr,001,2025-09-19_16h28.56.662,continuous_performance_test,2024.2.4,Win32,59.88023952,9908e358-5fef-41f7-8b16-dd1e47dc19d0,4,331.8598,333.8051,space,1,0.4506,,0,28,28,5,1,F,space,,,,,,,,,,
,,,,,R_2dFOvI7zqIsdGXr,001,2025-09-19_16h28.56.662,continuous_performance_test,2024.2.4,Win32,59.88023952,9908e358-5fef-41f7-8b16-dd1e47dc19d0,4,333.8086,335.5043,space,1,0.3675,,0,29,29,9,1,J,space,,,,,,,,,,
,,,,,R_2dFOvI7zqIsdGXr,001,2025-09-19_16h28.56.662,continuous_performance_test,2024.2.4,Win32,59.88023952,9908e358-5fef-41f7-8b16-dd1e47dc19d0,4,342.1285,343.8666,space,1,0.4336,,0,0,0,10,1,K,space,335.507,342.118,space,6.5805,,,,,,
,,,,,R_2dFOvI7zqIsdGXr,001,2025-09-19_16h28.56.662,continuous_performance_test,2024.2.4,Win32,59.88023952,9908e358-5fef-41f7-8b16-dd1e47dc19d0,4,343.8701,345.8655,space,1,0.3522,,0,1,1,7,1,H,space,,,,,,,,,,
,,,,,R_2dFOvI7zqIsdGXr,001,2025-09-19_16h28.56.662,continuous_performance_test,2024.2.4,Win32,59.88023952,9908e358-5fef-41f7-8b16-dd1e47dc19d0,4,345.8689,347.5645,space,1,0.3999,,0,2,2,3,1,D,space,,,,,,,,,,
,,,,,R_2dFOvI7zqIsdGXr,001,2025-09-19_16h28.56.662,continuous_performance_test,2024.2.4,Win32,59.88023952,9908e358-5fef-41f7-8b16-dd1e47dc19d0,4,347.5682,349.3633,,1,,,0,3,3,28,1,X,,,,,,,,,,,
,,,,,R_2dFOvI7zqIsdGXr,001,2025-09-19_16h28.56.662,continuous_performance_test,2024.2.4,Win32,59.88023952,9908e358-5fef-41f7-8b16-dd1e47dc19d0,4,349.3668,351.2129,space,1,0.4342,,0,4,4,8,1,I,space,,,,,,,,,,
,,,,,R_2dFOvI7zqIsdGXr,001,2025-09-19_16h28.56.662,continuous_performance_test,2024.2.4,Win32,59.88023952,9908e358-5fef-41f7-8b16-dd1e47dc19d0,4,351.2162,352.7619,space,1,0.4371,,0,5,5,5,1,F,space,,,,,,,,,,
,,,,,R_2dFOvI7zqIsdGXr,001,2025-09-19_16h28.56.662,continuous_performance_test,2024.2.4,Win32,59.88023952,9908e358-5fef-41f7-8b16-dd1e47dc19d0,4,352.7653,354.6608,space,1,0.3413,,0,6,6,15,1,P,space,,,,,,,,,,
,,,,,R_2dFOvI7zqIsdGXr,001,2025-09-19_16h28.56.662,continuous_performance_test,2024.2.4,Win32,59.88023952,9908e358-5fef-41f7-8b16-dd1e47dc19d0,4,354.6643,356.4101,space,1,0.3397,,0,7,7,6,1,G,space,,,,,,,,,,
,,,,,R_2dFOvI7zqIsdGXr,001,2025-09-19_16h28.56.662,continuous_performance_test,2024.2.4,Win32,59.88023952,9908e358-5fef-41f7-8b16-dd1e47dc19d0,4,356.4136,358.359,space,1,0.4077,,0,8,8,16,1,Q,space,,,,,,,,,,
,,,,,R_2dFOvI7zqIsdGXr,001,2025-09-19_16h28.56.662,continuous_performance_test,2024.2.4,Win32,59.88023952,9908e358-5fef-41f7-8b16-dd1e47dc19d0,4,358.3626,360.3081,space,1,0.3842,,0,9,9,11,1,L,space,,,,,,,,,,
,,,,,R_2dFOvI7zqIsdGXr,001,2025-09-19_16h28.56.662,continuous_performance_test,2024.2.4,Win32,59.88023952,9908e358-5fef-41f7-8b16-dd1e47dc19d0,4,360.3116,361.8573,space,1,0.3877,,0,10,10,23,1,Y,space,,,,,,,,,,
,,,,,R_2dFOvI7zqIsdGXr,001,2025-09-19_16h28.56.662,continuous_performance_test,2024.2.4,Win32,59.88023952,9908e358-5fef-41f7-8b16-dd1e47dc19d0,4,361.8608,363.5564,space,1,0.3261,,0,11,11,22,1,W,space,,,,,,,,,,
,,,,,R_2dFOvI7zqIsdGXr,001,2025-09-19_16h28.56.662,continuous_performance_test,2024.2.4,Win32,59.88023952,9908e358-5fef-41f7-8b16-dd1e47dc19d0,4,363.5599,365.3552,,1,,,0,12,12,26,1,X,,,,,,,,,,,
,,,,,R_2dFOvI7zqIsdGXr,001,2025-09-19_16h28.56.662,continuous_performance_test,2024.2.4,Win32,59.88023952,9908e358-5fef-41f7-8b16-dd1e47dc19d0,4,365.3587,366.9044,space,1,0.469,,0,13,13,2,1,C,space,,,,,,,,,,
,,,,,R_2dFOvI7zqIsdGXr,001,2025-09-19_16h28.56.662,continuous_performance_test,2024.2.4,Win32,59.88023952,9908e358-5fef-41f7-8b16-dd1e47dc19d0,4,366.9078,368.8033,space,1,0.3733,,0,14,14,12,1,M,space,,,,,,,,,,
,,,,,R_2dFOvI7zqIsdGXr,001,2025-09-19_16h28.56.662,continuous_performance_test,2024.2.4,Win32,59.88023952,9908e358-5fef-41f7-8b16-dd1e47dc19d0,4,368.8069,370.5025,space,1,0.4515,,0,15,15,21,1,V,space,,,,,,,,,,
,,,,,R_2dFOvI7zqIsdGXr,001,2025-09-19_16h28.56.662,continuous_performance_test,2024.2.4,Win32,59.88023952,9908e358-5fef-41f7-8b16-dd1e47dc19d0,4,370.506,372.2519,space,1,0.3915,,0,16,16,9,1,J,space,,,,,,,,,,
,,,,,R_2dFOvI7zqIsdGXr,001,2025-09-19_16h28.56.662,continuous_performance_test,2024.2.4,Win32,59.88023952,9908e358-5fef-41f7-8b16-dd1e47dc19d0,4,372.2556,374.2509,space,1,0.368,,0,17,17,13,1,N,space,,,,,,,,,,
,,,,,R_2dFOvI7zqIsdGXr,001,2025-09-19_16h28.56.662,continuous_performance_test,2024.2.4,Win32,59.88023952,9908e358-5fef-41f7-8b16-dd1e47dc19d0,4,374.2543,375.8499,space,1,0.3572,,0,18,18,24,1,Z,space,,,,,,,,,,
,,,,,R_2dFOvI7zqIsdGXr,001,2025-09-19_16h28.56.662,continuous_performance_test,2024.2.4,Win32,59.88023952,9908e358-5fef-41f7-8b16-dd1e47dc19d0,4,375.8535,377.6989,space,1,0.3219,,0,19,19,1,1,B,space,,,,,,,,,,
,,,,,R_2dFOvI7zqIsdGXr,001,2025-09-19_16h28.56.662,continuous_performance_test,2024.2.4,Win32,59.88023952,9908e358-5fef-41f7-8b16-dd1e47dc19d0,4,377.7025,379.3981,space,1,0.4352,,0,20,20,17,1,R,space,,,,,,,,,,
,,,,,R_2dFOvI7zqIsdGXr,001,2025-09-19_16h28.56.662,continuous_performance_test,2024.2.4,Win32,59.88023952,9908e358-5fef-41f7-8b16-dd1e47dc19d0,4,379.4016,381.0973,space,1,0.4172,,0,21,21,0,1,A,space,,,,,,,,,,
,,,,,R_2dFOvI7zqIsdGXr,001,2025-09-19_16h28.56.662,continuous_performance_test,2024.2.4,Win32,59.88023952,9908e358-5fef-41f7-8b16-dd1e47dc19d0,4,381.1008,382.7964,,1,,,0,22,22,29,1,X,,,,,,,,,,,
,,,,,R_2dFOvI7zqIsdGXr,001,2025-09-19_16h28.56.662,continuous_performance_test,2024.2.4,Win32,59.88023952,9908e358-5fef-41f7-8b16-dd1e47dc19d0,4,382.7999,384.6952,space,1,0.3231,,0,23,23,14,1,O,space,,,,,,,,,,
,,,,,R_2dFOvI7zqIsdGXr,001,2025-09-19_16h28.56.662,continuous_performance_test,2024.2.4,Win32,59.88023952,9908e358-5fef-41f7-8b16-dd1e47dc19d0,4,384.6987,386.5942,space,1,0.4674,,0,24,24,18,1,S,space,,,,,,,,,,
,,,,,R_2dFOvI7zqIsdGXr,001,2025-09-19_16h28.56.662,continuous_performance_test,2024.2.4,Win32,59.88023952,9908e358-5fef-41f7-8b16-dd1e47dc19d0,4,386.5977,388.1428,space,1,0.3835,,0,25,25,20,1,U,space,,,,,,,,,,
,,,,,R_2dFOvI7zqIsdGXr,001,2025-09-19_16h28.56.662,continuous_performance_test,2024.2.4,Win32,59.88023952,9908e358-5fef-41f7-8b16-dd1e47dc19d0,4,388.1461,389.9434,space,1,0.3679,,0,26,26,19,1,T,space,,,,,,,,,,
,,,,,R_2dFOvI7zqIsdGXr,001,2025-09-19_16h28.56.662,continuous_performance_test,2024.2.4,Win32,59.88023952,9908e358-5fef-41f7-8b16-dd1e47dc19d0,4,389.9461,391.9414,space,0,0.3682,,0,27,27,25,1,X,,,,,,,,,,,
,,,,,R_2dFOvI7zqIsdGXr,001,2025-09-19_16h28.56.662,continuous_performance_test,2024.2.4,Win32,59.88023952,9908e358-5fef-41f7-8b16-dd1e47dc19d0,4,391.9449,393.6407,space,1,0.4061,,0,28,28,4,1,E,space,,,,,,,,,,
,,,,,R_2dFOvI7zqIsdGXr,001,2025-09-19_16h28.56.662,continuous_performance_test,2024.2.4,Win32,59.88023952,9908e358-5fef-41f7-8b16-dd1e47dc19d0,4,393.6442,395.3399,,1,,,0,29,29,27,1,X,,,,,,,,,,,
,,,,,R_2dFOvI7zqIsdGXr,001,2025-09-19_16h28.56.662,continuous_performance_test,2024.2.4,Win32,59.88023952,9908e358-5fef-41f7-8b16-dd1e47dc19d0,4,401.3097,403.3023,space,1,0.4684,,0,0,0,9,1,J,space,395.3423,401.3035,space,5.9364,,,,,,
,,,,,R_2dFOvI7zqIsdGXr,001,2025-09-19_16h28.56.662,continuous_performance_test,2024.2.4,Win32,59.88023952,9908e358-5fef-41f7-8b16-dd1e47dc19d0,4,403.3058,404.9016,,1,,,0,1,1,26,1,X,,,,,,,,,,,
,,,,,R_2dFOvI7zqIsdGXr,001,2025-09-19_16h28.56.662,continuous_performance_test,2024.2.4,Win32,59.88023952,9908e358-5fef-41f7-8b16-dd1e47dc19d0,4,404.905,406.5506,space,1,0.3842,,0,2,2,15,1,P,space,,,,,,,,,,
,,,,,R_2dFOvI7zqIsdGXr,001,2025-09-19_16h28.56.662,continuous_performance_test,2024.2.4,Win32,59.88023952,9908e358-5fef-41f7-8b16-dd1e47dc19d0,4,406.5541,408.4989,space,1,0.385,,0,3,3,5,1,F,space,,,,,,,,,,
,,,,,R_2dFOvI7zqIsdGXr,001,2025-09-19_16h28.56.662,continuous_performance_test,2024.2.4,Win32,59.88023952,9908e358-5fef-41f7-8b16-dd1e47dc19d0,4,408.5029,410.1487,,1,,,0,4,4,27,1,X,,,,,,,,,,,
,,,,,R_2dFOvI7zqIsdGXr,001,2025-09-19_16h28.56.662,continuous_performance_test,2024.2.4,Win32,59.88023952,9908e358-5fef-41f7-8b16-dd1e47dc19d0,4,410.1523,411.7481,space,1,0.4052,,0,5,5,4,1,E,space,,,,,,,,,,
,,,,,R_2dFOvI7zqIsdGXr,001,2025-09-19_16h28.56.662,continuous_performance_test,2024.2.4,Win32,59.88023952,9908e358-5fef-41f7-8b16-dd1e47dc19d0,4,411.7514,413.397,space,1,0.5509,,0,6,6,13,1,N,space,,,,,,,,,,
,,,,,R_2dFOvI7zqIsdGXr,001,2025-09-19_16h28.56.662,continuous_performance_test,2024.2.4,Win32,59.88023952,9908e358-5fef-41f7-8b16-dd1e47dc19d0,4,413.4001,415.2961,space,1,0.4569,,0,7,7,7,1,H,space,,,,,,,,,,
,,,,,R_2dFOvI7zqIsdGXr,001,2025-09-19_16h28.56.662,continuous_performance_test,2024.2.4,Win32,59.88023952,9908e358-5fef-41f7-8b16-dd1e47dc19d0,4,415.3,416.9948,space,1,0.4575,,0,8,8,12,1,M,space,,,,,,,,,,
,,,,,R_2dFOvI7zqIsdGXr,001,2025-09-19_16h28.56.662,continuous_performance_test,2024.2.4,Win32,59.88023952,9908e358-5fef-41f7-8b16-dd1e47dc19d0,4,416.998,418.7939,space,1,0.4675,,0,9,9,8,1,I,space,,,,,,,,,,
,,,,,R_2dFOvI7zqIsdGXr,001,2025-09-19_16h28.56.662,continuous_performance_test,2024.2.4,Win32,59.88023952,9908e358-5fef-41f7-8b16-dd1e47dc19d0,4,418.7974,420.7926,space,1,0.4236,,0,10,10,1,1,B,space,,,,,,,,,,
,,,,,R_2dFOvI7zqIsdGXr,001,2025-09-19_16h28.56.662,continuous_performance_test,2024.2.4,Win32,59.88023952,9908e358-5fef-41f7-8b16-dd1e47dc19d0,4,420.7955,422.6419,space,1,0.489,,0,11,11,3,1,D,space,,,,,,,,,,
,,,,,R_2dFOvI7zqIsdGXr,001,2025-09-19_16h28.56.662,continuous_performance_test,2024.2.4,Win32,59.88023952,9908e358-5fef-41f7-8b16-dd1e47dc19d0,4,422.6454,424.441,,1,,,0,12,12,28,1,X,,,,,,,,,,,
,,,,,R_2dFOvI7zqIsdGXr,001,2025-09-19_16h28.56.662,continuous_performance_test,2024.2.4,Win32,59.88023952,9908e358-5fef-41f7-8b16-dd1e47dc19d0,4,424.4444,426.2403,space,1,0.3922,,0,13,13,17,1,R,space,,,,,,,,,,
,,,,,R_2dFOvI7zqIsdGXr,001,2025-09-19_16h28.56.662,continuous_performance_test,2024.2.4,Win32,59.88023952,9908e358-5fef-41f7-8b16-dd1e47dc19d0,4,426.2438,427.8395,space,1,0.4009,,0,14,14,22,1,W,space,,,,,,,,,,
,,,,,R_2dFOvI7zqIsdGXr,001,2025-09-19_16h28.56.662,continuous_performance_test,2024.2.4,Win32,59.88023952,9908e358-5fef-41f7-8b16-dd1e47dc19d0,4,427.8429,429.6887,space,1,0.4708,,0,15,15,21,1,V,space,,,,,,,,,,
,,,,,R_2dFOvI7zqIsdGXr,001,2025-09-19_16h28.56.662,continuous_performance_test,2024.2.4,Win32,59.88023952,9908e358-5fef-41f7-8b16-dd1e47dc19d0,4,429.6919,431.2875,space,1,0.5357,,0,16,16,11,1,L,space,,,,,,,,,,
,,,,,R_2dFOvI7zqIsdGXr,001,2025-09-19_16h28.56.662,continuous_performance_test,2024.2.4,Win32,59.88023952,9908e358-5fef-41f7-8b16-dd1e47dc19d0,4,431.2909,433.2367,space,1,0.3845,,0,17,17,6,1,G,space,,,,,,,,,,
,,,,,R_2dFOvI7zqIsdGXr,001,2025-09-19_16h28.56.662,continuous_performance_test,2024.2.4,Win32,59.88023952,9908e358-5fef-41f7-8b16-dd1e47dc19d0,4,433.2401,434.8359,space,1,0.504,,0,18,18,23,1,Y,space,,,,,,,,,,
,,,,,R_2dFOvI7zqIsdGXr,001,2025-09-19_16h28.56.662,continuous_performance_test,2024.2.4,Win32,59.88023952,9908e358-5fef-41f7-8b16-dd1e47dc19d0,4,434.8393,436.435,,1,,,0,19,19,29,1,X,,,,,,,,,,,
,,,,,R_2dFOvI7zqIsdGXr,001,2025-09-19_16h28.56.662,continuous_performance_test,2024.2.4,Win32,59.88023952,9908e358-5fef-41f7-8b16-dd1e47dc19d0,4,436.4384,438.1339,space,1,0.4511,,0,20,20,20,1,U,space,,,,,,,,,,
,,,,,R_2dFOvI7zqIsdGXr,001,2025-09-19_16h28.56.662,continuous_performance_test,2024.2.4,Win32,59.88023952,9908e358-5fef-41f7-8b16-dd1e47dc19d0,4,438.1374,440.0825,space,1,0.4846,,0,21,21,18,1,S,space,,,,,,,,,,
,,,,,R_2dFOvI7zqIsdGXr,001,2025-09-19_16h28.56.662,continuous_performance_test,2024.2.4,Win32,59.88023952,9908e358-5fef-41f7-8b16-dd1e47dc19d0,4,440.0861,441.6822,space,1,0.3677,,0,22,22,14,1,O,space,,,,,,,,,,
,,,,,R_2dFOvI7zqIsdGXr,001,2025-09-19_16h28.56.662,continuous_performance_test,2024.2.4,Win32,59.88023952,9908e358-5fef-41f7-8b16-dd1e47dc19d0,4,441.6857,443.2814,space,1,0.3845,,0,23,23,19,1,T,space,,,,,,,,,,
,,,,,R_2dFOvI7zqIsdGXr,001,2025-09-19_16h28.56.662,continuous_performance_test,2024.2.4,Win32,59.88023952,9908e358-5fef-41f7-8b16-dd1e47dc19d0,4,443.285,445.2304,space,1,0.3853,,0,24,24,16,1,Q,space,,,,,,,,,,
,,,,,R_2dFOvI7zqIsdGXr,001,2025-09-19_16h28.56.662,continuous_performance_test,2024.2.4,Win32,59.88023952,9908e358-5fef-41f7-8b16-dd1e47dc19d0,4,445.2339,447.0792,space,1,0.3869,,0,25,25,0,1,A,space,,,,,,,,,,
,,,,,R_2dFOvI7zqIsdGXr,001,2025-09-19_16h28.56.662,continuous_performance_test,2024.2.4,Win32,59.88023952,9908e358-5fef-41f7-8b16-dd1e47dc19d0,4,447.0826,448.8785,space,1,0.392,,0,26,26,2,1,C,space,,,,,,,,,,
,,,,,R_2dFOvI7zqIsdGXr,001,2025-09-19_16h28.56.662,continuous_performance_test,2024.2.4,Win32,59.88023952,9908e358-5fef-41f7-8b16-dd1e47dc19d0,4,448.882,450.4277,space,1,0.3869,,0,27,27,24,1,Z,space,,,,,,,,,,
,,,,,R_2dFOvI7zqIsdGXr,001,2025-09-19_16h28.56.662,continuous_performance_test,2024.2.4,Win32,59.88023952,9908e358-5fef-41f7-8b16-dd1e47dc19d0,4,450.4311,452.4266,space,1,0.4037,,0,28,28,10,1,K,space,,,,,,,,,,
,,,,,R_2dFOvI7zqIsdGXr,001,2025-09-19_16h28.56.662,continuous_performance_test,2024.2.4,Win32,59.88023952,9908e358-5fef-41f7-8b16-dd1e47dc19d0,4,452.43,454.0757,,1,,,0,29,29,25,1,X,,,,,,,,,,,
,,,,,R_2dFOvI7zqIsdGXr,001,2025-09-19_16h28.56.662,continuous_performance_test,2024.2.4,Win32,59.88023952,9908e358-5fef-41f7-8b16-dd1e47dc19d0,4,465.0095,466.6526,space,1,0.4673,,0,0,0,5,1,F,space,454.0779,465.0035,space,10.8949,,,,,,
,,,,,R_2dFOvI7zqIsdGXr,001,2025-09-19_16h28.56.662,continuous_performance_test,2024.2.4,Win32,59.88023952,9908e358-5fef-41f7-8b16-dd1e47dc19d0,4,466.656,468.5016,space,1,0.4514,,0,1,1,0,1,A,space,,,,,,,,,,
,,,,,R_2dFOvI7zqIsdGXr,001,2025-09-19_16h28.56.662,continuous_performance_test,2024.2.4,Win32,59.88023952,9908e358-5fef-41f7-8b16-dd1e47dc19d0,4,468.5052,470.35,space,1,0.4507,,0,2,2,23,1,Y,space,,,,,,,,,,
,,,,,R_2dFOvI7zqIsdGXr,001,2025-09-19_16h28.56.662,continuous_performance_test,2024.2.4,Win32,59.88023952,9908e358-5fef-41f7-8b16-dd1e47dc19d0,4,470.3536,472.0997,space,1,0.4675,,0,3,3,19,1,T,space,,,,,,,,,,
,,,,,R_2dFOvI7zqIsdGXr,001,2025-09-19_16h28.56.662,continuous_performance_test,2024.2.4,Win32,59.88023952,9908e358-5fef-41f7-8b16-dd1e47dc19d0,4,472.1032,473.9488,space,1,0.3881,,0,4,4,1,1,B,space,,,,,,,,,,
,,,,,R_2dFOvI7zqIsdGXr,001,2025-09-19_16h28.56.662,continuous_performance_test,2024.2.4,Win32,59.88023952,9908e358-5fef-41f7-8b16-dd1e47dc19d0,4,473.9523,475.5482,space,1,0.3714,,0,5,5,16,1,Q,space,,,,,,,,,,
,,,,,R_2dFOvI7zqIsdGXr,001,2025-09-19_16h28.56.662,continuous_performance_test,2024.2.4,Win32,59.88023952,9908e358-5fef-41f7-8b16-dd1e47dc19d0,4,475.5514,477.4969,space,1,0.4167,,0,6,6,12,1,M,space,,,,,,,,,,
,,,,,R_2dFOvI7zqIsdGXr,001,2025-09-19_16h28.56.662,continuous_performance_test,2024.2.4,Win32,59.88023952,9908e358-5fef-41f7-8b16-dd1e47dc19d0,4,477.5004,479.396,space,1,0.4175,,0,7,7,14,1,O,space,,,,,,,,,,
,,,,,R_2dFOvI7zqIsdGXr,001,2025-09-19_16h28.56.662,continuous_performance_test,2024.2.4,Win32,59.88023952,9908e358-5fef-41f7-8b16-dd1e47dc19d0,4,479.3994,481.3446,,1,,,0,8,8,26,1,X,,,,,,,,,,,
,,,,,R_2dFOvI7zqIsdGXr,001,2025-09-19_16h28.56.662,continuous_performance_test,2024.2.4,Win32,59.88023952,9908e358-5fef-41f7-8b16-dd1e47dc19d0,4,481.3482,482.9439,space,1,0.3838,,0,9,9,20,1,U,space,,,,,,,,,,
,,,,,R_2dFOvI7zqIsdGXr,001,2025-09-19_16h28.56.662,continuous_performance_test,2024.2.4,Win32,59.88023952,9908e358-5fef-41f7-8b16-dd1e47dc19d0,4,482.9475,484.9438,space,1,0.5506,,0,10,10,13,1,N,space,,,,,,,,,,
,,,,,R_2dFOvI7zqIsdGXr,001,2025-09-19_16h28.56.662,continuous_performance_test,2024.2.4,Win32,59.88023952,9908e358-5fef-41f7-8b16-dd1e47dc19d0,4,484.9464,486.542,,1,,,0,11,11,29,1,X,,,,,,,,,,,
,,,,,R_2dFOvI7zqIsdGXr,001,2025-09-19_16h28.56.662,continuous_performance_test,2024.2.4,Win32,59.88023952,9908e358-5fef-41f7-8b16-dd1e47dc19d0,4,486.5455,488.1913,space,1,0.6692,,0,12,12,9,1,J,space,,,,,,,,,,
,,,,,R_2dFOvI7zqIsdGXr,001,2025-09-19_16h28.56.662,continuous_performance_test,2024.2.4,Win32,59.88023952,9908e358-5fef-41f7-8b16-dd1e47dc19d0,4,488.1948,489.8904,space,1,0.3513,,0,13,13,17,1,R,space,,,,,,,,,,
,,,,,R_2dFOvI7zqIsdGXr,001,2025-09-19_16h28.56.662,continuous_performance_test,2024.2.4,Win32,59.88023952,9908e358-5fef-41f7-8b16-dd1e47dc19d0,4,489.894,491.7895,space,1,0.3846,,0,14,14,10,1,K,space,,,,,,,,,,
,,,,,R_2dFOvI7zqIsdGXr,001,2025-09-19_16h28.56.662,continuous_performance_test,2024.2.4,Win32,59.88023952,9908e358-5fef-41f7-8b16-dd1e47dc19d0,4,491.7929,493.5382,,1,,,0,15,15,28,1,X,,,,,,,,,,,
,,,,,R_2dFOvI7zqIsdGXr,001,2025-09-19_16h28.56.662,continuous_performance_test,2024.2.4,Win32,59.88023952,9908e358-5fef-41f7-8b16-dd1e47dc19d0,4,493.5416,495.2875,space,1,0.3838,,0,16,16,3,1,D,space,,,,,,,,,,
,,,,,R_2dFOvI7zqIsdGXr,001,2025-09-19_16h28.56.662,continuous_performance_test,2024.2.4,Win32,59.88023952,9908e358-5fef-41f7-8b16-dd1e47dc19d0,4,495.291,496.8367,,1,,,0,17,17,25,1,X,,,,,,,,,,,
,,,,,R_2dFOvI7zqIsdGXr,001,2025-09-19_16h28.56.662,continuous_performance_test,2024.2.4,Win32,59.88023952,9908e358-5fef-41f7-8b16-dd1e47dc19d0,4,496.8403,498.6855,space,1,0.3684,,0,18,18,7,1,H,space,,,,,,,,,,
,,,,,R_2dFOvI7zqIsdGXr,001,2025-09-19_16h28.56.662,continuous_performance_test,2024.2.4,Win32,59.88023952,9908e358-5fef-41f7-8b16-dd1e47dc19d0,4,498.689,500.2846,space,1,0.4671,,0,19,19,4,1,E,space,,,,,,,,,,
,,,,,R_2dFOvI7zqIsdGXr,001,2025-09-19_16h28.56.662,continuous_performance_test,2024.2.4,Win32,59.88023952,9908e358-5fef-41f7-8b16-dd1e47dc19d0,4,500.2881,502.1834,space,1,0.501,,0,20,20,24,1,Z,space,,,,,,,,,,
,,,,,R_2dFOvI7zqIsdGXr,001,2025-09-19_16h28.56.662,continuous_performance_test,2024.2.4,Win32,59.88023952,9908e358-5fef-41f7-8b16-dd1e47dc19d0,4,502.1868,504.133,space,1,0.5893,,0,21,21,2,1,C,space,,,,,,,,,,
,,,,,R_2dFOvI7zqIsdGXr,001,2025-09-19_16h28.56.662,continuous_performance_test,2024.2.4,Win32,59.88023952,9908e358-5fef-41f7-8b16-dd1e47dc19d0,4,504.1362,505.782,space,1,0.3585,,0,22,22,11,1,L,space,,,,,,,,,,
,,,,,R_2dFOvI7zqIsdGXr,001,2025-09-19_16h28.56.662,continuous_performance_test,2024.2.4,Win32,59.88023952,9908e358-5fef-41f7-8b16-dd1e47dc19d0,4,505.7855,507.6311,space,1,0.3349,,0,23,23,18,1,S,space,,,,,,,,,,
,,,,,R_2dFOvI7zqIsdGXr,001,2025-09-19_16h28.56.662,continuous_performance_test,2024.2.4,Win32,59.88023952,9908e358-5fef-41f7-8b16-dd1e47dc19d0,4,507.6347,509.4802,space,1,0.3681,,0,24,24,21,1,V,space,,,,,,,,,,
,,,,,R_2dFOvI7zqIsdGXr,001,2025-09-19_16h28.56.662,continuous_performance_test,2024.2.4,Win32,59.88023952,9908e358-5fef-41f7-8b16-dd1e47dc19d0,4,509.4837,511.3791,space,1,0.3013,,0,25,25,15,1,P,space,,,,,,,,,,
,,,,,R_2dFOvI7zqIsdGXr,001,2025-09-19_16h28.56.662,continuous_performance_test,2024.2.4,Win32,59.88023952,9908e358-5fef-41f7-8b16-dd1e47dc19d0,4,511.3826,513.3781,space,1,0.3911,,0,26,26,8,1,I,space,,,,,,,,,,
,,,,,R_2dFOvI7zqIsdGXr,001,2025-09-19_16h28.56.662,continuous_performance_test,2024.2.4,Win32,59.88023952,9908e358-5fef-41f7-8b16-dd1e47dc19d0,4,513.3816,514.977,space,1,0.368,,0,27,27,6,1,G,space,,,,,,,,,,
,,,,,R_2dFOvI7zqIsdGXr,001,2025-09-19_16h28.56.662,continuous_performance_test,2024.2.4,Win32,59.88023952,9908e358-5fef-41f7-8b16-dd1e47dc19d0,4,514.9804,516.6764,,1,,,0,28,28,27,1,X,,,,,,,,,,,
,,,,,R_2dFOvI7zqIsdGXr,001,2025-09-19_16h28.56.662,continuous_performance_test,2024.2.4,Win32,59.88023952,9908e358-5fef-41f7-8b16-dd1e47dc19d0,4,516.6799,518.6752,space,1,0.4021,,0,29,29,22,1,W,space,,,,,,,,,,
,,,,,R_2dFOvI7zqIsdGXr,001,2025-09-19_16h28.56.662,continuous_performance_test,2024.2.4,Win32,59.88023952,9908e358-5fef-41f7-8b16-dd1e47dc19d0,4,529.6261,531.4687,space,1,0.4375,,0,0,0,3,1,D,space,518.6775,529.6197,space,10.9185,,,,,,
,,,,,R_2dFOvI7zqIsdGXr,001,2025-09-19_16h28.56.662,continuous_performance_test,2024.2.4,Win32,59.88023952,9908e358-5fef-41f7-8b16-dd1e47dc19d0,4,531.4721,533.3677,space,1,0.5512,,0,1,1,20,1,U,space,,,,,,,,,,
,,,,,R_2dFOvI7zqIsdGXr,001,2025-09-19_16h28.56.662,continuous_performance_test,2024.2.4,Win32,59.88023952,9908e358-5fef-41f7-8b16-dd1e47dc19d0,4,533.3712,535.2667,space,0,0.3512,,0,2,2,28,1,X,,,,,,,,,,,
,,,,,R_2dFOvI7zqIsdGXr,001,2025-09-19_16h28.56.662,continuous_performance_test,2024.2.4,Win32,59.88023952,9908e358-5fef-41f7-8b16-dd1e47dc19d0,4,535.2701,536.9658,space,1,0.5013,,0,3,3,12,1,M,space,,,,,,,,,,
,,,,,R_2dFOvI7zqIsdGXr,001,2025-09-19_16h28.56.662,continuous_performance_test,2024.2.4,Win32,59.88023952,9908e358-5fef-41f7-8b16-dd1e47dc19d0,4,536.9692,538.8645,space,1,0.4092,,0,4,4,21,1,V,space,,,,,,,,,,
,,,,,R_2dFOvI7zqIsdGXr,001,2025-09-19_16h28.56.662,continuous_performance_test,2024.2.4,Win32,59.88023952,9908e358-5fef-41f7-8b16-dd1e47dc19d0,4,538.868,540.8631,space,1,0.3843,,0,5,5,16,1,Q,space,,,,,,,,,,
,,,,,R_2dFOvI7zqIsdGXr,001,2025-09-19_16h28.56.662,continuous_performance_test,2024.2.4,Win32,59.88023952,9908e358-5fef-41f7-8b16-dd1e47dc19d0,4,540.8667,542.4129,space,1,0.3701,,0,6,6,18,1,S,space,,,,,,,,,,
,,,,,R_2dFOvI7zqIsdGXr,001,2025-09-19_16h28.56.662,continuous_performance_test,2024.2.4,Win32,59.88023952,9908e358-5fef-41f7-8b16-dd1e47dc19d0,4,542.4164,543.962,space,1,0.3839,,0,7,7,14,1,O,space,,,,,,,,,,
,,,,,R_2dFOvI7zqIsdGXr,001,2025-09-19_16h28.56.662,continuous_performance_test,2024.2.4,Win32,59.88023952,9908e358-5fef-41f7-8b16-dd1e47dc19d0,4,543.9661,545.5106,space,1,0.4006,,0,8,8,15,1,P,space,,,,,,,,,,
,,,,,R_2dFOvI7zqIsdGXr,001,2025-09-19_16h28.56.662,continuous_performance_test,2024.2.4,Win32,59.88023952,9908e358-5fef-41f7-8b16-dd1e47dc19d0,4,545.514,547.1603,space,1,0.4011,,0,9,9,0,1,A,space,,,,,,,,,,
,,,,,R_2dFOvI7zqIsdGXr,001,2025-09-19_16h28.56.662,continuous_performance_test,2024.2.4,Win32,59.88023952,9908e358-5fef-41f7-8b16-dd1e47dc19d0,4,547.1638,548.8596,space,1,0.4861,,0,10,10,17,1,R,space,,,,,,,,,,
,,,,,R_2dFOvI7zqIsdGXr,001,2025-09-19_16h28.56.662,continuous_performance_test,2024.2.4,Win32,59.88023952,9908e358-5fef-41f7-8b16-dd1e47dc19d0,4,548.8633,550.6086,space,1,0.4083,,0,11,11,9,1,J,space,,,,,,,,,,
,,,,,R_2dFOvI7zqIsdGXr,001,2025-09-19_16h28.56.662,continuous_performance_test,2024.2.4,Win32,59.88023952,9908e358-5fef-41f7-8b16-dd1e47dc19d0,4,550.6123,552.2578,,1,,,0,12,12,27,1,X,,,,,,,,,,,
,,,,,R_2dFOvI7zqIsdGXr,001,2025-09-19_16h28.56.662,continuous_performance_test,2024.2.4,Win32,59.88023952,9908e358-5fef-41f7-8b16-dd1e47dc19d0,4,552.2613,553.8071,space,1,0.408,,0,13,13,22,1,W,space,,,,,,,,,,
,,,,,R_2dFOvI7zqIsdGXr,001,2025-09-19_16h28.56.662,continuous_performance_test,2024.2.4,Win32,59.88023952,9908e358-5fef-41f7-8b16-dd1e47dc19d0,4,553.8105,555.8059,space,1,0.2703,,0,14,14,4,1,E,space,,,,,,,,,,
,,,,,R_2dFOvI7zqIsdGXr,001,2025-09-19_16h28.56.662,continuous_performance_test,2024.2.4,Win32,59.88023952,9908e358-5fef-41f7-8b16-dd1e47dc19d0,4,555.8093,557.4049,space,1,0.3754,,0,15,15,10,1,K,space,,,,,,,,,,
,,,,,R_2dFOvI7zqIsdGXr,001,2025-09-19_16h28.56.662,continuous_performance_test,2024.2.4,Win32,59.88023952,9908e358-5fef-41f7-8b16-dd1e47dc19d0,4,557.4083,559.2038,space,1,0.2533,,0,16,16,6,1,G,space,,,,,,,,,,
,,,,,R_2dFOvI7zqIsdGXr,001,2025-09-19_16h28.56.662,continuous_performance_test,2024.2.4,Win32,59.88023952,9908e358-5fef-41f7-8b16-dd1e47dc19d0,4,559.2071,561.1532,space,1,0.251,,0,17,17,19,1,T,space,,,,,,,,,,
,,,,,R_2dFOvI7zqIsdGXr,001,2025-09-19_16h28.56.662,continuous_performance_test,2024.2.4,Win32,59.88023952,9908e358-5fef-41f7-8b16-dd1e47dc19d0,4,561.1566,563.0519,space,1,0.4014,,0,18,18,8,1,I,space,,,,,,,,,,
,,,,,R_2dFOvI7zqIsdGXr,001,2025-09-19_16h28.56.662,continuous_performance_test,2024.2.4,Win32,59.88023952,9908e358-5fef-41f7-8b16-dd1e47dc19d0,4,563.0554,564.7508,,1,,,0,19,19,26,1,X,,,,,,,,,,,
,,,,,R_2dFOvI7zqIsdGXr,001,2025-09-19_16h28.56.662,continuous_performance_test,2024.2.4,Win32,59.88023952,9908e358-5fef-41f7-8b16-dd1e47dc19d0,4,564.7535,566.5998,space,0,0.3206,,0,20,20,25,1,X,,,,,,,,,,,
,,,,,R_2dFOvI7zqIsdGXr,001,2025-09-19_16h28.56.662,continuous_performance_test,2024.2.4,Win32,59.88023952,9908e358-5fef-41f7-8b16-dd1e47dc19d0,4,566.6034,568.5993,space,1,0.5344,,0,21,21,24,1,Z,space,,,,,,,,,,
,,,,,R_2dFOvI7zqIsdGXr,001,2025-09-19_16h28.56.662,continuous_performance_test,2024.2.4,Win32,59.88023952,9908e358-5fef-41f7-8b16-dd1e47dc19d0,4,568.6027,570.1485,space,1,0.5501,,0,22,22,2,1,C,space,,,,,,,,,,
,,,,,R_2dFOvI7zqIsdGXr,001,2025-09-19_16h28.56.662,continuous_performance_test,2024.2.4,Win32,59.88023952,9908e358-5fef-41f7-8b16-dd1e47dc19d0,4,570.1522,571.9471,space,1,0.5418,,0,23,23,23,1,Y,space,,,,,,,,,,
,,,,,R_2dFOvI7zqIsdGXr,001,2025-09-19_16h28.56.662,continuous_performance_test,2024.2.4,Win32,59.88023952,9908e358-5fef-41f7-8b16-dd1e47dc19d0,4,571.9506,573.5467,space,1,0.418,,0,24,24,13,1,N,space,,,,,,,,,,
,,,,,R_2dFOvI7zqIsdGXr,001,2025-09-19_16h28.56.662,continuous_performance_test,2024.2.4,Win32,59.88023952,9908e358-5fef-41f7-8b16-dd1e47dc19d0,4,573.5502,575.4456,space,1,0.3247,,0,25,25,7,1,H,space,,,,,,,,,,
,,,,,R_2dFOvI7zqIsdGXr,001,2025-09-19_16h28.56.662,continuous_performance_test,2024.2.4,Win32,59.88023952,9908e358-5fef-41f7-8b16-dd1e47dc19d0,4,575.4492,577.2445,space,1,0.2925,,0,26,26,1,1,B,space,,,,,,,,,,
,,,,,R_2dFOvI7zqIsdGXr,001,2025-09-19_16h28.56.662,continuous_performance_test,2024.2.4,Win32,59.88023952,9908e358-5fef-41f7-8b16-dd1e47dc19d0,4,577.248,579.0936,space,1,0.356,,0,27,27,5,1,F,space,,,,,,,,,,
,,,,,R_2dFOvI7zqIsdGXr,001,2025-09-19_16h28.56.662,continuous_performance_test,2024.2.4,Win32,59.88023952,9908e358-5fef-41f7-8b16-dd1e47dc19d0,4,579.097,580.9427,,1,,,0,28,28,29,1,X,,,,,,,,,,,
,,,,,R_2dFOvI7zqIsdGXr,001,2025-09-19_16h28.56.662,continuous_performance_test,2024.2.4,Win32,59.88023952,9908e358-5fef-41f7-8b16-dd1e47dc19d0,4,580.9459,582.642,space,1,0.4358,,0,29,29,11,1,L,space,,,,,,,,,,
,,,,,R_2dFOvI7zqIsdGXr,001,2025-09-19_16h28.56.662,continuous_performance_test,2024.2.4,Win32,59.88023952,9908e358-5fef-41f7-8b16-dd1e47dc19d0,4,593.0922,595.0853,space,1,0.4065,,0,0,0,13,1,N,space,582.6443,593.086,space,10.42,,,,,,
,,,,,R_2dFOvI7zqIsdGXr,001,2025-09-19_16h28.56.662,continuous_performance_test,2024.2.4,Win32,59.88023952,9908e358-5fef-41f7-8b16-dd1e47dc19d0,4,595.0887,596.6844,space,1,0.3679,,0,1,1,17,1,R,space,,,,,,,,,,
,,,,,R_2dFOvI7zqIsdGXr,001,2025-09-19_16h28.56.662,continuous_performance_test,2024.2.4,Win32,59.88023952,9908e358-5fef-41f7-8b16-dd1e47dc19d0,4,596.6879,598.3834,,1,,,0,2,2,25,1,X,,,,,,,,,,,
,,,,,R_2dFOvI7zqIsdGXr,001,2025-09-19_16h28.56.662,continuous_performance_test,2024.2.4,Win32,59.88023952,9908e358-5fef-41f7-8b16-dd1e47dc19d0,4,598.3873,600.2328,space,1,0.3838,,0,3,3,9,1,J,space,,,,,,,,,,
,,,,,R_2dFOvI7zqIsdGXr,001,2025-09-19_16h28.56.662,continuous_performance_test,2024.2.4,Win32,59.88023952,9908e358-5fef-41f7-8b16-dd1e47dc19d0,4,600.2363,602.1815,space,1,0.3833,,0,4,4,16,1,Q,space,,,,,,,,,,
,,,,,R_2dFOvI7zqIsdGXr,001,2025-09-19_16h28.56.662,continuous_performance_test,2024.2.4,Win32,59.88023952,9908e358-5fef-41f7-8b16-dd1e47dc19d0,4,602.185,604.0309,,1,,,0,5,5,26,1,X,,,,,,,,,,,
,,,,,R_2dFOvI7zqIsdGXr,001,2025-09-19_16h28.56.662,continuous_performance_test,2024.2.4,Win32,59.88023952,9908e358-5fef-41f7-8b16-dd1e47dc19d0,4,604.0341,605.9291,space,1,0.3524,,0,6,6,7,1,H,space,,,,,,,,,,
,,,,,R_2dFOvI7zqIsdGXr,001,2025-09-19_16h28.56.662,continuous_performance_test,2024.2.4,Win32,59.88023952,9908e358-5fef-41f7-8b16-dd1e47dc19d0,4,605.932,607.6289,space,1,0.4412,,0,7,7,5,1,F,space,,,,,,,,,,
,,,,,R_2dFOvI7zqIsdGXr,001,2025-09-19_16h28.56.662,continuous_performance_test,2024.2.4,Win32,59.88023952,9908e358-5fef-41f7-8b16-dd1e47dc19d0,4,607.6322,609.4277,space,1,0.3338,,0,8,8,12,1,M,space,,,,,,,,,,
,,,,,R_2dFOvI7zqIsdGXr,001,2025-09-19_16h28.56.662,continuous_performance_test,2024.2.4,Win32,59.88023952,9908e358-5fef-41f7-8b16-dd1e47dc19d0,4,609.4312,611.377,space,1,0.3896,,0,9,9,0,1,A,space,,,,,,,,,,
,,,,,R_2dFOvI7zqIsdGXr,001,2025-09-19_16h28.56.662,continuous_performance_test,2024.2.4,Win32,59.88023952,9908e358-5fef-41f7-8b16-dd1e47dc19d0,4,611.3803,612.9261,space,1,0.4177,,0,10,10,6,1,G,space,,,,,,,,,,
,,,,,R_2dFOvI7zqIsdGXr,001,2025-09-19_16h28.56.662,continuous_performance_test,2024.2.4,Win32,59.88023952,9908e358-5fef-41f7-8b16-dd1e47dc19d0,4,612.9295,614.725,space,1,0.287,,0,11,11,14,1,O,space,,,,,,,,,,
,,,,,R_2dFOvI7zqIsdGXr,001,2025-09-19_16h28.56.662,continuous_performance_test,2024.2.4,Win32,59.88023952,9908e358-5fef-41f7-8b16-dd1e47dc19d0,4,614.7284,616.7239,space,1,0.5039,,0,12,12,3,1,D,space,,,,,,,,,,
,,,,,R_2dFOvI7zqIsdGXr,001,2025-09-19_16h28.56.662,continuous_performance_test,2024.2.4,Win32,59.88023952,9908e358-5fef-41f7-8b16-dd1e47dc19d0,4,616.7274,618.6231,space,1,0.4911,,0,13,13,15,1,P,space,,,,,,,,,,
,,,,,R_2dFOvI7zqIsdGXr,001,2025-09-19_16h28.56.662,continuous_performance_test,2024.2.4,Win32,59.88023952,9908e358-5fef-41f7-8b16-dd1e47dc19d0,4,618.6264,620.2224,space,1,0.4015,,0,14,14,19,1,T,space,,,,,,,,,,
,,,,,R_2dFOvI7zqIsdGXr,001,2025-09-19_16h28.56.662,continuous_performance_test,2024.2.4,Win32,59.88023952,9908e358-5fef-41f7-8b16-dd1e47dc19d0,4,620.2258,622.0713,space,1,0.3706,,0,15,15,18,1,S,space,,,,,,,,,,
,,,,,R_2dFOvI7zqIsdGXr,001,2025-09-19_16h28.56.662,continuous_performance_test,2024.2.4,Win32,59.88023952,9908e358-5fef-41f7-8b16-dd1e47dc19d0,4,622.0748,623.6206,space,1,0.404,,0,16,16,21,1,V,space,,,,,,,,,,
,,,,,R_2dFOvI7zqIsdGXr,001,2025-09-19_16h28.56.662,continuous_performance_test,2024.2.4,Win32,59.88023952,9908e358-5fef-41f7-8b16-dd1e47dc19d0,4,623.624,625.4693,space,1,0.3011,,0,17,17,10,1,K,space,,,,,,,,,,
,,,,,R_2dFOvI7zqIsdGXr,001,2025-09-19_16h28.56.662,continuous_performance_test,2024.2.4,Win32,59.88023952,9908e358-5fef-41f7-8b16-dd1e47dc19d0,4,625.4727,627.0188,space,1,0.3676,,0,18,18,11,1,L,space,,,,,,,,,,
,,,,,R_2dFOvI7zqIsdGXr,001,2025-09-19_16h28.56.662,continuous_performance_test,2024.2.4,Win32,59.88023952,9908e358-5fef-41f7-8b16-dd1e47dc19d0,4,627.0222,628.8176,space,1,0.5536,,0,19,19,23,1,Y,space,,,,,,,,,,
,,,,,R_2dFOvI7zqIsdGXr,001,2025-09-19_16h28.56.662,continuous_performance_test,2024.2.4,Win32,59.88023952,9908e358-5fef-41f7-8b16-dd1e47dc19d0,4,628.8211,630.8164,,1,,,0,20,20,28,1,X,,,,,,,,,,,
,,,,,R_2dFOvI7zqIsdGXr,001,2025-09-19_16h28.56.662,continuous_performance_test,2024.2.4,Win32,59.88023952,9908e358-5fef-41f7-8b16-dd1e47dc19d0,4,630.8199,632.3658,space,1,0.3229,,0,21,21,20,1,U,space,,,,,,,,,,
,,,,,R_2dFOvI7zqIsdGXr,001,2025-09-19_16h28.56.662,continuous_performance_test,2024.2.4,Win32,59.88023952,9908e358-5fef-41f7-8b16-dd1e47dc19d0,4,632.3693,634.3649,,1,,,0,22,22,29,1,X,,,,,,,,,,,
,,,,,R_2dFOvI7zqIsdGXr,001,2025-09-19_16h28.56.662,continuous_performance_test,2024.2.4,Win32,59.88023952,9908e358-5fef-41f7-8b16-dd1e47dc19d0,4,634.3679,636.1139,space,1,0.3508,,0,23,23,2,1,C,space,,,,,,,,,,
,,,,,R_2dFOvI7zqIsdGXr,001,2025-09-19_16h28.56.662,continuous_performance_test,2024.2.4,Win32,59.88023952,9908e358-5fef-41f7-8b16-dd1e47dc19d0,4,636.1172,638.1131,space,1,0.4045,,0,24,24,8,1,I,space,,,,,,,,,,
,,,,,R_2dFOvI7zqIsdGXr,001,2025-09-19_16h28.56.662,continuous_performance_test,2024.2.4,Win32,59.88023952,9908e358-5fef-41f7-8b16-dd1e47dc19d0,4,638.1164,640.0618,space,1,0.3191,,0,25,25,1,1,B,space,,,,,,,,,,
,,,,,R_2dFOvI7zqIsdGXr,001,2025-09-19_16h28.56.662,continuous_performance_test,2024.2.4,Win32,59.88023952,9908e358-5fef-41f7-8b16-dd1e47dc19d0,4,640.0652,641.7611,space,1,0.4542,,0,26,26,22,1,W,space,,,,,,,,,,
,,,,,R_2dFOvI7zqIsdGXr,001,2025-09-19_16h28.56.662,continuous_performance_test,2024.2.4,Win32,59.88023952,9908e358-5fef-41f7-8b16-dd1e47dc19d0,4,641.7645,643.4602,,1,,,0,27,27,27,1,X,,,,,,,,,,,
,,,,,R_2dFOvI7zqIsdGXr,001,2025-09-19_16h28.56.662,continuous_performance_test,2024.2.4,Win32,59.88023952,9908e358-5fef-41f7-8b16-dd1e47dc19d0,4,643.4637,645.1584,space,1,0.5181,,0,28,28,24,1,Z,space,,,,,,,,,,
,,,,,R_2dFOvI7zqIsdGXr,001,2025-09-19_16h28.56.662,continuous_performance_test,2024.2.4,Win32,59.88023952,9908e358-5fef-41f7-8b16-dd1e47dc19d0,4,645.1618,646.8583,space,1,0.4341,,0,29,29,4,1,E,space,,,,,,,,,,
,,,,,R_2dFOvI7zqIsdGXr,001,2025-09-19_16h28.56.662,continuous_performance_test,2024.2.4,Win32,59.88023952,9908e358-5fef-41f7-8b16-dd1e47dc19d0,4,,,,,,,,,,,,,,646.861,646.8623,,,,646.8625,653.1221,space,6.2341,
