Instructions.started,Instructions.stopped,key_resp.keys,key_resp.rt,key_resp.duration,participant,session,date,expName,psychopyVersion,OS,frameRate,realeye-tester-id,realeye-tester-quality_grade,Trial_noX.started,Trial_noX.stopped,response.keys,response.corr,response.rt,response.duration,trials_noX.thisRepN,trials_noX.thisTrialN,trials_noX.thisN,trials_noX.thisIndex,trials_noX.ran,letter,corrAns,BlockBreak.started,BlockBreak.stopped,key_instruct.keys,key_instruct.rt,key_instruct.duration,End_NoX.started,End_NoX.stopped,key_resp_end_noX.keys,key_resp_end_noX.rt,key_resp_end_noX.duration
0,21.954,space,21.903,,R_2eY0Sr2GkIJv6B3,001,2025-09-20_01h59.22.063,continuous_performance_test,2024.2.4,Win32,60.0240096,1ac51710-1050-479b-8c12-0655cfe77e51,4,,,,,,,,,,,,,,,,,,,,,,,
,,,,,R_2eY0Sr2GkIJv6B3,001,2025-09-20_01h59.22.063,continuous_performance_test,2024.2.4,Win32,60.0240096,1ac51710-1050-479b-8c12-0655cfe77e51,4,21.98,23.83,space,1,0.532,,0,0,0,8,1,I,space,,,,,,,,,,
,,,,,R_2eY0Sr2GkIJv6B3,001,2025-09-20_01h59.22.063,continuous_performance_test,2024.2.4,Win32,60.0240096,1ac51710-1050-479b-8c12-0655cfe77e51,4,23.832,25.479,space,1,0.349,,0,1,1,12,1,M,space,,,,,,,,,,
,,,,,R_2eY0Sr2GkIJv6B3,001,2025-09-20_01h59.22.063,continuous_performance_test,2024.2.4,Win32,60.0240096,1ac51710-1050-479b-8c12-0655cfe77e51,4,25.482,27.328,space,1,0.466,,0,2,2,21,1,V,space,,,,,,,,,,
,,,,,R_2eY0Sr2GkIJv6B3,001,2025-09-20_01h59.22.063,continuous_performance_test,2024.2.4,Win32,60.0240096,1ac51710-1050-479b-8c12-0655cfe77e51,4,27.331,29.328,space,1,0.467,,0,3,3,6,1,G,space,,,,,,,,,,
,,,,,R_2eY0Sr2GkIJv6B3,001,2025-09-20_01h59.22.063,continuous_performance_test,2024.2.4,Win32,60.0240096,1ac51710-1050-479b-8c12-0655cfe77e51,4,29.331,30.878,space,1,0.417,,0,4,4,19,1,T,space,,,,,,,,,,
,,,,,R_2eY0Sr2GkIJv6B3,001,2025-09-20_01h59.22.063,continuous_performance_test,2024.2.4,Win32,60.0240096,1ac51710-1050-479b-8c12-0655cfe77e51,4,30.88,32.528,space,1,0.401,,0,5,5,5,1,F,space,,,,,,,,,,
,,,,,R_2eY0Sr2GkIJv6B3,001,2025-09-20_01h59.22.063,continuous_performance_test,2024.2.4,Win32,60.0240096,1ac51710-1050-479b-8c12-0655cfe77e51,4,32.53,34.227,,1,,,0,6,6,29,1,X,,,,,,,,,,,
,,,,,R_2eY0Sr2GkIJv6B3,001,2025-09-20_01h59.22.063,continuous_performance_test,2024.2.4,Win32,60.0240096,1ac51710-1050-479b-8c12-0655cfe77e51,4,34.23,36.026,space,1,0.335,,0,7,7,17,1,R,space,,,,,,,,,,
,,,,,R_2eY0Sr2GkIJv6B3,001,2025-09-20_01h59.22.063,continuous_performance_test,2024.2.4,Win32,60.0240096,1ac51710-1050-479b-8c12-0655cfe77e51,4,36.029,37.725,space,1,0.368,,0,8,8,14,1,O,space,,,,,,,,,,
,,,,,R_2eY0Sr2GkIJv6B3,001,2025-09-20_01h59.22.063,continuous_performance_test,2024.2.4,Win32,60.0240096,1ac51710-1050-479b-8c12-0655cfe77e51,4,37.728,39.425,space,1,0.366,,0,9,9,2,1,C,space,,,,,,,,,,
,,,,,R_2eY0Sr2GkIJv6B3,001,2025-09-20_01h59.22.063,continuous_performance_test,2024.2.4,Win32,60.0240096,1ac51710-1050-479b-8c12-0655cfe77e51,4,39.429,41.225,space,1,0.4,,0,10,10,23,1,Y,space,,,,,,,,,,
,,,,,R_2eY0Sr2GkIJv6B3,001,2025-09-20_01h59.22.063,continuous_performance_test,2024.2.4,Win32,60.0240096,1ac51710-1050-479b-8c12-0655cfe77e51,4,41.229,42.973,space,1,0.321,,0,11,11,20,1,U,space,,,,,,,,,,
,,,,,R_2eY0Sr2GkIJv6B3,001,2025-09-20_01h59.22.063,continuous_performance_test,2024.2.4,Win32,60.0240096,1ac51710-1050-479b-8c12-0655cfe77e51,4,42.977,44.573,space,1,0.348,,0,12,12,11,1,L,space,,,,,,,,,,
,,,,,R_2eY0Sr2GkIJv6B3,001,2025-09-20_01h59.22.063,continuous_performance_test,2024.2.4,Win32,60.0240096,1ac51710-1050-479b-8c12-0655cfe77e51,4,44.578,46.573,space,1,0.338,,0,13,13,0,1,A,space,,,,,,,,,,
,,,,,R_2eY0Sr2GkIJv6B3,001,2025-09-20_01h59.22.063,continuous_performance_test,2024.2.4,Win32,60.0240096,1ac51710-1050-479b-8c12-0655cfe77e51,4,46.575,48.322,space,1,0.516,,0,14,14,1,1,B,space,,,,,,,,,,
,,,,,R_2eY0Sr2GkIJv6B3,001,2025-09-20_01h59.22.063,continuous_performance_test,2024.2.4,Win32,60.0240096,1ac51710-1050-479b-8c12-0655cfe77e51,4,48.325,50.071,space,1,0.334,,0,15,15,10,1,K,space,,,,,,,,,,
,,,,,R_2eY0Sr2GkIJv6B3,001,2025-09-20_01h59.22.063,continuous_performance_test,2024.2.4,Win32,60.0240096,1ac51710-1050-479b-8c12-0655cfe77e51,4,50.074,52.021,,1,,,0,16,16,27,1,X,,,,,,,,,,,
,,,,,R_2eY0Sr2GkIJv6B3,001,2025-09-20_01h59.22.063,continuous_performance_test,2024.2.4,Win32,60.0240096,1ac51710-1050-479b-8c12-0655cfe77e51,4,52.023,53.67,space,1,0.338,,0,17,17,16,1,Q,space,,,,,,,,,,
,,,,,R_2eY0Sr2GkIJv6B3,001,2025-09-20_01h59.22.063,continuous_performance_test,2024.2.4,Win32,60.0240096,1ac51710-1050-479b-8c12-0655cfe77e51,4,53.672,55.47,space,1,0.3,,0,18,18,3,1,D,space,,,,,,,,,,
,,,,,R_2eY0Sr2GkIJv6B3,001,2025-09-20_01h59.22.063,continuous_performance_test,2024.2.4,Win32,60.0240096,1ac51710-1050-479b-8c12-0655cfe77e51,4,55.471,57.169,,1,,,0,19,19,26,1,X,,,,,,,,,,,
,,,,,R_2eY0Sr2GkIJv6B3,001,2025-09-20_01h59.22.063,continuous_performance_test,2024.2.4,Win32,60.0240096,1ac51710-1050-479b-8c12-0655cfe77e51,4,57.171,59.018,space,1,0.301,,0,20,20,18,1,S,space,,,,,,,,,,
,,,,,R_2eY0Sr2GkIJv6B3,001,2025-09-20_01h59.22.063,continuous_performance_test,2024.2.4,Win32,60.0240096,1ac51710-1050-479b-8c12-0655cfe77e51,4,59.02,60.868,space,1,0.3,,0,21,21,15,1,P,space,,,,,,,,,,
,,,,,R_2eY0Sr2GkIJv6B3,001,2025-09-20_01h59.22.063,continuous_performance_test,2024.2.4,Win32,60.0240096,1ac51710-1050-479b-8c12-0655cfe77e51,4,60.871,62.667,space,1,0.395,,0,22,22,22,1,W,space,,,,,,,,,,
,,,,,R_2eY0Sr2GkIJv6B3,001,2025-09-20_01h59.22.063,continuous_performance_test,2024.2.4,Win32,60.0240096,1ac51710-1050-479b-8c12-0655cfe77e51,4,62.669,64.517,,1,,,0,23,23,28,1,X,,,,,,,,,,,
,,,,,R_2eY0Sr2GkIJv6B3,001,2025-09-20_01h59.22.063,continuous_performance_test,2024.2.4,Win32,60.0240096,1ac51710-1050-479b-8c12-0655cfe77e51,4,64.519,66.217,space,1,0.3,,0,24,24,4,1,E,space,,,,,,,,,,
,,,,,R_2eY0Sr2GkIJv6B3,001,2025-09-20_01h59.22.063,continuous_performance_test,2024.2.4,Win32,60.0240096,1ac51710-1050-479b-8c12-0655cfe77e51,4,66.219,67.966,space,1,0.3,,0,25,25,7,1,H,space,,,,,,,,,,
,,,,,R_2eY0Sr2GkIJv6B3,001,2025-09-20_01h59.22.063,continuous_performance_test,2024.2.4,Win32,60.0240096,1ac51710-1050-479b-8c12-0655cfe77e51,4,67.967,69.917,space,1,0.338,,0,26,26,9,1,J,space,,,,,,,,,,
,,,,,R_2eY0Sr2GkIJv6B3,001,2025-09-20_01h59.22.063,continuous_performance_test,2024.2.4,Win32,60.0240096,1ac51710-1050-479b-8c12-0655cfe77e51,4,69.924,71.815,space,1,0.284,,0,27,27,13,1,N,space,,,,,,,,,,
,,,,,R_2eY0Sr2GkIJv6B3,001,2025-09-20_01h59.22.063,continuous_performance_test,2024.2.4,Win32,60.0240096,1ac51710-1050-479b-8c12-0655cfe77e51,4,71.817,73.764,space,1,0.318,,0,28,28,24,1,Z,space,,,,,,,,,,
,,,,,R_2eY0Sr2GkIJv6B3,001,2025-09-20_01h59.22.063,continuous_performance_test,2024.2.4,Win32,60.0240096,1ac51710-1050-479b-8c12-0655cfe77e51,4,73.767,75.614,,1,,,0,29,29,25,1,X,,,,,,,,,,,
,,,,,R_2eY0Sr2GkIJv6B3,001,2025-09-20_01h59.22.063,continuous_performance_test,2024.2.4,Win32,60.0240096,1ac51710-1050-479b-8c12-0655cfe77e51,4,86.259,88.06,space,1,0.42,,0,0,0,7,1,H,space,75.615,86.244,space,10.595,,,,,,
,,,,,R_2eY0Sr2GkIJv6B3,001,2025-09-20_01h59.22.063,continuous_performance_test,2024.2.4,Win32,60.0240096,1ac51710-1050-479b-8c12-0655cfe77e51,4,88.063,89.71,space,1,0.267,,0,1,1,6,1,G,space,,,,,,,,,,
,,,,,R_2eY0Sr2GkIJv6B3,001,2025-09-20_01h59.22.063,continuous_performance_test,2024.2.4,Win32,60.0240096,1ac51710-1050-479b-8c12-0655cfe77e51,4,89.711,91.708,,1,,,0,2,2,26,1,X,,,,,,,,,,,
,,,,,R_2eY0Sr2GkIJv6B3,001,2025-09-20_01h59.22.063,continuous_performance_test,2024.2.4,Win32,60.0240096,1ac51710-1050-479b-8c12-0655cfe77e51,4,91.711,93.259,space,1,0.383,,0,3,3,21,1,V,space,,,,,,,,,,
,,,,,R_2eY0Sr2GkIJv6B3,001,2025-09-20_01h59.22.063,continuous_performance_test,2024.2.4,Win32,60.0240096,1ac51710-1050-479b-8c12-0655cfe77e51,4,93.263,94.958,space,1,0.284,,0,4,4,4,1,E,space,,,,,,,,,,
,,,,,R_2eY0Sr2GkIJv6B3,001,2025-09-20_01h59.22.063,continuous_performance_test,2024.2.4,Win32,60.0240096,1ac51710-1050-479b-8c12-0655cfe77e51,4,94.959,96.557,space,1,0.304,,0,5,5,12,1,M,space,,,,,,,,,,
,,,,,R_2eY0Sr2GkIJv6B3,001,2025-09-20_01h59.22.063,continuous_performance_test,2024.2.4,Win32,60.0240096,1ac51710-1050-479b-8c12-0655cfe77e51,4,96.559,98.457,space,1,0.283,,0,6,6,24,1,Z,space,,,,,,,,,,
,,,,,R_2eY0Sr2GkIJv6B3,001,2025-09-20_01h59.22.063,continuous_performance_test,2024.2.4,Win32,60.0240096,1ac51710-1050-479b-8c12-0655cfe77e51,4,98.459,100.356,space,1,0.404,,0,7,7,19,1,T,space,,,,,,,,,,
,,,,,R_2eY0Sr2GkIJv6B3,001,2025-09-20_01h59.22.063,continuous_performance_test,2024.2.4,Win32,60.0240096,1ac51710-1050-479b-8c12-0655cfe77e51,4,100.363,102.106,space,1,0.318,,0,8,8,5,1,F,space,,,,,,,,,,
,,,,,R_2eY0Sr2GkIJv6B3,001,2025-09-20_01h59.22.063,continuous_performance_test,2024.2.4,Win32,60.0240096,1ac51710-1050-479b-8c12-0655cfe77e51,4,102.11,104.055,space,1,0.335,,0,9,9,3,1,D,space,,,,,,,,,,
,,,,,R_2eY0Sr2GkIJv6B3,001,2025-09-20_01h59.22.063,continuous_performance_test,2024.2.4,Win32,60.0240096,1ac51710-1050-479b-8c12-0655cfe77e51,4,104.057,105.854,,1,,,0,10,10,25,1,X,,,,,,,,,,,
,,,,,R_2eY0Sr2GkIJv6B3,001,2025-09-20_01h59.22.063,continuous_performance_test,2024.2.4,Win32,60.0240096,1ac51710-1050-479b-8c12-0655cfe77e51,4,105.856,107.703,space,1,0.284,,0,11,11,14,1,O,space,,,,,,,,,,
,,,,,R_2eY0Sr2GkIJv6B3,001,2025-09-20_01h59.22.063,continuous_performance_test,2024.2.4,Win32,60.0240096,1ac51710-1050-479b-8c12-0655cfe77e51,4,107.706,109.404,space,1,0.354,,0,12,12,11,1,L,space,,,,,,,,,,
,,,,,R_2eY0Sr2GkIJv6B3,001,2025-09-20_01h59.22.063,continuous_performance_test,2024.2.4,Win32,60.0240096,1ac51710-1050-479b-8c12-0655cfe77e51,4,109.406,111.103,space,1,0.352,,0,13,13,10,1,K,space,,,,,,,,,,
,,,,,R_2eY0Sr2GkIJv6B3,001,2025-09-20_01h59.22.063,continuous_performance_test,2024.2.4,Win32,60.0240096,1ac51710-1050-479b-8c12-0655cfe77e51,4,111.104,113.102,space,1,0.303,,0,14,14,22,1,W,space,,,,,,,,,,
,,,,,R_2eY0Sr2GkIJv6B3,001,2025-09-20_01h59.22.063,continuous_performance_test,2024.2.4,Win32,60.0240096,1ac51710-1050-479b-8c12-0655cfe77e51,4,113.104,114.902,space,1,0.266,,0,15,15,20,1,U,space,,,,,,,,,,
,,,,,R_2eY0Sr2GkIJv6B3,001,2025-09-20_01h59.22.063,continuous_performance_test,2024.2.4,Win32,60.0240096,1ac51710-1050-479b-8c12-0655cfe77e51,4,114.903,116.551,space,1,0.35,,0,16,16,17,1,R,space,,,,,,,,,,
,,,,,R_2eY0Sr2GkIJv6B3,001,2025-09-20_01h59.22.063,continuous_performance_test,2024.2.4,Win32,60.0240096,1ac51710-1050-479b-8c12-0655cfe77e51,4,116.553,118.45,space,1,0.35,,0,17,17,18,1,S,space,,,,,,,,,,
,,,,,R_2eY0Sr2GkIJv6B3,001,2025-09-20_01h59.22.063,continuous_performance_test,2024.2.4,Win32,60.0240096,1ac51710-1050-479b-8c12-0655cfe77e51,4,118.452,120.4,,1,,,0,18,18,29,1,X,,,,,,,,,,,
,,,,,R_2eY0Sr2GkIJv6B3,001,2025-09-20_01h59.22.063,continuous_performance_test,2024.2.4,Win32,60.0240096,1ac51710-1050-479b-8c12-0655cfe77e51,4,120.401,122.199,space,1,0.334,,0,19,19,1,1,B,space,,,,,,,,,,
,,,,,R_2eY0Sr2GkIJv6B3,001,2025-09-20_01h59.22.063,continuous_performance_test,2024.2.4,Win32,60.0240096,1ac51710-1050-479b-8c12-0655cfe77e51,4,122.2,123.899,,1,,,0,20,20,28,1,X,,,,,,,,,,,
,,,,,R_2eY0Sr2GkIJv6B3,001,2025-09-20_01h59.22.063,continuous_performance_test,2024.2.4,Win32,60.0240096,1ac51710-1050-479b-8c12-0655cfe77e51,4,123.9,125.748,space,1,0.315,,0,21,21,23,1,Y,space,,,,,,,,,,
,,,,,R_2eY0Sr2GkIJv6B3,001,2025-09-20_01h59.22.063,continuous_performance_test,2024.2.4,Win32,60.0240096,1ac51710-1050-479b-8c12-0655cfe77e51,4,125.75,127.648,space,1,0.302,,0,22,22,0,1,A,space,,,,,,,,,,
,,,,,R_2eY0Sr2GkIJv6B3,001,2025-09-20_01h59.22.063,continuous_performance_test,2024.2.4,Win32,60.0240096,1ac51710-1050-479b-8c12-0655cfe77e51,4,127.65,129.547,space,1,0.317,,0,23,23,15,1,P,space,,,,,,,,,,
,,,,,R_2eY0Sr2GkIJv6B3,001,2025-09-20_01h59.22.063,continuous_performance_test,2024.2.4,Win32,60.0240096,1ac51710-1050-479b-8c12-0655cfe77e51,4,129.551,131.247,space,1,0.316,,0,24,24,13,1,N,space,,,,,,,,,,
,,,,,R_2eY0Sr2GkIJv6B3,001,2025-09-20_01h59.22.063,continuous_performance_test,2024.2.4,Win32,60.0240096,1ac51710-1050-479b-8c12-0655cfe77e51,4,131.248,133.045,space,1,0.383,,0,25,25,9,1,J,space,,,,,,,,,,
,,,,,R_2eY0Sr2GkIJv6B3,001,2025-09-20_01h59.22.063,continuous_performance_test,2024.2.4,Win32,60.0240096,1ac51710-1050-479b-8c12-0655cfe77e51,4,133.047,134.895,space,0,0.27,,0,26,26,27,1,X,,,,,,,,,,,
,,,,,R_2eY0Sr2GkIJv6B3,001,2025-09-20_01h59.22.063,continuous_performance_test,2024.2.4,Win32,60.0240096,1ac51710-1050-479b-8c12-0655cfe77e51,4,134.901,136.445,space,1,0.367,,0,27,27,2,1,C,space,,,,,,,,,,
,,,,,R_2eY0Sr2GkIJv6B3,001,2025-09-20_01h59.22.063,continuous_performance_test,2024.2.4,Win32,60.0240096,1ac51710-1050-479b-8c12-0655cfe77e51,4,136.448,138.444,space,1,0.368,,0,28,28,16,1,Q,space,,,,,,,,,,
,,,,,R_2eY0Sr2GkIJv6B3,001,2025-09-20_01h59.22.063,continuous_performance_test,2024.2.4,Win32,60.0240096,1ac51710-1050-479b-8c12-0655cfe77e51,4,138.447,140.143,space,1,0.45,,0,29,29,8,1,I,space,,,,,,,,,,
,,,,,R_2eY0Sr2GkIJv6B3,001,2025-09-20_01h59.22.063,continuous_performance_test,2024.2.4,Win32,60.0240096,1ac51710-1050-479b-8c12-0655cfe77e51,4,155.153,157.005,,1,,,0,0,0,26,1,X,,140.145,155.139,,,,,,,,
,,,,,R_2eY0Sr2GkIJv6B3,001,2025-09-20_01h59.22.063,continuous_performance_test,2024.2.4,Win32,60.0240096,1ac51710-1050-479b-8c12-0655cfe77e51,4,157.007,158.704,space,1,0.284,,0,1,1,10,1,K,space,,,,,,,,,,
,,,,,R_2eY0Sr2GkIJv6B3,001,2025-09-20_01h59.22.063,continuous_performance_test,2024.2.4,Win32,60.0240096,1ac51710-1050-479b-8c12-0655cfe77e51,4,158.706,160.354,space,1,0.333,,0,2,2,14,1,O,space,,,,,,,,,,
,,,,,R_2eY0Sr2GkIJv6B3,001,2025-09-20_01h59.22.063,continuous_performance_test,2024.2.4,Win32,60.0240096,1ac51710-1050-479b-8c12-0655cfe77e51,4,160.356,162.004,space,1,0.318,,0,3,3,8,1,I,space,,,,,,,,,,
,,,,,R_2eY0Sr2GkIJv6B3,001,2025-09-20_01h59.22.063,continuous_performance_test,2024.2.4,Win32,60.0240096,1ac51710-1050-479b-8c12-0655cfe77e51,4,162.006,163.953,space,1,0.283,,0,4,4,18,1,S,space,,,,,,,,,,
,,,,,R_2eY0Sr2GkIJv6B3,001,2025-09-20_01h59.22.063,continuous_performance_test,2024.2.4,Win32,60.0240096,1ac51710-1050-479b-8c12-0655cfe77e51,4,163.955,165.902,space,1,0.367,,0,5,5,16,1,Q,space,,,,,,,,,,
,,,,,R_2eY0Sr2GkIJv6B3,001,2025-09-20_01h59.22.063,continuous_performance_test,2024.2.4,Win32,60.0240096,1ac51710-1050-479b-8c12-0655cfe77e51,4,165.905,167.552,space,1,0.384,,0,6,6,20,1,U,space,,,,,,,,,,
,,,,,R_2eY0Sr2GkIJv6B3,001,2025-09-20_01h59.22.063,continuous_performance_test,2024.2.4,Win32,60.0240096,1ac51710-1050-479b-8c12-0655cfe77e51,4,167.554,169.352,space,1,0.351,,0,7,7,19,1,T,space,,,,,,,,,,
,,,,,R_2eY0Sr2GkIJv6B3,001,2025-09-20_01h59.22.063,continuous_performance_test,2024.2.4,Win32,60.0240096,1ac51710-1050-479b-8c12-0655cfe77e51,4,169.356,171.301,space,0,0.28,,0,8,8,27,1,X,,,,,,,,,,,
,,,,,R_2eY0Sr2GkIJv6B3,001,2025-09-20_01h59.22.063,continuous_performance_test,2024.2.4,Win32,60.0240096,1ac51710-1050-479b-8c12-0655cfe77e51,4,171.303,173.3,space,1,0.319,,0,9,9,13,1,N,space,,,,,,,,,,
,,,,,R_2eY0Sr2GkIJv6B3,001,2025-09-20_01h59.22.063,continuous_performance_test,2024.2.4,Win32,60.0240096,1ac51710-1050-479b-8c12-0655cfe77e51,4,173.302,174.95,space,1,0.367,,0,10,10,1,1,B,space,,,,,,,,,,
,,,,,R_2eY0Sr2GkIJv6B3,001,2025-09-20_01h59.22.063,continuous_performance_test,2024.2.4,Win32,60.0240096,1ac51710-1050-479b-8c12-0655cfe77e51,4,174.952,176.948,space,0,0.316,,0,11,11,25,1,X,,,,,,,,,,,
,,,,,R_2eY0Sr2GkIJv6B3,001,2025-09-20_01h59.22.063,continuous_performance_test,2024.2.4,Win32,60.0240096,1ac51710-1050-479b-8c12-0655cfe77e51,4,176.951,178.849,space,0,0.301,,0,12,12,28,1,X,,,,,,,,,,,
,,,,,R_2eY0Sr2GkIJv6B3,001,2025-09-20_01h59.22.063,continuous_performance_test,2024.2.4,Win32,60.0240096,1ac51710-1050-479b-8c12-0655cfe77e51,4,178.851,180.748,space,1,0.401,,0,13,13,24,1,Z,space,,,,,,,,,,
,,,,,R_2eY0Sr2GkIJv6B3,001,2025-09-20_01h59.22.063,continuous_performance_test,2024.2.4,Win32,60.0240096,1ac51710-1050-479b-8c12-0655cfe77e51,4,180.751,182.397,space,1,0.303,,0,14,14,12,1,M,space,,,,,,,,,,
,,,,,R_2eY0Sr2GkIJv6B3,001,2025-09-20_01h59.22.063,continuous_performance_test,2024.2.4,Win32,60.0240096,1ac51710-1050-479b-8c12-0655cfe77e51,4,182.399,184.046,space,1,0.384,,0,15,15,17,1,R,space,,,,,,,,,,
,,,,,R_2eY0Sr2GkIJv6B3,001,2025-09-20_01h59.22.063,continuous_performance_test,2024.2.4,Win32,60.0240096,1ac51710-1050-479b-8c12-0655cfe77e51,4,184.048,185.797,space,1,0.332,,0,16,16,9,1,J,space,,,,,,,,,,
,,,,,R_2eY0Sr2GkIJv6B3,001,2025-09-20_01h59.22.063,continuous_performance_test,2024.2.4,Win32,60.0240096,1ac51710-1050-479b-8c12-0655cfe77e51,4,185.798,187.596,space,1,0.35,,0,17,17,22,1,W,space,,,,,,,,,,
,,,,,R_2eY0Sr2GkIJv6B3,001,2025-09-20_01h59.22.063,continuous_performance_test,2024.2.4,Win32,60.0240096,1ac51710-1050-479b-8c12-0655cfe77e51,4,187.598,189.295,space,1,0.367,,0,18,18,15,1,P,space,,,,,,,,,,
,,,,,R_2eY0Sr2GkIJv6B3,001,2025-09-20_01h59.22.063,continuous_performance_test,2024.2.4,Win32,60.0240096,1ac51710-1050-479b-8c12-0655cfe77e51,4,189.297,191.095,space,1,0.383,,0,19,19,2,1,C,space,,,,,,,,,,
,,,,,R_2eY0Sr2GkIJv6B3,001,2025-09-20_01h59.22.063,continuous_performance_test,2024.2.4,Win32,60.0240096,1ac51710-1050-479b-8c12-0655cfe77e51,4,191.097,192.894,space,1,0.383,,0,20,20,7,1,H,space,,,,,,,,,,
,,,,,R_2eY0Sr2GkIJv6B3,001,2025-09-20_01h59.22.063,continuous_performance_test,2024.2.4,Win32,60.0240096,1ac51710-1050-479b-8c12-0655cfe77e51,4,192.895,194.743,space,1,0.333,,0,21,21,5,1,F,space,,,,,,,,,,
,,,,,R_2eY0Sr2GkIJv6B3,001,2025-09-20_01h59.22.063,continuous_performance_test,2024.2.4,Win32,60.0240096,1ac51710-1050-479b-8c12-0655cfe77e51,4,194.745,196.643,space,1,0.333,,0,22,22,6,1,G,space,,,,,,,,,,
,,,,,R_2eY0Sr2GkIJv6B3,001,2025-09-20_01h59.22.063,continuous_performance_test,2024.2.4,Win32,60.0240096,1ac51710-1050-479b-8c12-0655cfe77e51,4,196.644,198.242,space,1,0.447,,0,23,23,23,1,Y,space,,,,,,,,,,
,,,,,R_2eY0Sr2GkIJv6B3,001,2025-09-20_01h59.22.063,continuous_performance_test,2024.2.4,Win32,60.0240096,1ac51710-1050-479b-8c12-0655cfe77e51,4,198.244,199.992,space,1,0.362,,0,24,24,4,1,E,space,,,,,,,,,,
,,,,,R_2eY0Sr2GkIJv6B3,001,2025-09-20_01h59.22.063,continuous_performance_test,2024.2.4,Win32,60.0240096,1ac51710-1050-479b-8c12-0655cfe77e51,4,199.997,201.692,space,1,0.316,,0,25,25,0,1,A,space,,,,,,,,,,
,,,,,R_2eY0Sr2GkIJv6B3,001,2025-09-20_01h59.22.063,continuous_performance_test,2024.2.4,Win32,60.0240096,1ac51710-1050-479b-8c12-0655cfe77e51,4,201.696,203.34,space,1,0.286,,0,26,26,21,1,V,space,,,,,,,,,,
,,,,,R_2eY0Sr2GkIJv6B3,001,2025-09-20_01h59.22.063,continuous_performance_test,2024.2.4,Win32,60.0240096,1ac51710-1050-479b-8c12-0655cfe77e51,4,203.344,205.24,space,1,0.249,,0,27,27,3,1,D,space,,,,,,,,,,
,,,,,R_2eY0Sr2GkIJv6B3,001,2025-09-20_01h59.22.063,continuous_performance_test,2024.2.4,Win32,60.0240096,1ac51710-1050-479b-8c12-0655cfe77e51,4,205.242,206.99,space,1,0.253,,0,28,28,11,1,L,space,,,,,,,,,,
,,,,,R_2eY0Sr2GkIJv6B3,001,2025-09-20_01h59.22.063,continuous_performance_test,2024.2.4,Win32,60.0240096,1ac51710-1050-479b-8c12-0655cfe77e51,4,206.992,208.84,,1,,,0,29,29,29,1,X,,,,,,,,,,,
,,,,,R_2eY0Sr2GkIJv6B3,001,2025-09-20_01h59.22.063,continuous_performance_test,2024.2.4,Win32,60.0240096,1ac51710-1050-479b-8c12-0655cfe77e51,4,218.151,220.103,space,1,0.368,,0,0,0,23,1,Y,space,208.841,218.136,space,9.265,,,,,,
,,,,,R_2eY0Sr2GkIJv6B3,001,2025-09-20_01h59.22.063,continuous_performance_test,2024.2.4,Win32,60.0240096,1ac51710-1050-479b-8c12-0655cfe77e51,4,220.106,221.802,space,1,0.416,,0,1,1,16,1,Q,space,,,,,,,,,,
,,,,,R_2eY0Sr2GkIJv6B3,001,2025-09-20_01h59.22.063,continuous_performance_test,2024.2.4,Win32,60.0240096,1ac51710-1050-479b-8c12-0655cfe77e51,4,221.804,223.651,space,1,0.318,,0,2,2,9,1,J,space,,,,,,,,,,
,,,,,R_2eY0Sr2GkIJv6B3,001,2025-09-20_01h59.22.063,continuous_performance_test,2024.2.4,Win32,60.0240096,1ac51710-1050-479b-8c12-0655cfe77e51,4,223.653,225.6,space,1,0.351,,0,3,3,1,1,B,space,,,,,,,,,,
,,,,,R_2eY0Sr2GkIJv6B3,001,2025-09-20_01h59.22.063,continuous_performance_test,2024.2.4,Win32,60.0240096,1ac51710-1050-479b-8c12-0655cfe77e51,4,225.602,227.551,space,1,0.283,,0,4,4,5,1,F,space,,,,,,,,,,
,,,,,R_2eY0Sr2GkIJv6B3,001,2025-09-20_01h59.22.063,continuous_performance_test,2024.2.4,Win32,60.0240096,1ac51710-1050-479b-8c12-0655cfe77e51,4,227.553,229.099,space,1,0.434,,0,5,5,19,1,T,space,,,,,,,,,,
,,,,,R_2eY0Sr2GkIJv6B3,001,2025-09-20_01h59.22.063,continuous_performance_test,2024.2.4,Win32,60.0240096,1ac51710-1050-479b-8c12-0655cfe77e51,4,229.101,230.849,space,1,0.3,,0,6,6,8,1,I,space,,,,,,,,,,
,,,,,R_2eY0Sr2GkIJv6B3,001,2025-09-20_01h59.22.063,continuous_performance_test,2024.2.4,Win32,60.0240096,1ac51710-1050-479b-8c12-0655cfe77e51,4,230.851,232.848,space,1,0.387,,0,7,7,4,1,E,space,,,,,,,,,,
,,,,,R_2eY0Sr2GkIJv6B3,001,2025-09-20_01h59.22.063,continuous_performance_test,2024.2.4,Win32,60.0240096,1ac51710-1050-479b-8c12-0655cfe77e51,4,232.85,234.598,space,1,0.332,,0,8,8,3,1,D,space,,,,,,,,,,
,,,,,R_2eY0Sr2GkIJv6B3,001,2025-09-20_01h59.22.063,continuous_performance_test,2024.2.4,Win32,60.0240096,1ac51710-1050-479b-8c12-0655cfe77e51,4,234.602,236.397,,1,,,0,9,9,28,1,X,,,,,,,,,,,
,,,,,R_2eY0Sr2GkIJv6B3,001,2025-09-20_01h59.22.063,continuous_performance_test,2024.2.4,Win32,60.0240096,1ac51710-1050-479b-8c12-0655cfe77e51,4,236.399,238.247,space,1,0.384,,0,10,10,2,1,C,space,,,,,,,,,,
,,,,,R_2eY0Sr2GkIJv6B3,001,2025-09-20_01h59.22.063,continuous_performance_test,2024.2.4,Win32,60.0240096,1ac51710-1050-479b-8c12-0655cfe77e51,4,238.25,240.15,space,1,0.267,,0,11,11,10,1,K,space,,,,,,,,,,
,,,,,R_2eY0Sr2GkIJv6B3,001,2025-09-20_01h59.22.063,continuous_performance_test,2024.2.4,Win32,60.0240096,1ac51710-1050-479b-8c12-0655cfe77e51,4,240.152,242.145,,1,,,0,12,12,29,1,X,,,,,,,,,,,
,,,,,R_2eY0Sr2GkIJv6B3,001,2025-09-20_01h59.22.063,continuous_performance_test,2024.2.4,Win32,60.0240096,1ac51710-1050-479b-8c12-0655cfe77e51,4,242.147,243.896,,1,,,0,13,13,27,1,X,,,,,,,,,,,
,,,,,R_2eY0Sr2GkIJv6B3,001,2025-09-20_01h59.22.063,continuous_performance_test,2024.2.4,Win32,60.0240096,1ac51710-1050-479b-8c12-0655cfe77e51,4,243.899,245.694,space,1,0.318,,0,14,14,14,1,O,space,,,,,,,,,,
,,,,,R_2eY0Sr2GkIJv6B3,001,2025-09-20_01h59.22.063,continuous_performance_test,2024.2.4,Win32,60.0240096,1ac51710-1050-479b-8c12-0655cfe77e51,4,245.696,247.694,space,1,0.333,,0,15,15,21,1,V,space,,,,,,,,,,
,,,,,R_2eY0Sr2GkIJv6B3,001,2025-09-20_01h59.22.063,continuous_performance_test,2024.2.4,Win32,60.0240096,1ac51710-1050-479b-8c12-0655cfe77e51,4,247.696,249.593,space,1,0.367,,0,16,16,12,1,M,space,,,,,,,,,,
,,,,,R_2eY0Sr2GkIJv6B3,001,2025-09-20_01h59.22.063,continuous_performance_test,2024.2.4,Win32,60.0240096,1ac51710-1050-479b-8c12-0655cfe77e51,4,249.595,251.492,space,1,0.318,,0,17,17,7,1,H,space,,,,,,,,,,
,,,,,R_2eY0Sr2GkIJv6B3,001,2025-09-20_01h59.22.063,continuous_performance_test,2024.2.4,Win32,60.0240096,1ac51710-1050-479b-8c12-0655cfe77e51,4,251.494,253.192,space,1,0.433,,0,18,18,15,1,P,space,,,,,,,,,,
,,,,,R_2eY0Sr2GkIJv6B3,001,2025-09-20_01h59.22.063,continuous_performance_test,2024.2.4,Win32,60.0240096,1ac51710-1050-479b-8c12-0655cfe77e51,4,253.195,255.091,space,1,0.254,,0,19,19,13,1,N,space,,,,,,,,,,
,,,,,R_2eY0Sr2GkIJv6B3,001,2025-09-20_01h59.22.063,continuous_performance_test,2024.2.4,Win32,60.0240096,1ac51710-1050-479b-8c12-0655cfe77e51,4,255.093,256.941,space,1,0.316,,0,20,20,11,1,L,space,,,,,,,,,,
,,,,,R_2eY0Sr2GkIJv6B3,001,2025-09-20_01h59.22.063,continuous_performance_test,2024.2.4,Win32,60.0240096,1ac51710-1050-479b-8c12-0655cfe77e51,4,256.943,258.79,space,1,0.3,,0,21,21,0,1,A,space,,,,,,,,,,
,,,,,R_2eY0Sr2GkIJv6B3,001,2025-09-20_01h59.22.063,continuous_performance_test,2024.2.4,Win32,60.0240096,1ac51710-1050-479b-8c12-0655cfe77e51,4,258.791,260.589,space,1,0.318,,0,22,22,17,1,R,space,,,,,,,,,,
,,,,,R_2eY0Sr2GkIJv6B3,001,2025-09-20_01h59.22.063,continuous_performance_test,2024.2.4,Win32,60.0240096,1ac51710-1050-479b-8c12-0655cfe77e51,4,260.591,262.14,space,1,0.367,,0,23,23,24,1,Z,space,,,,,,,,,,
,,,,,R_2eY0Sr2GkIJv6B3,001,2025-09-20_01h59.22.063,continuous_performance_test,2024.2.4,Win32,60.0240096,1ac51710-1050-479b-8c12-0655cfe77e51,4,262.142,264.088,space,1,0.286,,0,24,24,18,1,S,space,,,,,,,,,,
,,,,,R_2eY0Sr2GkIJv6B3,001,2025-09-20_01h59.22.063,continuous_performance_test,2024.2.4,Win32,60.0240096,1ac51710-1050-479b-8c12-0655cfe77e51,4,264.091,265.839,,1,,,0,25,25,26,1,X,,,,,,,,,,,
,,,,,R_2eY0Sr2GkIJv6B3,001,2025-09-20_01h59.22.063,continuous_performance_test,2024.2.4,Win32,60.0240096,1ac51710-1050-479b-8c12-0655cfe77e51,4,265.842,267.538,space,1,0.368,,0,26,26,6,1,G,space,,,,,,,,,,
,,,,,R_2eY0Sr2GkIJv6B3,001,2025-09-20_01h59.22.063,continuous_performance_test,2024.2.4,Win32,60.0240096,1ac51710-1050-479b-8c12-0655cfe77e51,4,267.542,269.237,space,1,0.317,,0,27,27,22,1,W,space,,,,,,,,,,
,,,,,R_2eY0Sr2GkIJv6B3,001,2025-09-20_01h59.22.063,continuous_performance_test,2024.2.4,Win32,60.0240096,1ac51710-1050-479b-8c12-0655cfe77e51,4,269.239,271.187,space,1,0.334,,0,28,28,20,1,U,space,,,,,,,,,,
,,,,,R_2eY0Sr2GkIJv6B3,001,2025-09-20_01h59.22.063,continuous_performance_test,2024.2.4,Win32,60.0240096,1ac51710-1050-479b-8c12-0655cfe77e51,4,271.188,273.085,,1,,,0,29,29,25,1,X,,,,,,,,,,,
,,,,,R_2eY0Sr2GkIJv6B3,001,2025-09-20_01h59.22.063,continuous_performance_test,2024.2.4,Win32,60.0240096,1ac51710-1050-479b-8c12-0655cfe77e51,4,283.544,285.132,space,1,0.366,,0,0,0,15,1,P,space,273.087,283.532,space,10.417,,,,,,
,,,,,R_2eY0Sr2GkIJv6B3,001,2025-09-20_01h59.22.063,continuous_performance_test,2024.2.4,Win32,60.0240096,1ac51710-1050-479b-8c12-0655cfe77e51,4,285.134,287.131,space,1,0.369,,0,1,1,17,1,R,space,,,,,,,,,,
,,,,,R_2eY0Sr2GkIJv6B3,001,2025-09-20_01h59.22.063,continuous_performance_test,2024.2.4,Win32,60.0240096,1ac51710-1050-479b-8c12-0655cfe77e51,4,287.133,288.932,space,1,0.335,,0,2,2,16,1,Q,space,,,,,,,,,,
,,,,,R_2eY0Sr2GkIJv6B3,001,2025-09-20_01h59.22.063,continuous_performance_test,2024.2.4,Win32,60.0240096,1ac51710-1050-479b-8c12-0655cfe77e51,4,288.935,290.931,space,1,0.484,,0,3,3,24,1,Z,space,,,,,,,,,,
,,,,,R_2eY0Sr2GkIJv6B3,001,2025-09-20_01h59.22.063,continuous_performance_test,2024.2.4,Win32,60.0240096,1ac51710-1050-479b-8c12-0655cfe77e51,4,290.932,292.779,space,1,0.316,,0,4,4,18,1,S,space,,,,,,,,,,
,,,,,R_2eY0Sr2GkIJv6B3,001,2025-09-20_01h59.22.063,continuous_performance_test,2024.2.4,Win32,60.0240096,1ac51710-1050-479b-8c12-0655cfe77e51,4,292.784,294.779,space,1,0.304,,0,5,5,22,1,W,space,,,,,,,,,,
,,,,,R_2eY0Sr2GkIJv6B3,001,2025-09-20_01h59.22.063,continuous_performance_test,2024.2.4,Win32,60.0240096,1ac51710-1050-479b-8c12-0655cfe77e51,4,294.78,296.729,space,1,0.302,,0,6,6,20,1,U,space,,,,,,,,,,
,,,,,R_2eY0Sr2GkIJv6B3,001,2025-09-20_01h59.22.063,continuous_performance_test,2024.2.4,Win32,60.0240096,1ac51710-1050-479b-8c12-0655cfe77e51,4,296.732,298.578,space,0,0.317,,0,7,7,28,1,X,,,,,,,,,,,
,,,,,R_2eY0Sr2GkIJv6B3,001,2025-09-20_01h59.22.063,continuous_performance_test,2024.2.4,Win32,60.0240096,1ac51710-1050-479b-8c12-0655cfe77e51,4,298.58,300.577,space,1,0.35,,0,8,8,9,1,J,space,,,,,,,,,,
,,,,,R_2eY0Sr2GkIJv6B3,001,2025-09-20_01h59.22.063,continuous_performance_test,2024.2.4,Win32,60.0240096,1ac51710-1050-479b-8c12-0655cfe77e51,4,300.583,302.377,space,1,0.352,,0,9,9,8,1,I,space,,,,,,,,,,
,,,,,R_2eY0Sr2GkIJv6B3,001,2025-09-20_01h59.22.063,continuous_performance_test,2024.2.4,Win32,60.0240096,1ac51710-1050-479b-8c12-0655cfe77e51,4,302.379,304.226,space,1,0.317,,0,10,10,1,1,B,space,,,,,,,,,,
,,,,,R_2eY0Sr2GkIJv6B3,001,2025-09-20_01h59.22.063,continuous_performance_test,2024.2.4,Win32,60.0240096,1ac51710-1050-479b-8c12-0655cfe77e51,4,304.229,305.876,space,1,0.401,,0,11,11,13,1,N,space,,,,,,,,,,
,,,,,R_2eY0Sr2GkIJv6B3,001,2025-09-20_01h59.22.063,continuous_performance_test,2024.2.4,Win32,60.0240096,1ac51710-1050-479b-8c12-0655cfe77e51,4,305.879,307.725,space,1,0.301,,0,12,12,5,1,F,space,,,,,,,,,,
,,,,,R_2eY0Sr2GkIJv6B3,001,2025-09-20_01h59.22.063,continuous_performance_test,2024.2.4,Win32,60.0240096,1ac51710-1050-479b-8c12-0655cfe77e51,4,307.727,309.725,space,1,0.283,,0,13,13,10,1,K,space,,,,,,,,,,
,,,,,R_2eY0Sr2GkIJv6B3,001,2025-09-20_01h59.22.063,continuous_performance_test,2024.2.4,Win32,60.0240096,1ac51710-1050-479b-8c12-0655cfe77e51,4,309.727,311.274,space,1,0.465,,0,14,14,2,1,C,space,,,,,,,,,,
,,,,,R_2eY0Sr2GkIJv6B3,001,2025-09-20_01h59.22.063,continuous_performance_test,2024.2.4,Win32,60.0240096,1ac51710-1050-479b-8c12-0655cfe77e51,4,311.276,312.924,space,1,0.286,,0,15,15,19,1,T,space,,,,,,,,,,
,,,,,R_2eY0Sr2GkIJv6B3,001,2025-09-20_01h59.22.063,continuous_performance_test,2024.2.4,Win32,60.0240096,1ac51710-1050-479b-8c12-0655cfe77e51,4,312.925,314.622,space,1,0.267,,0,16,16,12,1,M,space,,,,,,,,,,
,,,,,R_2eY0Sr2GkIJv6B3,001,2025-09-20_01h59.22.063,continuous_performance_test,2024.2.4,Win32,60.0240096,1ac51710-1050-479b-8c12-0655cfe77e51,4,314.625,316.222,space,1,0.286,,0,17,17,6,1,G,space,,,,,,,,,,
,,,,,R_2eY0Sr2GkIJv6B3,001,2025-09-20_01h59.22.063,continuous_performance_test,2024.2.4,Win32,60.0240096,1ac51710-1050-479b-8c12-0655cfe77e51,4,316.224,318.072,space,1,0.322,,0,18,18,11,1,L,space,,,,,,,,,,
,,,,,R_2eY0Sr2GkIJv6B3,001,2025-09-20_01h59.22.063,continuous_performance_test,2024.2.4,Win32,60.0240096,1ac51710-1050-479b-8c12-0655cfe77e51,4,318.075,319.871,space,1,0.301,,0,19,19,3,1,D,space,,,,,,,,,,
,,,,,R_2eY0Sr2GkIJv6B3,001,2025-09-20_01h59.22.063,continuous_performance_test,2024.2.4,Win32,60.0240096,1ac51710-1050-479b-8c12-0655cfe77e51,4,319.872,321.621,,1,,,0,20,20,27,1,X,,,,,,,,,,,
,,,,,R_2eY0Sr2GkIJv6B3,001,2025-09-20_01h59.22.063,continuous_performance_test,2024.2.4,Win32,60.0240096,1ac51710-1050-479b-8c12-0655cfe77e51,4,321.622,323.32,space,1,0.286,,0,21,21,7,1,H,space,,,,,,,,,,
,,,,,R_2eY0Sr2GkIJv6B3,001,2025-09-20_01h59.22.063,continuous_performance_test,2024.2.4,Win32,60.0240096,1ac51710-1050-479b-8c12-0655cfe77e51,4,323.323,325.27,space,1,0.268,,0,22,22,4,1,E,space,,,,,,,,,,
,,,,,R_2eY0Sr2GkIJv6B3,001,2025-09-20_01h59.22.063,continuous_performance_test,2024.2.4,Win32,60.0240096,1ac51710-1050-479b-8c12-0655cfe77e51,4,325.271,326.869,space,0,0.305,,0,23,23,25,1,X,,,,,,,,,,,
,,,,,R_2eY0Sr2GkIJv6B3,001,2025-09-20_01h59.22.063,continuous_performance_test,2024.2.4,Win32,60.0240096,1ac51710-1050-479b-8c12-0655cfe77e51,4,326.871,328.869,space,1,0.267,,0,24,24,14,1,O,space,,,,,,,,,,
,,,,,R_2eY0Sr2GkIJv6B3,001,2025-09-20_01h59.22.063,continuous_performance_test,2024.2.4,Win32,60.0240096,1ac51710-1050-479b-8c12-0655cfe77e51,4,328.87,330.468,,1,,,0,25,25,26,1,X,,,,,,,,,,,
,,,,,R_2eY0Sr2GkIJv6B3,001,2025-09-20_01h59.22.063,continuous_performance_test,2024.2.4,Win32,60.0240096,1ac51710-1050-479b-8c12-0655cfe77e51,4,330.471,332.018,space,1,0.352,,0,26,26,0,1,A,space,,,,,,,,,,
,,,,,R_2eY0Sr2GkIJv6B3,001,2025-09-20_01h59.22.063,continuous_performance_test,2024.2.4,Win32,60.0240096,1ac51710-1050-479b-8c12-0655cfe77e51,4,332.019,334.017,space,1,0.284,,0,27,27,23,1,Y,space,,,,,,,,,,
,,,,,R_2eY0Sr2GkIJv6B3,001,2025-09-20_01h59.22.063,continuous_performance_test,2024.2.4,Win32,60.0240096,1ac51710-1050-479b-8c12-0655cfe77e51,4,334.019,336.016,space,1,0.453,,0,28,28,21,1,V,space,,,,,,,,,,
,,,,,R_2eY0Sr2GkIJv6B3,001,2025-09-20_01h59.22.063,continuous_performance_test,2024.2.4,Win32,60.0240096,1ac51710-1050-479b-8c12-0655cfe77e51,4,336.02,337.716,,1,,,0,29,29,29,1,X,,,,,,,,,,,
,,,,,R_2eY0Sr2GkIJv6B3,001,2025-09-20_01h59.22.063,continuous_performance_test,2024.2.4,Win32,60.0240096,1ac51710-1050-479b-8c12-0655cfe77e51,4,351.073,352.662,,1,,,0,0,0,29,1,X,,337.718,351.061,space,13.319,,,,,,
,,,,,R_2eY0Sr2GkIJv6B3,001,2025-09-20_01h59.22.063,continuous_performance_test,2024.2.4,Win32,60.0240096,1ac51710-1050-479b-8c12-0655cfe77e51,4,352.664,354.46,space,1,0.299,,0,1,1,18,1,S,space,,,,,,,,,,
,,,,,R_2eY0Sr2GkIJv6B3,001,2025-09-20_01h59.22.063,continuous_performance_test,2024.2.4,Win32,60.0240096,1ac51710-1050-479b-8c12-0655cfe77e51,4,354.463,356.26,space,1,0.35,,0,2,2,20,1,U,space,,,,,,,,,,
,,,,,R_2eY0Sr2GkIJv6B3,001,2025-09-20_01h59.22.063,continuous_performance_test,2024.2.4,Win32,60.0240096,1ac51710-1050-479b-8c12-0655cfe77e51,4,356.263,358.209,space,1,0.283,,0,3,3,21,1,V,space,,,,,,,,,,
,,,,,R_2eY0Sr2GkIJv6B3,001,2025-09-20_01h59.22.063,continuous_performance_test,2024.2.4,Win32,60.0240096,1ac51710-1050-479b-8c12-0655cfe77e51,4,358.213,360.059,,1,,,0,4,4,26,1,X,,,,,,,,,,,
,,,,,R_2eY0Sr2GkIJv6B3,001,2025-09-20_01h59.22.063,continuous_performance_test,2024.2.4,Win32,60.0240096,1ac51710-1050-479b-8c12-0655cfe77e51,4,360.06,362.008,space,0,0.283,,0,5,5,28,1,X,,,,,,,,,,,
,,,,,R_2eY0Sr2GkIJv6B3,001,2025-09-20_01h59.22.063,continuous_performance_test,2024.2.4,Win32,60.0240096,1ac51710-1050-479b-8c12-0655cfe77e51,4,362.01,363.808,space,1,0.302,,0,6,6,5,1,F,space,,,,,,,,,,
,,,,,R_2eY0Sr2GkIJv6B3,001,2025-09-20_01h59.22.063,continuous_performance_test,2024.2.4,Win32,60.0240096,1ac51710-1050-479b-8c12-0655cfe77e51,4,363.809,365.607,space,1,0.572,,0,7,7,10,1,K,space,,,,,,,,,,
,,,,,R_2eY0Sr2GkIJv6B3,001,2025-09-20_01h59.22.063,continuous_performance_test,2024.2.4,Win32,60.0240096,1ac51710-1050-479b-8c12-0655cfe77e51,4,365.611,367.556,space,1,0.3,,0,8,8,13,1,N,space,,,,,,,,,,
,,,,,R_2eY0Sr2GkIJv6B3,001,2025-09-20_01h59.22.063,continuous_performance_test,2024.2.4,Win32,60.0240096,1ac51710-1050-479b-8c12-0655cfe77e51,4,367.558,369.106,space,1,0.4,,0,9,9,11,1,L,space,,,,,,,,,,
,,,,,R_2eY0Sr2GkIJv6B3,001,2025-09-20_01h59.22.063,continuous_performance_test,2024.2.4,Win32,60.0240096,1ac51710-1050-479b-8c12-0655cfe77e51,4,369.108,370.805,space,1,0.383,,0,10,10,17,1,R,space,,,,,,,,,,
,,,,,R_2eY0Sr2GkIJv6B3,001,2025-09-20_01h59.22.063,continuous_performance_test,2024.2.4,Win32,60.0240096,1ac51710-1050-479b-8c12-0655cfe77e51,4,370.808,372.455,space,1,0.337,,0,11,11,7,1,H,space,,,,,,,,,,
,,,,,R_2eY0Sr2GkIJv6B3,001,2025-09-20_01h59.22.063,continuous_performance_test,2024.2.4,Win32,60.0240096,1ac51710-1050-479b-8c12-0655cfe77e51,4,372.457,374.305,space,1,0.299,,0,12,12,15,1,P,space,,,,,,,,,,
,,,,,R_2eY0Sr2GkIJv6B3,001,2025-09-20_01h59.22.063,continuous_performance_test,2024.2.4,Win32,60.0240096,1ac51710-1050-479b-8c12-0655cfe77e51,4,374.308,375.954,space,1,0.325,,0,13,13,0,1,A,space,,,,,,,,,,
,,,,,R_2eY0Sr2GkIJv6B3,001,2025-09-20_01h59.22.063,continuous_performance_test,2024.2.4,Win32,60.0240096,1ac51710-1050-479b-8c12-0655cfe77e51,4,375.956,377.953,space,1,0.301,,0,14,14,23,1,Y,space,,,,,,,,,,
,,,,,R_2eY0Sr2GkIJv6B3,001,2025-09-20_01h59.22.063,continuous_performance_test,2024.2.4,Win32,60.0240096,1ac51710-1050-479b-8c12-0655cfe77e51,4,377.955,379.753,space,1,0.466,,0,15,15,14,1,O,space,,,,,,,,,,
,,,,,R_2eY0Sr2GkIJv6B3,001,2025-09-20_01h59.22.063,continuous_performance_test,2024.2.4,Win32,60.0240096,1ac51710-1050-479b-8c12-0655cfe77e51,4,379.754,381.552,space,1,0.3,,0,16,16,6,1,G,space,,,,,,,,,,
,,,,,R_2eY0Sr2GkIJv6B3,001,2025-09-20_01h59.22.063,continuous_performance_test,2024.2.4,Win32,60.0240096,1ac51710-1050-479b-8c12-0655cfe77e51,4,381.554,383.552,space,1,0.318,,0,17,17,9,1,J,space,,,,,,,,,,
,,,,,R_2eY0Sr2GkIJv6B3,001,2025-09-20_01h59.22.063,continuous_performance_test,2024.2.4,Win32,60.0240096,1ac51710-1050-479b-8c12-0655cfe77e51,4,383.553,385.55,space,1,0.266,,0,18,18,3,1,D,space,,,,,,,,,,
,,,,,R_2eY0Sr2GkIJv6B3,001,2025-09-20_01h59.22.063,continuous_performance_test,2024.2.4,Win32,60.0240096,1ac51710-1050-479b-8c12-0655cfe77e51,4,385.552,387.2,,1,,,0,19,19,25,1,X,,,,,,,,,,,
,,,,,R_2eY0Sr2GkIJv6B3,001,2025-09-20_01h59.22.063,continuous_performance_test,2024.2.4,Win32,60.0240096,1ac51710-1050-479b-8c12-0655cfe77e51,4,387.202,389.15,space,1,0.383,,0,20,20,2,1,C,space,,,,,,,,,,
,,,,,R_2eY0Sr2GkIJv6B3,001,2025-09-20_01h59.22.063,continuous_performance_test,2024.2.4,Win32,60.0240096,1ac51710-1050-479b-8c12-0655cfe77e51,4,389.155,390.799,space,1,0.349,,0,21,21,8,1,I,space,,,,,,,,,,
,,,,,R_2eY0Sr2GkIJv6B3,001,2025-09-20_01h59.22.063,continuous_performance_test,2024.2.4,Win32,60.0240096,1ac51710-1050-479b-8c12-0655cfe77e51,4,390.801,392.798,space,1,0.318,,0,22,22,19,1,T,space,,,,,,,,,,
,,,,,R_2eY0Sr2GkIJv6B3,001,2025-09-20_01h59.22.063,continuous_performance_test,2024.2.4,Win32,60.0240096,1ac51710-1050-479b-8c12-0655cfe77e51,4,392.8,394.749,space,1,0.267,,0,23,23,12,1,M,space,,,,,,,,,,
,,,,,R_2eY0Sr2GkIJv6B3,001,2025-09-20_01h59.22.063,continuous_performance_test,2024.2.4,Win32,60.0240096,1ac51710-1050-479b-8c12-0655cfe77e51,4,394.75,396.347,space,1,0.399,,0,24,24,16,1,Q,space,,,,,,,,,,
,,,,,R_2eY0Sr2GkIJv6B3,001,2025-09-20_01h59.22.063,continuous_performance_test,2024.2.4,Win32,60.0240096,1ac51710-1050-479b-8c12-0655cfe77e51,4,396.349,398.147,space,1,0.306,,0,25,25,4,1,E,space,,,,,,,,,,
,,,,,R_2eY0Sr2GkIJv6B3,001,2025-09-20_01h59.22.063,continuous_performance_test,2024.2.4,Win32,60.0240096,1ac51710-1050-479b-8c12-0655cfe77e51,4,398.152,399.897,space,1,0.363,,0,26,26,22,1,W,space,,,,,,,,,,
,,,,,R_2eY0Sr2GkIJv6B3,001,2025-09-20_01h59.22.063,continuous_performance_test,2024.2.4,Win32,60.0240096,1ac51710-1050-479b-8c12-0655cfe77e51,4,399.9,401.846,space,1,0.25,,0,27,27,1,1,B,space,,,,,,,,,,
,,,,,R_2eY0Sr2GkIJv6B3,001,2025-09-20_01h59.22.063,continuous_performance_test,2024.2.4,Win32,60.0240096,1ac51710-1050-479b-8c12-0655cfe77e51,4,401.848,403.445,space,1,0.287,,0,28,28,24,1,Z,space,,,,,,,,,,
,,,,,R_2eY0Sr2GkIJv6B3,001,2025-09-20_01h59.22.063,continuous_performance_test,2024.2.4,Win32,60.0240096,1ac51710-1050-479b-8c12-0655cfe77e51,4,403.45,405.295,space,0,0.267,,0,29,29,27,1,X,,,,,,,,,,,
,,,,,R_2eY0Sr2GkIJv6B3,001,2025-09-20_01h59.22.063,continuous_performance_test,2024.2.4,Win32,60.0240096,1ac51710-1050-479b-8c12-0655cfe77e51,4,416.52,418.524,space,0,0.317,,0,0,0,25,1,X,,405.296,416.508,space,11.179,,,,,,
,,,,,R_2eY0Sr2GkIJv6B3,001,2025-09-20_01h59.22.063,continuous_performance_test,2024.2.4,Win32,60.0240096,1ac51710-1050-479b-8c12-0655cfe77e51,4,418.525,420.174,space,1,0.317,,0,1,1,1,1,B,space,,,,,,,,,,
,,,,,R_2eY0Sr2GkIJv6B3,001,2025-09-20_01h59.22.063,continuous_performance_test,2024.2.4,Win32,60.0240096,1ac51710-1050-479b-8c12-0655cfe77e51,4,420.176,421.923,space,1,0.283,,0,2,2,20,1,U,space,,,,,,,,,,
,,,,,R_2eY0Sr2GkIJv6B3,001,2025-09-20_01h59.22.063,continuous_performance_test,2024.2.4,Win32,60.0240096,1ac51710-1050-479b-8c12-0655cfe77e51,4,421.925,423.572,space,1,0.318,,0,3,3,24,1,Z,space,,,,,,,,,,
,,,,,R_2eY0Sr2GkIJv6B3,001,2025-09-20_01h59.22.063,continuous_performance_test,2024.2.4,Win32,60.0240096,1ac51710-1050-479b-8c12-0655cfe77e51,4,423.574,425.472,space,1,0.3,,0,4,4,8,1,I,space,,,,,,,,,,
,,,,,R_2eY0Sr2GkIJv6B3,001,2025-09-20_01h59.22.063,continuous_performance_test,2024.2.4,Win32,60.0240096,1ac51710-1050-479b-8c12-0655cfe77e51,4,425.474,427.022,space,1,0.296,,0,5,5,22,1,W,space,,,,,,,,,,
,,,,,R_2eY0Sr2GkIJv6B3,001,2025-09-20_01h59.22.063,continuous_performance_test,2024.2.4,Win32,60.0240096,1ac51710-1050-479b-8c12-0655cfe77e51,4,427.025,428.621,space,1,0.303,,0,6,6,5,1,F,space,,,,,,,,,,
,,,,,R_2eY0Sr2GkIJv6B3,001,2025-09-20_01h59.22.063,continuous_performance_test,2024.2.4,Win32,60.0240096,1ac51710-1050-479b-8c12-0655cfe77e51,4,428.623,430.221,space,1,0.3,,0,7,7,9,1,J,space,,,,,,,,,,
,,,,,R_2eY0Sr2GkIJv6B3,001,2025-09-20_01h59.22.063,continuous_performance_test,2024.2.4,Win32,60.0240096,1ac51710-1050-479b-8c12-0655cfe77e51,4,430.222,431.771,space,0,0.268,,0,8,8,27,1,X,,,,,,,,,,,
,,,,,R_2eY0Sr2GkIJv6B3,001,2025-09-20_01h59.22.063,continuous_performance_test,2024.2.4,Win32,60.0240096,1ac51710-1050-479b-8c12-0655cfe77e51,4,431.779,433.32,space,1,0.287,,0,9,9,13,1,N,space,,,,,,,,,,
,,,,,R_2eY0Sr2GkIJv6B3,001,2025-09-20_01h59.22.063,continuous_performance_test,2024.2.4,Win32,60.0240096,1ac51710-1050-479b-8c12-0655cfe77e51,4,433.324,435.018,space,1,0.334,,0,10,10,3,1,D,space,,,,,,,,,,
,,,,,R_2eY0Sr2GkIJv6B3,001,2025-09-20_01h59.22.063,continuous_performance_test,2024.2.4,Win32,60.0240096,1ac51710-1050-479b-8c12-0655cfe77e51,4,435.021,436.569,space,1,0.25,,0,11,11,21,1,V,space,,,,,,,,,,
,,,,,R_2eY0Sr2GkIJv6B3,001,2025-09-20_01h59.22.063,continuous_performance_test,2024.2.4,Win32,60.0240096,1ac51710-1050-479b-8c12-0655cfe77e51,4,436.57,438.218,space,1,0.284,,0,12,12,11,1,L,space,,,,,,,,,,
,,,,,R_2eY0Sr2GkIJv6B3,001,2025-09-20_01h59.22.063,continuous_performance_test,2024.2.4,Win32,60.0240096,1ac51710-1050-479b-8c12-0655cfe77e51,4,438.22,439.917,space,1,0.318,,0,13,13,7,1,H,space,,,,,,,,,,
,,,,,R_2eY0Sr2GkIJv6B3,001,2025-09-20_01h59.22.063,continuous_performance_test,2024.2.4,Win32,60.0240096,1ac51710-1050-479b-8c12-0655cfe77e51,4,439.919,441.517,space,1,0.316,,0,14,14,12,1,M,space,,,,,,,,,,
,,,,,R_2eY0Sr2GkIJv6B3,001,2025-09-20_01h59.22.063,continuous_performance_test,2024.2.4,Win32,60.0240096,1ac51710-1050-479b-8c12-0655cfe77e51,4,441.52,443.266,,1,,,0,15,15,28,1,X,,,,,,,,,,,
,,,,,R_2eY0Sr2GkIJv6B3,001,2025-09-20_01h59.22.063,continuous_performance_test,2024.2.4,Win32,60.0240096,1ac51710-1050-479b-8c12-0655cfe77e51,4,443.268,445.266,space,1,0.32,,0,16,16,17,1,R,space,,,,,,,,,,
,,,,,R_2eY0Sr2GkIJv6B3,001,2025-09-20_01h59.22.063,continuous_performance_test,2024.2.4,Win32,60.0240096,1ac51710-1050-479b-8c12-0655cfe77e51,4,445.268,447.065,space,1,0.317,,0,17,17,0,1,A,space,,,,,,,,,,
,,,,,R_2eY0Sr2GkIJv6B3,001,2025-09-20_01h59.22.063,continuous_performance_test,2024.2.4,Win32,60.0240096,1ac51710-1050-479b-8c12-0655cfe77e51,4,447.069,448.865,space,1,0.537,,0,18,18,10,1,K,space,,,,,,,,,,
,,,,,R_2eY0Sr2GkIJv6B3,001,2025-09-20_01h59.22.063,continuous_performance_test,2024.2.4,Win32,60.0240096,1ac51710-1050-479b-8c12-0655cfe77e51,4,448.867,450.864,space,1,0.3,,0,19,19,23,1,Y,space,,,,,,,,,,
,,,,,R_2eY0Sr2GkIJv6B3,001,2025-09-20_01h59.22.063,continuous_performance_test,2024.2.4,Win32,60.0240096,1ac51710-1050-479b-8c12-0655cfe77e51,4,450.868,452.413,space,1,0.417,,0,20,20,16,1,Q,space,,,,,,,,,,
,,,,,R_2eY0Sr2GkIJv6B3,001,2025-09-20_01h59.22.063,continuous_performance_test,2024.2.4,Win32,60.0240096,1ac51710-1050-479b-8c12-0655cfe77e51,4,452.415,454.263,space,1,0.267,,0,21,21,15,1,P,space,,,,,,,,,,
,,,,,R_2eY0Sr2GkIJv6B3,001,2025-09-20_01h59.22.063,continuous_performance_test,2024.2.4,Win32,60.0240096,1ac51710-1050-479b-8c12-0655cfe77e51,4,454.264,455.912,space,1,0.339,,0,22,22,2,1,C,space,,,,,,,,,,
,,,,,R_2eY0Sr2GkIJv6B3,001,2025-09-20_01h59.22.063,continuous_performance_test,2024.2.4,Win32,60.0240096,1ac51710-1050-479b-8c12-0655cfe77e51,4,455.914,457.462,space,1,0.286,,0,23,23,18,1,S,space,,,,,,,,,,
,,,,,R_2eY0Sr2GkIJv6B3,001,2025-09-20_01h59.22.063,continuous_performance_test,2024.2.4,Win32,60.0240096,1ac51710-1050-479b-8c12-0655cfe77e51,4,457.464,459.012,space,1,0.301,,0,24,24,6,1,G,space,,,,,,,,,,
,,,,,R_2eY0Sr2GkIJv6B3,001,2025-09-20_01h59.22.063,continuous_performance_test,2024.2.4,Win32,60.0240096,1ac51710-1050-479b-8c12-0655cfe77e51,4,459.013,460.765,space,1,0.3,,0,25,25,4,1,E,space,,,,,,,,,,
,,,,,R_2eY0Sr2GkIJv6B3,001,2025-09-20_01h59.22.063,continuous_performance_test,2024.2.4,Win32,60.0240096,1ac51710-1050-479b-8c12-0655cfe77e51,4,460.766,462.66,,1,,,0,26,26,29,1,X,,,,,,,,,,,
,,,,,R_2eY0Sr2GkIJv6B3,001,2025-09-20_01h59.22.063,continuous_performance_test,2024.2.4,Win32,60.0240096,1ac51710-1050-479b-8c12-0655cfe77e51,4,462.661,464.31,space,0,0.321,,0,27,27,26,1,X,,,,,,,,,,,
,,,,,R_2eY0Sr2GkIJv6B3,001,2025-09-20_01h59.22.063,continuous_performance_test,2024.2.4,Win32,60.0240096,1ac51710-1050-479b-8c12-0655cfe77e51,4,464.312,466.209,space,1,0.316,,0,28,28,14,1,O,space,,,,,,,,,,
,,,,,R_2eY0Sr2GkIJv6B3,001,2025-09-20_01h59.22.063,continuous_performance_test,2024.2.4,Win32,60.0240096,1ac51710-1050-479b-8c12-0655cfe77e51,4,466.214,468.158,space,1,0.337,,0,29,29,19,1,T,space,,,,,,,,,,
,,,,,R_2eY0Sr2GkIJv6B3,001,2025-09-20_01h59.22.063,continuous_performance_test,2024.2.4,Win32,60.0240096,1ac51710-1050-479b-8c12-0655cfe77e51,4,475.457,477.056,space,1,0.352,,0,0,0,1,1,B,space,468.16,475.439,space,7.25,,,,,,
,,,,,R_2eY0Sr2GkIJv6B3,001,2025-09-20_01h59.22.063,continuous_performance_test,2024.2.4,Win32,60.0240096,1ac51710-1050-479b-8c12-0655cfe77e51,4,477.059,478.755,,1,,,0,1,1,29,1,X,,,,,,,,,,,
,,,,,R_2eY0Sr2GkIJv6B3,001,2025-09-20_01h59.22.063,continuous_performance_test,2024.2.4,Win32,60.0240096,1ac51710-1050-479b-8c12-0655cfe77e51,4,478.758,480.504,space,1,0.3,,0,2,2,21,1,V,space,,,,,,,,,,
,,,,,R_2eY0Sr2GkIJv6B3,001,2025-09-20_01h59.22.063,continuous_performance_test,2024.2.4,Win32,60.0240096,1ac51710-1050-479b-8c12-0655cfe77e51,4,480.506,482.154,space,1,0.284,,0,3,3,18,1,S,space,,,,,,,,,,
,,,,,R_2eY0Sr2GkIJv6B3,001,2025-09-20_01h59.22.063,continuous_performance_test,2024.2.4,Win32,60.0240096,1ac51710-1050-479b-8c12-0655cfe77e51,4,482.156,484.004,space,1,0.483,,0,4,4,16,1,Q,space,,,,,,,,,,
,,,,,R_2eY0Sr2GkIJv6B3,001,2025-09-20_01h59.22.063,continuous_performance_test,2024.2.4,Win32,60.0240096,1ac51710-1050-479b-8c12-0655cfe77e51,4,484.006,485.753,space,1,0.286,,0,5,5,20,1,U,space,,,,,,,,,,
,,,,,R_2eY0Sr2GkIJv6B3,001,2025-09-20_01h59.22.063,continuous_performance_test,2024.2.4,Win32,60.0240096,1ac51710-1050-479b-8c12-0655cfe77e51,4,485.755,487.353,space,1,0.4,,0,6,6,8,1,I,space,,,,,,,,,,
,,,,,R_2eY0Sr2GkIJv6B3,001,2025-09-20_01h59.22.063,continuous_performance_test,2024.2.4,Win32,60.0240096,1ac51710-1050-479b-8c12-0655cfe77e51,4,487.355,488.952,space,1,0.335,,0,7,7,3,1,D,space,,,,,,,,,,
,,,,,R_2eY0Sr2GkIJv6B3,001,2025-09-20_01h59.22.063,continuous_performance_test,2024.2.4,Win32,60.0240096,1ac51710-1050-479b-8c12-0655cfe77e51,4,488.955,490.602,space,1,0.267,,0,8,8,13,1,N,space,,,,,,,,,,
,,,,,R_2eY0Sr2GkIJv6B3,001,2025-09-20_01h59.22.063,continuous_performance_test,2024.2.4,Win32,60.0240096,1ac51710-1050-479b-8c12-0655cfe77e51,4,490.604,492.601,space,0,0.284,,0,9,9,25,1,X,,,,,,,,,,,
,,,,,R_2eY0Sr2GkIJv6B3,001,2025-09-20_01h59.22.063,continuous_performance_test,2024.2.4,Win32,60.0240096,1ac51710-1050-479b-8c12-0655cfe77e51,4,492.601,494.501,space,0,0.317,,0,10,10,28,1,X,,,,,,,,,,,
,,,,,R_2eY0Sr2GkIJv6B3,001,2025-09-20_01h59.22.063,continuous_performance_test,2024.2.4,Win32,60.0240096,1ac51710-1050-479b-8c12-0655cfe77e51,4,494.502,496.3,space,1,0.433,,0,11,11,4,1,E,space,,,,,,,,,,
,,,,,R_2eY0Sr2GkIJv6B3,001,2025-09-20_01h59.22.063,continuous_performance_test,2024.2.4,Win32,60.0240096,1ac51710-1050-479b-8c12-0655cfe77e51,4,496.301,497.999,space,1,0.38,,0,12,12,22,1,W,space,,,,,,,,,,
,,,,,R_2eY0Sr2GkIJv6B3,001,2025-09-20_01h59.22.063,continuous_performance_test,2024.2.4,Win32,60.0240096,1ac51710-1050-479b-8c12-0655cfe77e51,4,498,499.6,,1,,,0,13,13,26,1,X,,,,,,,,,,,
,,,,,R_2eY0Sr2GkIJv6B3,001,2025-09-20_01h59.22.063,continuous_performance_test,2024.2.4,Win32,60.0240096,1ac51710-1050-479b-8c12-0655cfe77e51,4,499.604,501.499,space,1,0.268,,0,14,14,11,1,L,space,,,,,,,,,,
,,,,,R_2eY0Sr2GkIJv6B3,001,2025-09-20_01h59.22.063,continuous_performance_test,2024.2.4,Win32,60.0240096,1ac51710-1050-479b-8c12-0655cfe77e51,4,501.503,503.248,space,1,0.334,,0,15,15,10,1,K,space,,,,,,,,,,
,,,,,R_2eY0Sr2GkIJv6B3,001,2025-09-20_01h59.22.063,continuous_performance_test,2024.2.4,Win32,60.0240096,1ac51710-1050-479b-8c12-0655cfe77e51,4,503.251,505.247,space,1,0.266,,0,16,16,17,1,R,space,,,,,,,,,,
,,,,,R_2eY0Sr2GkIJv6B3,001,2025-09-20_01h59.22.063,continuous_performance_test,2024.2.4,Win32,60.0240096,1ac51710-1050-479b-8c12-0655cfe77e51,4,505.249,507.046,space,1,0.255,,0,17,17,24,1,Z,space,,,,,,,,,,
,,,,,R_2eY0Sr2GkIJv6B3,001,2025-09-20_01h59.22.063,continuous_performance_test,2024.2.4,Win32,60.0240096,1ac51710-1050-479b-8c12-0655cfe77e51,4,507.049,508.896,space,1,0.284,,0,18,18,19,1,T,space,,,,,,,,,,
,,,,,R_2eY0Sr2GkIJv6B3,001,2025-09-20_01h59.22.063,continuous_performance_test,2024.2.4,Win32,60.0240096,1ac51710-1050-479b-8c12-0655cfe77e51,4,508.898,510.596,space,1,0.35,,0,19,19,14,1,O,space,,,,,,,,,,
,,,,,R_2eY0Sr2GkIJv6B3,001,2025-09-20_01h59.22.063,continuous_performance_test,2024.2.4,Win32,60.0240096,1ac51710-1050-479b-8c12-0655cfe77e51,4,510.597,512.595,space,1,0.237,,0,20,20,9,1,J,space,,,,,,,,,,
,,,,,R_2eY0Sr2GkIJv6B3,001,2025-09-20_01h59.22.063,continuous_performance_test,2024.2.4,Win32,60.0240096,1ac51710-1050-479b-8c12-0655cfe77e51,4,512.596,514.594,space,1,0.251,,0,21,21,7,1,H,space,,,,,,,,,,
,,,,,R_2eY0Sr2GkIJv6B3,001,2025-09-20_01h59.22.063,continuous_performance_test,2024.2.4,Win32,60.0240096,1ac51710-1050-479b-8c12-0655cfe77e51,4,514.597,516.244,space,1,0.252,,0,22,22,15,1,P,space,,,,,,,,,,
,,,,,R_2eY0Sr2GkIJv6B3,001,2025-09-20_01h59.22.063,continuous_performance_test,2024.2.4,Win32,60.0240096,1ac51710-1050-479b-8c12-0655cfe77e51,4,516.246,517.993,space,1,0.233,,0,23,23,0,1,A,space,,,,,,,,,,
,,,,,R_2eY0Sr2GkIJv6B3,001,2025-09-20_01h59.22.063,continuous_performance_test,2024.2.4,Win32,60.0240096,1ac51710-1050-479b-8c12-0655cfe77e51,4,517.996,519.893,space,1,0.289,,0,24,24,6,1,G,space,,,,,,,,,,
,,,,,R_2eY0Sr2GkIJv6B3,001,2025-09-20_01h59.22.063,continuous_performance_test,2024.2.4,Win32,60.0240096,1ac51710-1050-479b-8c12-0655cfe77e51,4,519.897,521.492,space,1,0.319,,0,25,25,5,1,F,space,,,,,,,,,,
,,,,,R_2eY0Sr2GkIJv6B3,001,2025-09-20_01h59.22.063,continuous_performance_test,2024.2.4,Win32,60.0240096,1ac51710-1050-479b-8c12-0655cfe77e51,4,521.495,523.192,space,1,0.257,,0,26,26,23,1,Y,space,,,,,,,,,,
,,,,,R_2eY0Sr2GkIJv6B3,001,2025-09-20_01h59.22.063,continuous_performance_test,2024.2.4,Win32,60.0240096,1ac51710-1050-479b-8c12-0655cfe77e51,4,523.193,524.891,space,1,0.301,,0,27,27,12,1,M,space,,,,,,,,,,
,,,,,R_2eY0Sr2GkIJv6B3,001,2025-09-20_01h59.22.063,continuous_performance_test,2024.2.4,Win32,60.0240096,1ac51710-1050-479b-8c12-0655cfe77e51,4,524.892,526.841,space,0,0.252,,0,28,28,27,1,X,,,,,,,,,,,
,,,,,R_2eY0Sr2GkIJv6B3,001,2025-09-20_01h59.22.063,continuous_performance_test,2024.2.4,Win32,60.0240096,1ac51710-1050-479b-8c12-0655cfe77e51,4,526.843,528.49,space,1,0.285,,0,29,29,2,1,C,space,,,,,,,,,,
,,,,,R_2eY0Sr2GkIJv6B3,001,2025-09-20_01h59.22.063,continuous_performance_test,2024.2.4,Win32,60.0240096,1ac51710-1050-479b-8c12-0655cfe77e51,4,534.836,536.387,space,1,0.402,,0,0,0,23,1,Y,space,528.491,534.822,space,6.299,,,,,,
,,,,,R_2eY0Sr2GkIJv6B3,001,2025-09-20_01h59.22.063,continuous_performance_test,2024.2.4,Win32,60.0240096,1ac51710-1050-479b-8c12-0655cfe77e51,4,536.39,538.137,space,1,0.299,,0,1,1,13,1,N,space,,,,,,,,,,
,,,,,R_2eY0Sr2GkIJv6B3,001,2025-09-20_01h59.22.063,continuous_performance_test,2024.2.4,Win32,60.0240096,1ac51710-1050-479b-8c12-0655cfe77e51,4,538.14,539.837,space,0,0.301,,0,2,2,25,1,X,,,,,,,,,,,
,,,,,R_2eY0Sr2GkIJv6B3,001,2025-09-20_01h59.22.063,continuous_performance_test,2024.2.4,Win32,60.0240096,1ac51710-1050-479b-8c12-0655cfe77e51,4,539.838,541.835,space,1,0.564,,0,3,3,1,1,B,space,,,,,,,,,,
,,,,,R_2eY0Sr2GkIJv6B3,001,2025-09-20_01h59.22.063,continuous_performance_test,2024.2.4,Win32,60.0240096,1ac51710-1050-479b-8c12-0655cfe77e51,4,541.839,543.685,space,1,0.223,,0,4,4,11,1,L,space,,,,,,,,,,
,,,,,R_2eY0Sr2GkIJv6B3,001,2025-09-20_01h59.22.063,continuous_performance_test,2024.2.4,Win32,60.0240096,1ac51710-1050-479b-8c12-0655cfe77e51,4,543.688,545.484,space,1,0.257,,0,5,5,18,1,S,space,,,,,,,,,,
,,,,,R_2eY0Sr2GkIJv6B3,001,2025-09-20_01h59.22.063,continuous_performance_test,2024.2.4,Win32,60.0240096,1ac51710-1050-479b-8c12-0655cfe77e51,4,545.486,547.233,space,1,0.251,,0,6,6,7,1,H,space,,,,,,,,,,
,,,,,R_2eY0Sr2GkIJv6B3,001,2025-09-20_01h59.22.063,continuous_performance_test,2024.2.4,Win32,60.0240096,1ac51710-1050-479b-8c12-0655cfe77e51,4,547.235,549.083,,1,,,0,7,7,28,1,X,,,,,,,,,,,
,,,,,R_2eY0Sr2GkIJv6B3,001,2025-09-20_01h59.22.063,continuous_performance_test,2024.2.4,Win32,60.0240096,1ac51710-1050-479b-8c12-0655cfe77e51,4,549.085,550.633,space,1,0.3,,0,8,8,0,1,A,space,,,,,,,,,,
,,,,,R_2eY0Sr2GkIJv6B3,001,2025-09-20_01h59.22.063,continuous_performance_test,2024.2.4,Win32,60.0240096,1ac51710-1050-479b-8c12-0655cfe77e51,4,550.634,552.482,space,1,0.267,,0,9,9,9,1,J,space,,,,,,,,,,
,,,,,R_2eY0Sr2GkIJv6B3,001,2025-09-20_01h59.22.063,continuous_performance_test,2024.2.4,Win32,60.0240096,1ac51710-1050-479b-8c12-0655cfe77e51,4,552.484,554.081,space,1,0.35,,0,10,10,8,1,I,space,,,,,,,,,,
,,,,,R_2eY0Sr2GkIJv6B3,001,2025-09-20_01h59.22.063,continuous_performance_test,2024.2.4,Win32,60.0240096,1ac51710-1050-479b-8c12-0655cfe77e51,4,554.084,555.632,space,1,0.334,,0,11,11,12,1,M,space,,,,,,,,,,
,,,,,R_2eY0Sr2GkIJv6B3,001,2025-09-20_01h59.22.063,continuous_performance_test,2024.2.4,Win32,60.0240096,1ac51710-1050-479b-8c12-0655cfe77e51,4,555.634,557.431,space,1,0.301,,0,12,12,6,1,G,space,,,,,,,,,,
,,,,,R_2eY0Sr2GkIJv6B3,001,2025-09-20_01h59.22.063,continuous_performance_test,2024.2.4,Win32,60.0240096,1ac51710-1050-479b-8c12-0655cfe77e51,4,557.433,559.03,space,1,0.316,,0,13,13,10,1,K,space,,,,,,,,,,
,,,,,R_2eY0Sr2GkIJv6B3,001,2025-09-20_01h59.22.063,continuous_performance_test,2024.2.4,Win32,60.0240096,1ac51710-1050-479b-8c12-0655cfe77e51,4,559.032,561.03,space,1,0.28,,0,14,14,22,1,W,space,,,,,,,,,,
,,,,,R_2eY0Sr2GkIJv6B3,001,2025-09-20_01h59.22.063,continuous_performance_test,2024.2.4,Win32,60.0240096,1ac51710-1050-479b-8c12-0655cfe77e51,4,561.031,563.029,space,1,0.269,,0,15,15,4,1,E,space,,,,,,,,,,
,,,,,R_2eY0Sr2GkIJv6B3,001,2025-09-20_01h59.22.063,continuous_performance_test,2024.2.4,Win32,60.0240096,1ac51710-1050-479b-8c12-0655cfe77e51,4,563.037,564.678,space,1,0.25,,0,16,16,17,1,R,space,,,,,,,,,,
,,,,,R_2eY0Sr2GkIJv6B3,001,2025-09-20_01h59.22.063,continuous_performance_test,2024.2.4,Win32,60.0240096,1ac51710-1050-479b-8c12-0655cfe77e51,4,564.68,566.328,,1,,,0,17,17,26,1,X,,,,,,,,,,,
,,,,,R_2eY0Sr2GkIJv6B3,001,2025-09-20_01h59.22.063,continuous_performance_test,2024.2.4,Win32,60.0240096,1ac51710-1050-479b-8c12-0655cfe77e51,4,566.331,568.178,space,1,0.236,,0,18,18,20,1,U,space,,,,,,,,,,
,,,,,R_2eY0Sr2GkIJv6B3,001,2025-09-20_01h59.22.063,continuous_performance_test,2024.2.4,Win32,60.0240096,1ac51710-1050-479b-8c12-0655cfe77e51,4,568.18,569.827,space,1,0.4,,0,19,19,16,1,Q,space,,,,,,,,,,
,,,,,R_2eY0Sr2GkIJv6B3,001,2025-09-20_01h59.22.063,continuous_performance_test,2024.2.4,Win32,60.0240096,1ac51710-1050-479b-8c12-0655cfe77e51,4,569.83,571.477,space,1,0.334,,0,20,20,15,1,P,space,,,,,,,,,,
,,,,,R_2eY0Sr2GkIJv6B3,001,2025-09-20_01h59.22.063,continuous_performance_test,2024.2.4,Win32,60.0240096,1ac51710-1050-479b-8c12-0655cfe77e51,4,571.479,573.276,space,1,0.267,,0,21,21,3,1,D,space,,,,,,,,,,
,,,,,R_2eY0Sr2GkIJv6B3,001,2025-09-20_01h59.22.063,continuous_performance_test,2024.2.4,Win32,60.0240096,1ac51710-1050-479b-8c12-0655cfe77e51,4,573.278,574.825,space,1,0.303,,0,22,22,21,1,V,space,,,,,,,,,,
,,,,,R_2eY0Sr2GkIJv6B3,001,2025-09-20_01h59.22.063,continuous_performance_test,2024.2.4,Win32,60.0240096,1ac51710-1050-479b-8c12-0655cfe77e51,4,574.827,576.525,space,0,0.387,,0,23,23,27,1,X,,,,,,,,,,,
,,,,,R_2eY0Sr2GkIJv6B3,001,2025-09-20_01h59.22.063,continuous_performance_test,2024.2.4,Win32,60.0240096,1ac51710-1050-479b-8c12-0655cfe77e51,4,576.527,578.074,space,1,0.232,,0,24,24,24,1,Z,space,,,,,,,,,,
,,,,,R_2eY0Sr2GkIJv6B3,001,2025-09-20_01h59.22.063,continuous_performance_test,2024.2.4,Win32,60.0240096,1ac51710-1050-479b-8c12-0655cfe77e51,4,578.075,579.724,space,1,0.232,,0,25,25,19,1,T,space,,,,,,,,,,
,,,,,R_2eY0Sr2GkIJv6B3,001,2025-09-20_01h59.22.063,continuous_performance_test,2024.2.4,Win32,60.0240096,1ac51710-1050-479b-8c12-0655cfe77e51,4,579.726,581.524,space,0,0.266,,0,26,26,29,1,X,,,,,,,,,,,
,,,,,R_2eY0Sr2GkIJv6B3,001,2025-09-20_01h59.22.063,continuous_performance_test,2024.2.4,Win32,60.0240096,1ac51710-1050-479b-8c12-0655cfe77e51,4,581.526,583.472,space,1,0.25,,0,27,27,14,1,O,space,,,,,,,,,,
,,,,,R_2eY0Sr2GkIJv6B3,001,2025-09-20_01h59.22.063,continuous_performance_test,2024.2.4,Win32,60.0240096,1ac51710-1050-479b-8c12-0655cfe77e51,4,583.475,585.422,space,1,0.333,,0,28,28,2,1,C,space,,,,,,,,,,
,,,,,R_2eY0Sr2GkIJv6B3,001,2025-09-20_01h59.22.063,continuous_performance_test,2024.2.4,Win32,60.0240096,1ac51710-1050-479b-8c12-0655cfe77e51,4,585.424,587.422,space,1,0.317,,0,29,29,5,1,F,space,,,,,,,,,,
,,,,,R_2eY0Sr2GkIJv6B3,001,2025-09-20_01h59.22.063,continuous_performance_test,2024.2.4,Win32,60.0240096,1ac51710-1050-479b-8c12-0655cfe77e51,4,594.468,596.069,space,1,0.38,,0,0,0,22,1,W,space,587.423,594.453,space,6.999,,,,,,
,,,,,R_2eY0Sr2GkIJv6B3,001,2025-09-20_01h59.22.063,continuous_performance_test,2024.2.4,Win32,60.0240096,1ac51710-1050-479b-8c12-0655cfe77e51,4,596.071,597.87,space,1,0.337,,0,1,1,23,1,Y,space,,,,,,,,,,
,,,,,R_2eY0Sr2GkIJv6B3,001,2025-09-20_01h59.22.063,continuous_performance_test,2024.2.4,Win32,60.0240096,1ac51710-1050-479b-8c12-0655cfe77e51,4,597.876,599.468,space,1,0.333,,0,2,2,20,1,U,space,,,,,,,,,,
,,,,,R_2eY0Sr2GkIJv6B3,001,2025-09-20_01h59.22.063,continuous_performance_test,2024.2.4,Win32,60.0240096,1ac51710-1050-479b-8c12-0655cfe77e51,4,599.47,601.117,space,1,0.571,,0,3,3,2,1,C,space,,,,,,,,,,
,,,,,R_2eY0Sr2GkIJv6B3,001,2025-09-20_01h59.22.063,continuous_performance_test,2024.2.4,Win32,60.0240096,1ac51710-1050-479b-8c12-0655cfe77e51,4,601.12,602.817,space,1,0.284,,0,4,4,0,1,A,space,,,,,,,,,,
,,,,,R_2eY0Sr2GkIJv6B3,001,2025-09-20_01h59.22.063,continuous_performance_test,2024.2.4,Win32,60.0240096,1ac51710-1050-479b-8c12-0655cfe77e51,4,602.82,604.717,space,0,0.301,,0,5,5,25,1,X,,,,,,,,,,,
,,,,,R_2eY0Sr2GkIJv6B3,001,2025-09-20_01h59.22.063,continuous_performance_test,2024.2.4,Win32,60.0240096,1ac51710-1050-479b-8c12-0655cfe77e51,4,604.718,606.416,space,1,0.25,,0,6,6,10,1,K,space,,,,,,,,,,
,,,,,R_2eY0Sr2GkIJv6B3,001,2025-09-20_01h59.22.063,continuous_performance_test,2024.2.4,Win32,60.0240096,1ac51710-1050-479b-8c12-0655cfe77e51,4,606.42,608.315,space,1,0.27,,0,7,7,9,1,J,space,,,,,,,,,,
,,,,,R_2eY0Sr2GkIJv6B3,001,2025-09-20_01h59.22.063,continuous_performance_test,2024.2.4,Win32,60.0240096,1ac51710-1050-479b-8c12-0655cfe77e51,4,608.317,610.164,space,1,0.316,,0,8,8,8,1,I,space,,,,,,,,,,
,,,,,R_2eY0Sr2GkIJv6B3,001,2025-09-20_01h59.22.063,continuous_performance_test,2024.2.4,Win32,60.0240096,1ac51710-1050-479b-8c12-0655cfe77e51,4,610.166,612.114,space,1,0.287,,0,9,9,19,1,T,space,,,,,,,,,,
,,,,,R_2eY0Sr2GkIJv6B3,001,2025-09-20_01h59.22.063,continuous_performance_test,2024.2.4,Win32,60.0240096,1ac51710-1050-479b-8c12-0655cfe77e51,4,612.116,613.664,,1,,,0,10,10,29,1,X,,,,,,,,,,,
,,,,,R_2eY0Sr2GkIJv6B3,001,2025-09-20_01h59.22.063,continuous_performance_test,2024.2.4,Win32,60.0240096,1ac51710-1050-479b-8c12-0655cfe77e51,4,613.666,615.463,space,1,0.284,,0,11,11,16,1,Q,space,,,,,,,,,,
,,,,,R_2eY0Sr2GkIJv6B3,001,2025-09-20_01h59.22.063,continuous_performance_test,2024.2.4,Win32,60.0240096,1ac51710-1050-479b-8c12-0655cfe77e51,4,615.466,617.212,space,0,0.317,,0,12,12,26,1,X,,,,,,,,,,,
,,,,,R_2eY0Sr2GkIJv6B3,001,2025-09-20_01h59.22.063,continuous_performance_test,2024.2.4,Win32,60.0240096,1ac51710-1050-479b-8c12-0655cfe77e51,4,617.214,619.112,space,1,0.283,,0,13,13,21,1,V,space,,,,,,,,,,
,,,,,R_2eY0Sr2GkIJv6B3,001,2025-09-20_01h59.22.063,continuous_performance_test,2024.2.4,Win32,60.0240096,1ac51710-1050-479b-8c12-0655cfe77e51,4,619.113,620.762,space,1,0.251,,0,14,14,7,1,H,space,,,,,,,,,,
,,,,,R_2eY0Sr2GkIJv6B3,001,2025-09-20_01h59.22.063,continuous_performance_test,2024.2.4,Win32,60.0240096,1ac51710-1050-479b-8c12-0655cfe77e51,4,620.764,622.561,space,1,0.284,,0,15,15,14,1,O,space,,,,,,,,,,
,,,,,R_2eY0Sr2GkIJv6B3,001,2025-09-20_01h59.22.063,continuous_performance_test,2024.2.4,Win32,60.0240096,1ac51710-1050-479b-8c12-0655cfe77e51,4,622.562,624.51,space,1,0.251,,0,16,16,4,1,E,space,,,,,,,,,,
,,,,,R_2eY0Sr2GkIJv6B3,001,2025-09-20_01h59.22.063,continuous_performance_test,2024.2.4,Win32,60.0240096,1ac51710-1050-479b-8c12-0655cfe77e51,4,624.512,626.509,space,1,0.318,,0,17,17,15,1,P,space,,,,,,,,,,
,,,,,R_2eY0Sr2GkIJv6B3,001,2025-09-20_01h59.22.063,continuous_performance_test,2024.2.4,Win32,60.0240096,1ac51710-1050-479b-8c12-0655cfe77e51,4,626.511,628.359,space,1,0.314,,0,18,18,13,1,N,space,,,,,,,,,,
,,,,,R_2eY0Sr2GkIJv6B3,001,2025-09-20_01h59.22.063,continuous_performance_test,2024.2.4,Win32,60.0240096,1ac51710-1050-479b-8c12-0655cfe77e51,4,628.363,630.259,space,1,0.3,,0,19,19,5,1,F,space,,,,,,,,,,
,,,,,R_2eY0Sr2GkIJv6B3,001,2025-09-20_01h59.22.063,continuous_performance_test,2024.2.4,Win32,60.0240096,1ac51710-1050-479b-8c12-0655cfe77e51,4,630.261,632.208,space,1,0.351,,0,20,20,17,1,R,space,,,,,,,,,,
,,,,,R_2eY0Sr2GkIJv6B3,001,2025-09-20_01h59.22.063,continuous_performance_test,2024.2.4,Win32,60.0240096,1ac51710-1050-479b-8c12-0655cfe77e51,4,632.211,633.907,space,1,0.316,,0,21,21,12,1,M,space,,,,,,,,,,
,,,,,R_2eY0Sr2GkIJv6B3,001,2025-09-20_01h59.22.063,continuous_performance_test,2024.2.4,Win32,60.0240096,1ac51710-1050-479b-8c12-0655cfe77e51,4,633.91,635.456,space,1,0.333,,0,22,22,3,1,D,space,,,,,,,,,,
,,,,,R_2eY0Sr2GkIJv6B3,001,2025-09-20_01h59.22.063,continuous_performance_test,2024.2.4,Win32,60.0240096,1ac51710-1050-479b-8c12-0655cfe77e51,4,635.459,637.256,space,1,0.267,,0,23,23,18,1,S,space,,,,,,,,,,
,,,,,R_2eY0Sr2GkIJv6B3,001,2025-09-20_01h59.22.063,continuous_performance_test,2024.2.4,Win32,60.0240096,1ac51710-1050-479b-8c12-0655cfe77e51,4,637.258,638.906,space,1,0.268,,0,24,24,6,1,G,space,,,,,,,,,,
,,,,,R_2eY0Sr2GkIJv6B3,001,2025-09-20_01h59.22.063,continuous_performance_test,2024.2.4,Win32,60.0240096,1ac51710-1050-479b-8c12-0655cfe77e51,4,638.908,640.705,space,1,0.3,,0,25,25,11,1,L,space,,,,,,,,,,
,,,,,R_2eY0Sr2GkIJv6B3,001,2025-09-20_01h59.22.063,continuous_performance_test,2024.2.4,Win32,60.0240096,1ac51710-1050-479b-8c12-0655cfe77e51,4,640.707,642.254,space,0,0.233,,0,26,26,28,1,X,,,,,,,,,,,
,,,,,R_2eY0Sr2GkIJv6B3,001,2025-09-20_01h59.22.063,continuous_performance_test,2024.2.4,Win32,60.0240096,1ac51710-1050-479b-8c12-0655cfe77e51,4,642.256,644.004,space,1,0.233,,0,27,27,1,1,B,space,,,,,,,,,,
,,,,,R_2eY0Sr2GkIJv6B3,001,2025-09-20_01h59.22.063,continuous_performance_test,2024.2.4,Win32,60.0240096,1ac51710-1050-479b-8c12-0655cfe77e51,4,644.006,646.003,space,0,0.287,,0,28,28,27,1,X,,,,,,,,,,,
,,,,,R_2eY0Sr2GkIJv6B3,001,2025-09-20_01h59.22.063,continuous_performance_test,2024.2.4,Win32,60.0240096,1ac51710-1050-479b-8c12-0655cfe77e51,4,646.005,647.852,space,1,0.418,,0,29,29,24,1,Z,space,,,,,,,,,,
,,,,,R_2eY0Sr2GkIJv6B3,001,2025-09-20_01h59.22.063,continuous_performance_test,2024.2.4,Win32,60.0240096,1ac51710-1050-479b-8c12-0655cfe77e51,4,,,,,,,,,,,,,,647.854,647.856,,,,647.856,655.417,space,7.535,
