Instructions.started,Instructions.stopped,key_resp.keys,key_resp.rt,key_resp.duration,participant,session,date,expName,psychopyVersion,OS,frameRate,realeye-tester-id,realeye-tester-quality_grade,Trial_noX.started,Trial_noX.stopped,response.keys,response.corr,trials_noX.thisRepN,trials_noX.thisTrialN,trials_noX.thisN,trials_noX.thisIndex,trials_noX.ran,letter,corrAns,response.rt,response.duration,BlockBreak.started,BlockBreak.stopped,key_instruct.keys,key_instruct.rt,key_instruct.duration,End_NoX.started,End_NoX.stopped,key_resp_end_noX.keys,key_resp_end_noX.rt,key_resp_end_noX.duration
0,46.874,space,46.742,,R_2l46s3O2ycWtR8P,001,2025-08-22_12h25.38.895,continuous_performance_test,2024.2.4,Win32,60.0240096,aef93d2d-1d55-444e-8199-f46f991fa952,4,,,,,,,,,,,,,,,,,,,,,,,
,,,,,R_2l46s3O2ycWtR8P,001,2025-08-22_12h25.38.895,continuous_performance_test,2024.2.4,Win32,60.0240096,aef93d2d-1d55-444e-8199-f46f991fa952,4,46.885,48.588,,0,0,0,0,10,1,K,space,,,,,,,,,,,,
,,,,,R_2l46s3O2ycWtR8P,001,2025-08-22_12h25.38.895,continuous_performance_test,2024.2.4,Win32,60.0240096,aef93d2d-1d55-444e-8199-f46f991fa952,4,48.592,50.338,space,1,0,1,1,24,1,Z,space,0.481,,,,,,,,,,,
,,,,,R_2l46s3O2ycWtR8P,001,2025-08-22_12h25.38.895,continuous_performance_test,2024.2.4,Win32,60.0240096,aef93d2d-1d55-444e-8199-f46f991fa952,4,50.34,51.987,space,1,0,2,2,1,1,B,space,0.937,,,,,,,,,,,
,,,,,R_2l46s3O2ycWtR8P,001,2025-08-22_12h25.38.895,continuous_performance_test,2024.2.4,Win32,60.0240096,aef93d2d-1d55-444e-8199-f46f991fa952,4,51.989,53.538,space,0,0,3,3,27,1,X,,0.37,,,,,,,,,,,
,,,,,R_2l46s3O2ycWtR8P,001,2025-08-22_12h25.38.895,continuous_performance_test,2024.2.4,Win32,60.0240096,aef93d2d-1d55-444e-8199-f46f991fa952,4,53.54,55.137,space,1,0,4,4,21,1,V,space,0.434,,,,,,,,,,,
,,,,,R_2l46s3O2ycWtR8P,001,2025-08-22_12h25.38.895,continuous_performance_test,2024.2.4,Win32,60.0240096,aef93d2d-1d55-444e-8199-f46f991fa952,4,55.138,56.787,,1,0,5,5,29,1,X,,,,,,,,,,,,,
,,,,,R_2l46s3O2ycWtR8P,001,2025-08-22_12h25.38.895,continuous_performance_test,2024.2.4,Win32,60.0240096,aef93d2d-1d55-444e-8199-f46f991fa952,4,56.788,58.587,space,1,0,6,6,7,1,H,space,0.422,,,,,,,,,,,
,,,,,R_2l46s3O2ycWtR8P,001,2025-08-22_12h25.38.895,continuous_performance_test,2024.2.4,Win32,60.0240096,aef93d2d-1d55-444e-8199-f46f991fa952,4,58.588,60.187,space,1,0,7,7,9,1,J,space,0.452,,,,,,,,,,,
,,,,,R_2l46s3O2ycWtR8P,001,2025-08-22_12h25.38.895,continuous_performance_test,2024.2.4,Win32,60.0240096,aef93d2d-1d55-444e-8199-f46f991fa952,4,60.188,62.036,space,1,0,8,8,5,1,F,space,0.383,,,,,,,,,,,
,,,,,R_2l46s3O2ycWtR8P,001,2025-08-22_12h25.38.895,continuous_performance_test,2024.2.4,Win32,60.0240096,aef93d2d-1d55-444e-8199-f46f991fa952,4,62.039,63.686,space,1,0,9,9,15,1,P,space,0.351,,,,,,,,,,,
,,,,,R_2l46s3O2ycWtR8P,001,2025-08-22_12h25.38.895,continuous_performance_test,2024.2.4,Win32,60.0240096,aef93d2d-1d55-444e-8199-f46f991fa952,4,63.688,65.286,space,1,0,10,10,4,1,E,space,0.333,,,,,,,,,,,
,,,,,R_2l46s3O2ycWtR8P,001,2025-08-22_12h25.38.895,continuous_performance_test,2024.2.4,Win32,60.0240096,aef93d2d-1d55-444e-8199-f46f991fa952,4,65.289,66.836,space,1,0,11,11,19,1,T,space,0.446,,,,,,,,,,,
,,,,,R_2l46s3O2ycWtR8P,001,2025-08-22_12h25.38.895,continuous_performance_test,2024.2.4,Win32,60.0240096,aef93d2d-1d55-444e-8199-f46f991fa952,4,66.839,68.836,space,1,0,12,12,20,1,U,space,0.349,,,,,,,,,,,
,,,,,R_2l46s3O2ycWtR8P,001,2025-08-22_12h25.38.895,continuous_performance_test,2024.2.4,Win32,60.0240096,aef93d2d-1d55-444e-8199-f46f991fa952,4,68.837,70.585,space,1,0,13,13,16,1,Q,space,0.462,,,,,,,,,,,
,,,,,R_2l46s3O2ycWtR8P,001,2025-08-22_12h25.38.895,continuous_performance_test,2024.2.4,Win32,60.0240096,aef93d2d-1d55-444e-8199-f46f991fa952,4,70.588,72.435,space,1,0,14,14,2,1,C,space,0.344,,,,,,,,,,,
,,,,,R_2l46s3O2ycWtR8P,001,2025-08-22_12h25.38.895,continuous_performance_test,2024.2.4,Win32,60.0240096,aef93d2d-1d55-444e-8199-f46f991fa952,4,72.439,74.136,space,1,0,15,15,13,1,N,space,0.37,,,,,,,,,,,
,,,,,R_2l46s3O2ycWtR8P,001,2025-08-22_12h25.38.895,continuous_performance_test,2024.2.4,Win32,60.0240096,aef93d2d-1d55-444e-8199-f46f991fa952,4,74.137,75.885,space,1,0,16,16,23,1,Y,space,0.458,,,,,,,,,,,
,,,,,R_2l46s3O2ycWtR8P,001,2025-08-22_12h25.38.895,continuous_performance_test,2024.2.4,Win32,60.0240096,aef93d2d-1d55-444e-8199-f46f991fa952,4,75.886,77.835,space,1,0,17,17,17,1,R,space,0.701,,,,,,,,,,,
,,,,,R_2l46s3O2ycWtR8P,001,2025-08-22_12h25.38.895,continuous_performance_test,2024.2.4,Win32,60.0240096,aef93d2d-1d55-444e-8199-f46f991fa952,4,77.836,79.636,,1,0,18,18,26,1,X,,,,,,,,,,,,,
,,,,,R_2l46s3O2ycWtR8P,001,2025-08-22_12h25.38.895,continuous_performance_test,2024.2.4,Win32,60.0240096,aef93d2d-1d55-444e-8199-f46f991fa952,4,79.638,81.235,space,1,0,19,19,12,1,M,space,0.387,,,,,,,,,,,
,,,,,R_2l46s3O2ycWtR8P,001,2025-08-22_12h25.38.895,continuous_performance_test,2024.2.4,Win32,60.0240096,aef93d2d-1d55-444e-8199-f46f991fa952,4,81.236,83.184,space,1,0,20,20,6,1,G,space,0.358,,,,,,,,,,,
,,,,,R_2l46s3O2ycWtR8P,001,2025-08-22_12h25.38.895,continuous_performance_test,2024.2.4,Win32,60.0240096,aef93d2d-1d55-444e-8199-f46f991fa952,4,83.185,85.034,space,0,0,21,21,25,1,X,,0.368,,,,,,,,,,,
,,,,,R_2l46s3O2ycWtR8P,001,2025-08-22_12h25.38.895,continuous_performance_test,2024.2.4,Win32,60.0240096,aef93d2d-1d55-444e-8199-f46f991fa952,4,85.036,86.934,space,1,0,22,22,0,1,A,space,0.467,,,,,,,,,,,
,,,,,R_2l46s3O2ycWtR8P,001,2025-08-22_12h25.38.895,continuous_performance_test,2024.2.4,Win32,60.0240096,aef93d2d-1d55-444e-8199-f46f991fa952,4,86.935,88.634,,1,0,23,23,28,1,X,,,,,,,,,,,,,
,,,,,R_2l46s3O2ycWtR8P,001,2025-08-22_12h25.38.895,continuous_performance_test,2024.2.4,Win32,60.0240096,aef93d2d-1d55-444e-8199-f46f991fa952,4,88.636,90.184,space,1,0,24,24,22,1,W,space,0.541,,,,,,,,,,,
,,,,,R_2l46s3O2ycWtR8P,001,2025-08-22_12h25.38.895,continuous_performance_test,2024.2.4,Win32,60.0240096,aef93d2d-1d55-444e-8199-f46f991fa952,4,90.185,91.884,space,1,0,25,25,8,1,I,space,0.403,,,,,,,,,,,
,,,,,R_2l46s3O2ycWtR8P,001,2025-08-22_12h25.38.895,continuous_performance_test,2024.2.4,Win32,60.0240096,aef93d2d-1d55-444e-8199-f46f991fa952,4,91.888,93.784,space,1,0,26,26,14,1,O,space,0.65,,,,,,,,,,,
,,,,,R_2l46s3O2ycWtR8P,001,2025-08-22_12h25.38.895,continuous_performance_test,2024.2.4,Win32,60.0240096,aef93d2d-1d55-444e-8199-f46f991fa952,4,93.79,95.733,space,1,0,27,27,11,1,L,space,0.467,,,,,,,,,,,
,,,,,R_2l46s3O2ycWtR8P,001,2025-08-22_12h25.38.895,continuous_performance_test,2024.2.4,Win32,60.0240096,aef93d2d-1d55-444e-8199-f46f991fa952,4,95.734,97.583,space,1,0,28,28,3,1,D,space,0.439,,,,,,,,,,,
,,,,,R_2l46s3O2ycWtR8P,001,2025-08-22_12h25.38.895,continuous_performance_test,2024.2.4,Win32,60.0240096,aef93d2d-1d55-444e-8199-f46f991fa952,4,97.584,99.232,space,1,0,29,29,18,1,S,space,0.372,,,,,,,,,,,
,,,,,R_2l46s3O2ycWtR8P,001,2025-08-22_12h25.38.895,continuous_performance_test,2024.2.4,Win32,60.0240096,aef93d2d-1d55-444e-8199-f46f991fa952,4,114.245,116.048,space,1,0,0,0,11,1,L,space,0.386,,99.233,114.231,,,,,,,,
,,,,,R_2l46s3O2ycWtR8P,001,2025-08-22_12h25.38.895,continuous_performance_test,2024.2.4,Win32,60.0240096,aef93d2d-1d55-444e-8199-f46f991fa952,4,116.049,117.997,space,1,0,1,1,0,1,A,space,0.406,,,,,,,,,,,
,,,,,R_2l46s3O2ycWtR8P,001,2025-08-22_12h25.38.895,continuous_performance_test,2024.2.4,Win32,60.0240096,aef93d2d-1d55-444e-8199-f46f991fa952,4,117.999,119.898,space,1,0,2,2,17,1,R,space,0.451,,,,,,,,,,,
,,,,,R_2l46s3O2ycWtR8P,001,2025-08-22_12h25.38.895,continuous_performance_test,2024.2.4,Win32,60.0240096,aef93d2d-1d55-444e-8199-f46f991fa952,4,119.899,121.697,space,1,0,3,3,22,1,W,space,0.496,,,,,,,,,,,
,,,,,R_2l46s3O2ycWtR8P,001,2025-08-22_12h25.38.895,continuous_performance_test,2024.2.4,Win32,60.0240096,aef93d2d-1d55-444e-8199-f46f991fa952,4,121.699,123.397,space,1,0,4,4,18,1,S,space,0.386,,,,,,,,,,,
,,,,,R_2l46s3O2ycWtR8P,001,2025-08-22_12h25.38.895,continuous_performance_test,2024.2.4,Win32,60.0240096,aef93d2d-1d55-444e-8199-f46f991fa952,4,123.398,125.347,space,1,0,5,5,3,1,D,space,0.603,,,,,,,,,,,
,,,,,R_2l46s3O2ycWtR8P,001,2025-08-22_12h25.38.895,continuous_performance_test,2024.2.4,Win32,60.0240096,aef93d2d-1d55-444e-8199-f46f991fa952,4,125.348,127.098,space,1,0,6,6,12,1,M,space,0.407,,,,,,,,,,,
,,,,,R_2l46s3O2ycWtR8P,001,2025-08-22_12h25.38.895,continuous_performance_test,2024.2.4,Win32,60.0240096,aef93d2d-1d55-444e-8199-f46f991fa952,4,127.099,128.947,,1,0,7,7,26,1,X,,,,,,,,,,,,,
,,,,,R_2l46s3O2ycWtR8P,001,2025-08-22_12h25.38.895,continuous_performance_test,2024.2.4,Win32,60.0240096,aef93d2d-1d55-444e-8199-f46f991fa952,4,128.948,130.897,,1,0,8,8,25,1,X,,,,,,,,,,,,,
,,,,,R_2l46s3O2ycWtR8P,001,2025-08-22_12h25.38.895,continuous_performance_test,2024.2.4,Win32,60.0240096,aef93d2d-1d55-444e-8199-f46f991fa952,4,130.898,132.897,space,1,0,9,9,20,1,U,space,0.481,,,,,,,,,,,
,,,,,R_2l46s3O2ycWtR8P,001,2025-08-22_12h25.38.895,continuous_performance_test,2024.2.4,Win32,60.0240096,aef93d2d-1d55-444e-8199-f46f991fa952,4,132.898,134.646,space,1,0,10,10,6,1,G,space,0.383,,,,,,,,,,,
,,,,,R_2l46s3O2ycWtR8P,001,2025-08-22_12h25.38.895,continuous_performance_test,2024.2.4,Win32,60.0240096,aef93d2d-1d55-444e-8199-f46f991fa952,4,134.648,136.296,space,1,0,11,11,10,1,K,space,0.567,,,,,,,,,,,
,,,,,R_2l46s3O2ycWtR8P,001,2025-08-22_12h25.38.895,continuous_performance_test,2024.2.4,Win32,60.0240096,aef93d2d-1d55-444e-8199-f46f991fa952,4,136.297,138.296,space,1,0,12,12,16,1,Q,space,0.432,,,,,,,,,,,
,,,,,R_2l46s3O2ycWtR8P,001,2025-08-22_12h25.38.895,continuous_performance_test,2024.2.4,Win32,60.0240096,aef93d2d-1d55-444e-8199-f46f991fa952,4,138.297,139.945,space,1,0,13,13,19,1,T,space,0.408,,,,,,,,,,,
,,,,,R_2l46s3O2ycWtR8P,001,2025-08-22_12h25.38.895,continuous_performance_test,2024.2.4,Win32,60.0240096,aef93d2d-1d55-444e-8199-f46f991fa952,4,139.946,141.845,space,1,0,14,14,2,1,C,space,0.38,,,,,,,,,,,
,,,,,R_2l46s3O2ycWtR8P,001,2025-08-22_12h25.38.895,continuous_performance_test,2024.2.4,Win32,60.0240096,aef93d2d-1d55-444e-8199-f46f991fa952,4,141.846,143.495,space,1,0,15,15,7,1,H,space,0.361,,,,,,,,,,,
,,,,,R_2l46s3O2ycWtR8P,001,2025-08-22_12h25.38.895,continuous_performance_test,2024.2.4,Win32,60.0240096,aef93d2d-1d55-444e-8199-f46f991fa952,4,143.496,145.145,space,1,0,16,16,23,1,Y,space,0.441,,,,,,,,,,,
,,,,,R_2l46s3O2ycWtR8P,001,2025-08-22_12h25.38.895,continuous_performance_test,2024.2.4,Win32,60.0240096,aef93d2d-1d55-444e-8199-f46f991fa952,4,145.147,146.945,,1,0,17,17,28,1,X,,,,,,,,,,,,,
,,,,,R_2l46s3O2ycWtR8P,001,2025-08-22_12h25.38.895,continuous_performance_test,2024.2.4,Win32,60.0240096,aef93d2d-1d55-444e-8199-f46f991fa952,4,146.946,148.745,space,1,0,18,18,24,1,Z,space,0.599,,,,,,,,,,,
,,,,,R_2l46s3O2ycWtR8P,001,2025-08-22_12h25.38.895,continuous_performance_test,2024.2.4,Win32,60.0240096,aef93d2d-1d55-444e-8199-f46f991fa952,4,148.746,150.544,space,1,0,19,19,8,1,I,space,0.551,,,,,,,,,,,
,,,,,R_2l46s3O2ycWtR8P,001,2025-08-22_12h25.38.895,continuous_performance_test,2024.2.4,Win32,60.0240096,aef93d2d-1d55-444e-8199-f46f991fa952,4,150.545,152.195,space,1,0,20,20,9,1,J,space,0.401,,,,,,,,,,,
,,,,,R_2l46s3O2ycWtR8P,001,2025-08-22_12h25.38.895,continuous_performance_test,2024.2.4,Win32,60.0240096,aef93d2d-1d55-444e-8199-f46f991fa952,4,152.197,153.794,space,1,0,21,21,13,1,N,space,0.424,,,,,,,,,,,
,,,,,R_2l46s3O2ycWtR8P,001,2025-08-22_12h25.38.895,continuous_performance_test,2024.2.4,Win32,60.0240096,aef93d2d-1d55-444e-8199-f46f991fa952,4,153.795,155.693,space,1,0,22,22,14,1,O,space,0.48,,,,,,,,,,,
,,,,,R_2l46s3O2ycWtR8P,001,2025-08-22_12h25.38.895,continuous_performance_test,2024.2.4,Win32,60.0240096,aef93d2d-1d55-444e-8199-f46f991fa952,4,155.695,157.394,space,1,0,23,23,21,1,V,space,0.363,,,,,,,,,,,
,,,,,R_2l46s3O2ycWtR8P,001,2025-08-22_12h25.38.895,continuous_performance_test,2024.2.4,Win32,60.0240096,aef93d2d-1d55-444e-8199-f46f991fa952,4,157.396,159.094,space,1,0,24,24,4,1,E,space,0.424,,,,,,,,,,,
,,,,,R_2l46s3O2ycWtR8P,001,2025-08-22_12h25.38.895,continuous_performance_test,2024.2.4,Win32,60.0240096,aef93d2d-1d55-444e-8199-f46f991fa952,4,159.096,160.944,space,1,0,25,25,1,1,B,space,0.383,,,,,,,,,,,
,,,,,R_2l46s3O2ycWtR8P,001,2025-08-22_12h25.38.895,continuous_performance_test,2024.2.4,Win32,60.0240096,aef93d2d-1d55-444e-8199-f46f991fa952,4,160.945,162.493,,1,0,26,26,29,1,X,,,,,,,,,,,,,
,,,,,R_2l46s3O2ycWtR8P,001,2025-08-22_12h25.38.895,continuous_performance_test,2024.2.4,Win32,60.0240096,aef93d2d-1d55-444e-8199-f46f991fa952,4,162.494,164.494,,1,0,27,27,27,1,X,,,,,,,,,,,,,
,,,,,R_2l46s3O2ycWtR8P,001,2025-08-22_12h25.38.895,continuous_performance_test,2024.2.4,Win32,60.0240096,aef93d2d-1d55-444e-8199-f46f991fa952,4,164.494,166.393,space,1,0,28,28,5,1,F,space,0.521,,,,,,,,,,,
,,,,,R_2l46s3O2ycWtR8P,001,2025-08-22_12h25.38.895,continuous_performance_test,2024.2.4,Win32,60.0240096,aef93d2d-1d55-444e-8199-f46f991fa952,4,166.394,168.243,space,1,0,29,29,15,1,P,space,0.4,,,,,,,,,,,
,,,,,R_2l46s3O2ycWtR8P,001,2025-08-22_12h25.38.895,continuous_performance_test,2024.2.4,Win32,60.0240096,aef93d2d-1d55-444e-8199-f46f991fa952,4,182.867,184.407,space,0,0,0,0,27,1,X,,0.332,,168.245,182.858,space,14.58,,,,,,
,,,,,R_2l46s3O2ycWtR8P,001,2025-08-22_12h25.38.895,continuous_performance_test,2024.2.4,Win32,60.0240096,aef93d2d-1d55-444e-8199-f46f991fa952,4,184.409,185.958,space,1,0,1,1,17,1,R,space,0.446,,,,,,,,,,,
,,,,,R_2l46s3O2ycWtR8P,001,2025-08-22_12h25.38.895,continuous_performance_test,2024.2.4,Win32,60.0240096,aef93d2d-1d55-444e-8199-f46f991fa952,4,185.959,187.708,,1,0,2,2,25,1,X,,,,,,,,,,,,,
,,,,,R_2l46s3O2ycWtR8P,001,2025-08-22_12h25.38.895,continuous_performance_test,2024.2.4,Win32,60.0240096,aef93d2d-1d55-444e-8199-f46f991fa952,4,187.709,189.608,space,1,0,3,3,10,1,K,space,0.446,,,,,,,,,,,
,,,,,R_2l46s3O2ycWtR8P,001,2025-08-22_12h25.38.895,continuous_performance_test,2024.2.4,Win32,60.0240096,aef93d2d-1d55-444e-8199-f46f991fa952,4,189.609,191.358,space,1,0,4,4,11,1,L,space,0.466,,,,,,,,,,,
,,,,,R_2l46s3O2ycWtR8P,001,2025-08-22_12h25.38.895,continuous_performance_test,2024.2.4,Win32,60.0240096,aef93d2d-1d55-444e-8199-f46f991fa952,4,191.36,193.207,space,1,0,5,5,5,1,F,space,0.4,,,,,,,,,,,
,,,,,R_2l46s3O2ycWtR8P,001,2025-08-22_12h25.38.895,continuous_performance_test,2024.2.4,Win32,60.0240096,aef93d2d-1d55-444e-8199-f46f991fa952,4,193.209,194.907,space,1,0,6,6,7,1,H,space,0.414,,,,,,,,,,,
,,,,,R_2l46s3O2ycWtR8P,001,2025-08-22_12h25.38.895,continuous_performance_test,2024.2.4,Win32,60.0240096,aef93d2d-1d55-444e-8199-f46f991fa952,4,194.908,196.707,space,1,0,7,7,2,1,C,space,0.418,,,,,,,,,,,
,,,,,R_2l46s3O2ycWtR8P,001,2025-08-22_12h25.38.895,continuous_performance_test,2024.2.4,Win32,60.0240096,aef93d2d-1d55-444e-8199-f46f991fa952,4,196.708,198.557,space,1,0,8,8,6,1,G,space,0.397,,,,,,,,,,,
,,,,,R_2l46s3O2ycWtR8P,001,2025-08-22_12h25.38.895,continuous_performance_test,2024.2.4,Win32,60.0240096,aef93d2d-1d55-444e-8199-f46f991fa952,4,198.558,200.356,space,1,0,9,9,4,1,E,space,0.387,,,,,,,,,,,
,,,,,R_2l46s3O2ycWtR8P,001,2025-08-22_12h25.38.895,continuous_performance_test,2024.2.4,Win32,60.0240096,aef93d2d-1d55-444e-8199-f46f991fa952,4,200.357,202.307,space,1,0,10,10,23,1,Y,space,0.473,,,,,,,,,,,
,,,,,R_2l46s3O2ycWtR8P,001,2025-08-22_12h25.38.895,continuous_performance_test,2024.2.4,Win32,60.0240096,aef93d2d-1d55-444e-8199-f46f991fa952,4,202.308,204.206,space,1,0,11,11,20,1,U,space,0.379,,,,,,,,,,,
,,,,,R_2l46s3O2ycWtR8P,001,2025-08-22_12h25.38.895,continuous_performance_test,2024.2.4,Win32,60.0240096,aef93d2d-1d55-444e-8199-f46f991fa952,4,204.207,206.006,space,1,0,12,12,19,1,T,space,0.43,,,,,,,,,,,
,,,,,R_2l46s3O2ycWtR8P,001,2025-08-22_12h25.38.895,continuous_performance_test,2024.2.4,Win32,60.0240096,aef93d2d-1d55-444e-8199-f46f991fa952,4,206.007,207.556,space,0,0,13,13,26,1,X,,0.381,,,,,,,,,,,
,,,,,R_2l46s3O2ycWtR8P,001,2025-08-22_12h25.38.895,continuous_performance_test,2024.2.4,Win32,60.0240096,aef93d2d-1d55-444e-8199-f46f991fa952,4,207.556,209.555,space,1,0,14,14,8,1,I,space,0.517,,,,,,,,,,,
,,,,,R_2l46s3O2ycWtR8P,001,2025-08-22_12h25.38.895,continuous_performance_test,2024.2.4,Win32,60.0240096,aef93d2d-1d55-444e-8199-f46f991fa952,4,209.556,211.206,space,1,0,15,15,24,1,Z,space,0.635,,,,,,,,,,,
,,,,,R_2l46s3O2ycWtR8P,001,2025-08-22_12h25.38.895,continuous_performance_test,2024.2.4,Win32,60.0240096,aef93d2d-1d55-444e-8199-f46f991fa952,4,211.207,213.205,space,1,0,16,16,16,1,Q,space,0.55,,,,,,,,,,,
,,,,,R_2l46s3O2ycWtR8P,001,2025-08-22_12h25.38.895,continuous_performance_test,2024.2.4,Win32,60.0240096,aef93d2d-1d55-444e-8199-f46f991fa952,4,213.206,215.205,space,1,0,17,17,14,1,O,space,0.385,,,,,,,,,,,
,,,,,R_2l46s3O2ycWtR8P,001,2025-08-22_12h25.38.895,continuous_performance_test,2024.2.4,Win32,60.0240096,aef93d2d-1d55-444e-8199-f46f991fa952,4,215.207,217.005,,1,0,18,18,29,1,X,,,,,,,,,,,,,
,,,,,R_2l46s3O2ycWtR8P,001,2025-08-22_12h25.38.895,continuous_performance_test,2024.2.4,Win32,60.0240096,aef93d2d-1d55-444e-8199-f46f991fa952,4,217.006,219.005,space,1,0,19,19,22,1,W,space,0.451,,,,,,,,,,,
,,,,,R_2l46s3O2ycWtR8P,001,2025-08-22_12h25.38.895,continuous_performance_test,2024.2.4,Win32,60.0240096,aef93d2d-1d55-444e-8199-f46f991fa952,4,219.006,220.705,space,1,0,20,20,3,1,D,space,0.416,,,,,,,,,,,
,,,,,R_2l46s3O2ycWtR8P,001,2025-08-22_12h25.38.895,continuous_performance_test,2024.2.4,Win32,60.0240096,aef93d2d-1d55-444e-8199-f46f991fa952,4,220.708,222.255,space,1,0,21,21,15,1,P,space,0.418,,,,,,,,,,,
,,,,,R_2l46s3O2ycWtR8P,001,2025-08-22_12h25.38.895,continuous_performance_test,2024.2.4,Win32,60.0240096,aef93d2d-1d55-444e-8199-f46f991fa952,4,222.256,223.955,space,1,0,22,22,13,1,N,space,0.465,,,,,,,,,,,
,,,,,R_2l46s3O2ycWtR8P,001,2025-08-22_12h25.38.895,continuous_performance_test,2024.2.4,Win32,60.0240096,aef93d2d-1d55-444e-8199-f46f991fa952,4,223.955,225.504,space,1,0,23,23,12,1,M,space,0.497,,,,,,,,,,,
,,,,,R_2l46s3O2ycWtR8P,001,2025-08-22_12h25.38.895,continuous_performance_test,2024.2.4,Win32,60.0240096,aef93d2d-1d55-444e-8199-f46f991fa952,4,225.505,227.354,space,1,0,24,24,18,1,S,space,0.566,,,,,,,,,,,
,,,,,R_2l46s3O2ycWtR8P,001,2025-08-22_12h25.38.895,continuous_performance_test,2024.2.4,Win32,60.0240096,aef93d2d-1d55-444e-8199-f46f991fa952,4,227.354,229.104,,1,0,25,25,28,1,X,,,,,,,,,,,,,
,,,,,R_2l46s3O2ycWtR8P,001,2025-08-22_12h25.38.895,continuous_performance_test,2024.2.4,Win32,60.0240096,aef93d2d-1d55-444e-8199-f46f991fa952,4,229.105,230.903,space,1,0,26,26,0,1,A,space,0.53,,,,,,,,,,,
,,,,,R_2l46s3O2ycWtR8P,001,2025-08-22_12h25.38.895,continuous_performance_test,2024.2.4,Win32,60.0240096,aef93d2d-1d55-444e-8199-f46f991fa952,4,230.904,232.453,space,1,0,27,27,9,1,J,space,0.45,,,,,,,,,,,
,,,,,R_2l46s3O2ycWtR8P,001,2025-08-22_12h25.38.895,continuous_performance_test,2024.2.4,Win32,60.0240096,aef93d2d-1d55-444e-8199-f46f991fa952,4,232.455,234.004,space,1,0,28,28,1,1,B,space,0.383,,,,,,,,,,,
,,,,,R_2l46s3O2ycWtR8P,001,2025-08-22_12h25.38.895,continuous_performance_test,2024.2.4,Win32,60.0240096,aef93d2d-1d55-444e-8199-f46f991fa952,4,234.004,235.903,space,1,0,29,29,21,1,V,space,0.404,,,,,,,,,,,
,,,,,R_2l46s3O2ycWtR8P,001,2025-08-22_12h25.38.895,continuous_performance_test,2024.2.4,Win32,60.0240096,aef93d2d-1d55-444e-8199-f46f991fa952,4,250.911,252.701,space,1,0,0,0,15,1,P,space,0.318,,235.904,250.901,,,,,,,,
,,,,,R_2l46s3O2ycWtR8P,001,2025-08-22_12h25.38.895,continuous_performance_test,2024.2.4,Win32,60.0240096,aef93d2d-1d55-444e-8199-f46f991fa952,4,252.702,254.551,space,0,0,1,1,29,1,X,,0.34,,,,,,,,,,,
,,,,,R_2l46s3O2ycWtR8P,001,2025-08-22_12h25.38.895,continuous_performance_test,2024.2.4,Win32,60.0240096,aef93d2d-1d55-444e-8199-f46f991fa952,4,254.552,256.151,space,1,0,2,2,23,1,Y,space,0.417,,,,,,,,,,,
,,,,,R_2l46s3O2ycWtR8P,001,2025-08-22_12h25.38.895,continuous_performance_test,2024.2.4,Win32,60.0240096,aef93d2d-1d55-444e-8199-f46f991fa952,4,256.155,258.101,,1,0,3,3,28,1,X,,,,,,,,,,,,,
,,,,,R_2l46s3O2ycWtR8P,001,2025-08-22_12h25.38.895,continuous_performance_test,2024.2.4,Win32,60.0240096,aef93d2d-1d55-444e-8199-f46f991fa952,4,258.102,259.651,,1,0,4,4,27,1,X,,,,,,,,,,,,,
,,,,,R_2l46s3O2ycWtR8P,001,2025-08-22_12h25.38.895,continuous_performance_test,2024.2.4,Win32,60.0240096,aef93d2d-1d55-444e-8199-f46f991fa952,4,259.652,261.651,space,1,0,5,5,2,1,C,space,0.562,,,,,,,,,,,
,,,,,R_2l46s3O2ycWtR8P,001,2025-08-22_12h25.38.895,continuous_performance_test,2024.2.4,Win32,60.0240096,aef93d2d-1d55-444e-8199-f46f991fa952,4,261.652,263.65,space,1,0,6,6,13,1,N,space,0.406,,,,,,,,,,,
,,,,,R_2l46s3O2ycWtR8P,001,2025-08-22_12h25.38.895,continuous_performance_test,2024.2.4,Win32,60.0240096,aef93d2d-1d55-444e-8199-f46f991fa952,4,263.651,265.249,space,1,0,7,7,21,1,V,space,0.433,,,,,,,,,,,
,,,,,R_2l46s3O2ycWtR8P,001,2025-08-22_12h25.38.895,continuous_performance_test,2024.2.4,Win32,60.0240096,aef93d2d-1d55-444e-8199-f46f991fa952,4,265.251,267.05,space,1,0,8,8,19,1,T,space,0.399,,,,,,,,,,,
,,,,,R_2l46s3O2ycWtR8P,001,2025-08-22_12h25.38.895,continuous_performance_test,2024.2.4,Win32,60.0240096,aef93d2d-1d55-444e-8199-f46f991fa952,4,267.052,268.65,,1,0,9,9,26,1,X,,,,,,,,,,,,,
,,,,,R_2l46s3O2ycWtR8P,001,2025-08-22_12h25.38.895,continuous_performance_test,2024.2.4,Win32,60.0240096,aef93d2d-1d55-444e-8199-f46f991fa952,4,268.651,270.3,space,1,0,10,10,17,1,R,space,0.482,,,,,,,,,,,
,,,,,R_2l46s3O2ycWtR8P,001,2025-08-22_12h25.38.895,continuous_performance_test,2024.2.4,Win32,60.0240096,aef93d2d-1d55-444e-8199-f46f991fa952,4,270.3,271.999,space,1,0,11,11,10,1,K,space,0.505,,,,,,,,,,,
,,,,,R_2l46s3O2ycWtR8P,001,2025-08-22_12h25.38.895,continuous_performance_test,2024.2.4,Win32,60.0240096,aef93d2d-1d55-444e-8199-f46f991fa952,4,272.001,273.749,space,1,0,12,12,6,1,G,space,0.559,,,,,,,,,,,
,,,,,R_2l46s3O2ycWtR8P,001,2025-08-22_12h25.38.895,continuous_performance_test,2024.2.4,Win32,60.0240096,aef93d2d-1d55-444e-8199-f46f991fa952,4,273.75,275.499,space,1,0,13,13,16,1,Q,space,0.474,,,,,,,,,,,
,,,,,R_2l46s3O2ycWtR8P,001,2025-08-22_12h25.38.895,continuous_performance_test,2024.2.4,Win32,60.0240096,aef93d2d-1d55-444e-8199-f46f991fa952,4,275.5,277.449,space,1,0,14,14,18,1,S,space,0.429,,,,,,,,,,,
,,,,,R_2l46s3O2ycWtR8P,001,2025-08-22_12h25.38.895,continuous_performance_test,2024.2.4,Win32,60.0240096,aef93d2d-1d55-444e-8199-f46f991fa952,4,277.45,279.299,space,1,0,15,15,3,1,D,space,0.568,,,,,,,,,,,
,,,,,R_2l46s3O2ycWtR8P,001,2025-08-22_12h25.38.895,continuous_performance_test,2024.2.4,Win32,60.0240096,aef93d2d-1d55-444e-8199-f46f991fa952,4,279.299,280.998,space,1,0,16,16,11,1,L,space,0.516,,,,,,,,,,,
,,,,,R_2l46s3O2ycWtR8P,001,2025-08-22_12h25.38.895,continuous_performance_test,2024.2.4,Win32,60.0240096,aef93d2d-1d55-444e-8199-f46f991fa952,4,280.999,282.849,space,1,0,17,17,14,1,O,space,0.434,,,,,,,,,,,
,,,,,R_2l46s3O2ycWtR8P,001,2025-08-22_12h25.38.895,continuous_performance_test,2024.2.4,Win32,60.0240096,aef93d2d-1d55-444e-8199-f46f991fa952,4,282.85,284.849,space,1,0,18,18,1,1,B,space,0.366,,,,,,,,,,,
,,,,,R_2l46s3O2ycWtR8P,001,2025-08-22_12h25.38.895,continuous_performance_test,2024.2.4,Win32,60.0240096,aef93d2d-1d55-444e-8199-f46f991fa952,4,284.849,286.798,space,1,0,19,19,9,1,J,space,0.401,,,,,,,,,,,
,,,,,R_2l46s3O2ycWtR8P,001,2025-08-22_12h25.38.895,continuous_performance_test,2024.2.4,Win32,60.0240096,aef93d2d-1d55-444e-8199-f46f991fa952,4,286.8,288.748,space,0,0,20,20,25,1,X,,0.334,,,,,,,,,,,
,,,,,R_2l46s3O2ycWtR8P,001,2025-08-22_12h25.38.895,continuous_performance_test,2024.2.4,Win32,60.0240096,aef93d2d-1d55-444e-8199-f46f991fa952,4,288.749,290.348,space,1,0,21,21,20,1,U,space,0.465,,,,,,,,,,,
,,,,,R_2l46s3O2ycWtR8P,001,2025-08-22_12h25.38.895,continuous_performance_test,2024.2.4,Win32,60.0240096,aef93d2d-1d55-444e-8199-f46f991fa952,4,290.349,292.248,space,1,0,22,22,7,1,H,space,0.434,,,,,,,,,,,
,,,,,R_2l46s3O2ycWtR8P,001,2025-08-22_12h25.38.895,continuous_performance_test,2024.2.4,Win32,60.0240096,aef93d2d-1d55-444e-8199-f46f991fa952,4,292.249,293.947,space,1,0,23,23,5,1,F,space,0.428,,,,,,,,,,,
,,,,,R_2l46s3O2ycWtR8P,001,2025-08-22_12h25.38.895,continuous_performance_test,2024.2.4,Win32,60.0240096,aef93d2d-1d55-444e-8199-f46f991fa952,4,293.949,295.698,space,1,0,24,24,22,1,W,space,0.491,,,,,,,,,,,
,,,,,R_2l46s3O2ycWtR8P,001,2025-08-22_12h25.38.895,continuous_performance_test,2024.2.4,Win32,60.0240096,aef93d2d-1d55-444e-8199-f46f991fa952,4,295.698,297.247,space,1,0,25,25,24,1,Z,space,0.599,,,,,,,,,,,
,,,,,R_2l46s3O2ycWtR8P,001,2025-08-22_12h25.38.895,continuous_performance_test,2024.2.4,Win32,60.0240096,aef93d2d-1d55-444e-8199-f46f991fa952,4,297.248,298.797,space,1,0,26,26,12,1,M,space,0.599,,,,,,,,,,,
,,,,,R_2l46s3O2ycWtR8P,001,2025-08-22_12h25.38.895,continuous_performance_test,2024.2.4,Win32,60.0240096,aef93d2d-1d55-444e-8199-f46f991fa952,4,298.798,300.747,space,1,0,27,27,0,1,A,space,0.677,,,,,,,,,,,
,,,,,R_2l46s3O2ycWtR8P,001,2025-08-22_12h25.38.895,continuous_performance_test,2024.2.4,Win32,60.0240096,aef93d2d-1d55-444e-8199-f46f991fa952,4,300.748,302.747,space,1,0,28,28,4,1,E,space,0.481,,,,,,,,,,,
,,,,,R_2l46s3O2ycWtR8P,001,2025-08-22_12h25.38.895,continuous_performance_test,2024.2.4,Win32,60.0240096,aef93d2d-1d55-444e-8199-f46f991fa952,4,302.747,304.546,space,1,0,29,29,8,1,I,space,0.401,,,,,,,,,,,
,,,,,R_2l46s3O2ycWtR8P,001,2025-08-22_12h25.38.895,continuous_performance_test,2024.2.4,Win32,60.0240096,aef93d2d-1d55-444e-8199-f46f991fa952,4,319.554,321.144,,1,0,0,0,29,1,X,,,,304.548,319.546,,,,,,,,
,,,,,R_2l46s3O2ycWtR8P,001,2025-08-22_12h25.38.895,continuous_performance_test,2024.2.4,Win32,60.0240096,aef93d2d-1d55-444e-8199-f46f991fa952,4,321.147,323.145,space,1,0,1,1,10,1,K,space,0.511,,,,,,,,,,,
,,,,,R_2l46s3O2ycWtR8P,001,2025-08-22_12h25.38.895,continuous_performance_test,2024.2.4,Win32,60.0240096,aef93d2d-1d55-444e-8199-f46f991fa952,4,323.147,324.994,space,1,0,2,2,11,1,L,space,0.536,,,,,,,,,,,
,,,,,R_2l46s3O2ycWtR8P,001,2025-08-22_12h25.38.895,continuous_performance_test,2024.2.4,Win32,60.0240096,aef93d2d-1d55-444e-8199-f46f991fa952,4,324.996,326.595,space,1,0,3,3,0,1,A,space,0.38,,,,,,,,,,,
,,,,,R_2l46s3O2ycWtR8P,001,2025-08-22_12h25.38.895,continuous_performance_test,2024.2.4,Win32,60.0240096,aef93d2d-1d55-444e-8199-f46f991fa952,4,326.596,328.444,space,1,0,4,4,13,1,N,space,0.447,,,,,,,,,,,
,,,,,R_2l46s3O2ycWtR8P,001,2025-08-22_12h25.38.895,continuous_performance_test,2024.2.4,Win32,60.0240096,aef93d2d-1d55-444e-8199-f46f991fa952,4,328.446,330.244,space,1,0,5,5,12,1,M,space,0.61,,,,,,,,,,,
,,,,,R_2l46s3O2ycWtR8P,001,2025-08-22_12h25.38.895,continuous_performance_test,2024.2.4,Win32,60.0240096,aef93d2d-1d55-444e-8199-f46f991fa952,4,330.245,332.143,space,1,0,6,6,23,1,Y,space,0.429,,,,,,,,,,,
,,,,,R_2l46s3O2ycWtR8P,001,2025-08-22_12h25.38.895,continuous_performance_test,2024.2.4,Win32,60.0240096,aef93d2d-1d55-444e-8199-f46f991fa952,4,332.145,333.743,space,1,0,7,7,22,1,W,space,0.617,,,,,,,,,,,
,,,,,R_2l46s3O2ycWtR8P,001,2025-08-22_12h25.38.895,continuous_performance_test,2024.2.4,Win32,60.0240096,aef93d2d-1d55-444e-8199-f46f991fa952,4,333.744,335.393,,1,0,8,8,25,1,X,,,,,,,,,,,,,
,,,,,R_2l46s3O2ycWtR8P,001,2025-08-22_12h25.38.895,continuous_performance_test,2024.2.4,Win32,60.0240096,aef93d2d-1d55-444e-8199-f46f991fa952,4,335.395,336.993,space,1,0,9,9,19,1,T,space,0.582,,,,,,,,,,,
,,,,,R_2l46s3O2ycWtR8P,001,2025-08-22_12h25.38.895,continuous_performance_test,2024.2.4,Win32,60.0240096,aef93d2d-1d55-444e-8199-f46f991fa952,4,336.995,338.943,,1,0,10,10,26,1,X,,,,,,,,,,,,,
,,,,,R_2l46s3O2ycWtR8P,001,2025-08-22_12h25.38.895,continuous_performance_test,2024.2.4,Win32,60.0240096,aef93d2d-1d55-444e-8199-f46f991fa952,4,338.944,340.743,space,1,0,11,11,7,1,H,space,0.479,,,,,,,,,,,
,,,,,R_2l46s3O2ycWtR8P,001,2025-08-22_12h25.38.895,continuous_performance_test,2024.2.4,Win32,60.0240096,aef93d2d-1d55-444e-8199-f46f991fa952,4,340.744,342.743,space,1,0,12,12,2,1,C,space,0.415,,,,,,,,,,,
,,,,,R_2l46s3O2ycWtR8P,001,2025-08-22_12h25.38.895,continuous_performance_test,2024.2.4,Win32,60.0240096,aef93d2d-1d55-444e-8199-f46f991fa952,4,342.744,344.443,space,1,0,13,13,8,1,I,space,0.465,,,,,,,,,,,
,,,,,R_2l46s3O2ycWtR8P,001,2025-08-22_12h25.38.895,continuous_performance_test,2024.2.4,Win32,60.0240096,aef93d2d-1d55-444e-8199-f46f991fa952,4,344.445,346.242,space,1,0,14,14,24,1,Z,space,0.591,,,,,,,,,,,
,,,,,R_2l46s3O2ycWtR8P,001,2025-08-22_12h25.38.895,continuous_performance_test,2024.2.4,Win32,60.0240096,aef93d2d-1d55-444e-8199-f46f991fa952,4,346.244,348.192,space,1,0,15,15,3,1,D,space,0.366,,,,,,,,,,,
,,,,,R_2l46s3O2ycWtR8P,001,2025-08-22_12h25.38.895,continuous_performance_test,2024.2.4,Win32,60.0240096,aef93d2d-1d55-444e-8199-f46f991fa952,4,348.194,350.042,space,1,0,16,16,5,1,F,space,0.38,,,,,,,,,,,
,,,,,R_2l46s3O2ycWtR8P,001,2025-08-22_12h25.38.895,continuous_performance_test,2024.2.4,Win32,60.0240096,aef93d2d-1d55-444e-8199-f46f991fa952,4,350.048,351.992,space,1,0,17,17,1,1,B,space,0.418,,,,,,,,,,,
,,,,,R_2l46s3O2ycWtR8P,001,2025-08-22_12h25.38.895,continuous_performance_test,2024.2.4,Win32,60.0240096,aef93d2d-1d55-444e-8199-f46f991fa952,4,351.994,353.842,space,1,0,18,18,16,1,Q,space,0.552,,,,,,,,,,,
,,,,,R_2l46s3O2ycWtR8P,001,2025-08-22_12h25.38.895,continuous_performance_test,2024.2.4,Win32,60.0240096,aef93d2d-1d55-444e-8199-f46f991fa952,4,353.844,355.592,space,1,0,19,19,14,1,O,space,0.446,,,,,,,,,,,
,,,,,R_2l46s3O2ycWtR8P,001,2025-08-22_12h25.38.895,continuous_performance_test,2024.2.4,Win32,60.0240096,aef93d2d-1d55-444e-8199-f46f991fa952,4,355.593,357.441,space,1,0,20,20,18,1,S,space,0.587,,,,,,,,,,,
,,,,,R_2l46s3O2ycWtR8P,001,2025-08-22_12h25.38.895,continuous_performance_test,2024.2.4,Win32,60.0240096,aef93d2d-1d55-444e-8199-f46f991fa952,4,357.443,359.142,space,1,0,21,21,6,1,G,space,0.416,,,,,,,,,,,
,,,,,R_2l46s3O2ycWtR8P,001,2025-08-22_12h25.38.895,continuous_performance_test,2024.2.4,Win32,60.0240096,aef93d2d-1d55-444e-8199-f46f991fa952,4,359.143,361.141,space,1,0,22,22,9,1,J,space,0.517,,,,,,,,,,,
,,,,,R_2l46s3O2ycWtR8P,001,2025-08-22_12h25.38.895,continuous_performance_test,2024.2.4,Win32,60.0240096,aef93d2d-1d55-444e-8199-f46f991fa952,4,361.142,363.141,space,1,0,23,23,15,1,P,space,0.66,,,,,,,,,,,
,,,,,R_2l46s3O2ycWtR8P,001,2025-08-22_12h25.38.895,continuous_performance_test,2024.2.4,Win32,60.0240096,aef93d2d-1d55-444e-8199-f46f991fa952,4,363.142,365.04,,1,0,24,24,28,1,X,,,,,,,,,,,,,
,,,,,R_2l46s3O2ycWtR8P,001,2025-08-22_12h25.38.895,continuous_performance_test,2024.2.4,Win32,60.0240096,aef93d2d-1d55-444e-8199-f46f991fa952,4,365.042,366.641,space,1,0,25,25,17,1,R,space,0.556,,,,,,,,,,,
,,,,,R_2l46s3O2ycWtR8P,001,2025-08-22_12h25.38.895,continuous_performance_test,2024.2.4,Win32,60.0240096,aef93d2d-1d55-444e-8199-f46f991fa952,4,366.642,368.341,,1,0,26,26,27,1,X,,,,,,,,,,,,,
,,,,,R_2l46s3O2ycWtR8P,001,2025-08-22_12h25.38.895,continuous_performance_test,2024.2.4,Win32,60.0240096,aef93d2d-1d55-444e-8199-f46f991fa952,4,368.341,370.041,space,1,0,27,27,4,1,E,space,0.426,,,,,,,,,,,
,,,,,R_2l46s3O2ycWtR8P,001,2025-08-22_12h25.38.895,continuous_performance_test,2024.2.4,Win32,60.0240096,aef93d2d-1d55-444e-8199-f46f991fa952,4,370.042,372.04,space,1,0,28,28,21,1,V,space,0.582,,,,,,,,,,,
,,,,,R_2l46s3O2ycWtR8P,001,2025-08-22_12h25.38.895,continuous_performance_test,2024.2.4,Win32,60.0240096,aef93d2d-1d55-444e-8199-f46f991fa952,4,372.043,374.04,space,1,0,29,29,20,1,U,space,0.482,,,,,,,,,,,
,,,,,R_2l46s3O2ycWtR8P,001,2025-08-22_12h25.38.895,continuous_performance_test,2024.2.4,Win32,60.0240096,aef93d2d-1d55-444e-8199-f46f991fa952,4,389.05,390.74,space,1,0,0,0,23,1,Y,space,0.382,,374.042,389.04,,,,,,,,
,,,,,R_2l46s3O2ycWtR8P,001,2025-08-22_12h25.38.895,continuous_performance_test,2024.2.4,Win32,60.0240096,aef93d2d-1d55-444e-8199-f46f991fa952,4,390.742,392.438,,1,0,1,1,25,1,X,,,,,,,,,,,,,
,,,,,R_2l46s3O2ycWtR8P,001,2025-08-22_12h25.38.895,continuous_performance_test,2024.2.4,Win32,60.0240096,aef93d2d-1d55-444e-8199-f46f991fa952,4,392.439,394.238,space,1,0,2,2,2,1,C,space,0.482,,,,,,,,,,,
,,,,,R_2l46s3O2ycWtR8P,001,2025-08-22_12h25.38.895,continuous_performance_test,2024.2.4,Win32,60.0240096,aef93d2d-1d55-444e-8199-f46f991fa952,4,394.239,395.889,space,1,0,3,3,9,1,J,space,0.453,,,,,,,,,,,
,,,,,R_2l46s3O2ycWtR8P,001,2025-08-22_12h25.38.895,continuous_performance_test,2024.2.4,Win32,60.0240096,aef93d2d-1d55-444e-8199-f46f991fa952,4,395.89,397.787,,1,0,4,4,27,1,X,,,,,,,,,,,,,
,,,,,R_2l46s3O2ycWtR8P,001,2025-08-22_12h25.38.895,continuous_performance_test,2024.2.4,Win32,60.0240096,aef93d2d-1d55-444e-8199-f46f991fa952,4,397.79,399.687,space,1,0,5,5,1,1,B,space,0.444,,,,,,,,,,,
,,,,,R_2l46s3O2ycWtR8P,001,2025-08-22_12h25.38.895,continuous_performance_test,2024.2.4,Win32,60.0240096,aef93d2d-1d55-444e-8199-f46f991fa952,4,399.688,401.488,space,1,0,6,6,20,1,U,space,0.426,,,,,,,,,,,
,,,,,R_2l46s3O2ycWtR8P,001,2025-08-22_12h25.38.895,continuous_performance_test,2024.2.4,Win32,60.0240096,aef93d2d-1d55-444e-8199-f46f991fa952,4,401.49,403.487,,1,0,7,7,29,1,X,,,,,,,,,,,,,
,,,,,R_2l46s3O2ycWtR8P,001,2025-08-22_12h25.38.895,continuous_performance_test,2024.2.4,Win32,60.0240096,aef93d2d-1d55-444e-8199-f46f991fa952,4,403.489,405.438,space,1,0,8,8,3,1,D,space,0.691,,,,,,,,,,,
,,,,,R_2l46s3O2ycWtR8P,001,2025-08-22_12h25.38.895,continuous_performance_test,2024.2.4,Win32,60.0240096,aef93d2d-1d55-444e-8199-f46f991fa952,4,405.439,407.187,,1,0,9,9,26,1,X,,,,,,,,,,,,,
,,,,,R_2l46s3O2ycWtR8P,001,2025-08-22_12h25.38.895,continuous_performance_test,2024.2.4,Win32,60.0240096,aef93d2d-1d55-444e-8199-f46f991fa952,4,407.187,408.886,space,1,0,10,10,15,1,P,space,0.433,,,,,,,,,,,
,,,,,R_2l46s3O2ycWtR8P,001,2025-08-22_12h25.38.895,continuous_performance_test,2024.2.4,Win32,60.0240096,aef93d2d-1d55-444e-8199-f46f991fa952,4,408.889,410.436,space,1,0,11,11,16,1,Q,space,0.351,,,,,,,,,,,
,,,,,R_2l46s3O2ycWtR8P,001,2025-08-22_12h25.38.895,continuous_performance_test,2024.2.4,Win32,60.0240096,aef93d2d-1d55-444e-8199-f46f991fa952,4,410.438,412.436,space,1,0,12,12,22,1,W,space,0.52,,,,,,,,,,,
,,,,,R_2l46s3O2ycWtR8P,001,2025-08-22_12h25.38.895,continuous_performance_test,2024.2.4,Win32,60.0240096,aef93d2d-1d55-444e-8199-f46f991fa952,4,412.437,414.041,,1,0,13,13,28,1,X,,,,,,,,,,,,,
,,,,,R_2l46s3O2ycWtR8P,001,2025-08-22_12h25.38.895,continuous_performance_test,2024.2.4,Win32,60.0240096,aef93d2d-1d55-444e-8199-f46f991fa952,4,414.042,415.687,space,1,0,14,14,19,1,T,space,0.438,,,,,,,,,,,
,,,,,R_2l46s3O2ycWtR8P,001,2025-08-22_12h25.38.895,continuous_performance_test,2024.2.4,Win32,60.0240096,aef93d2d-1d55-444e-8199-f46f991fa952,4,415.689,417.386,space,1,0,15,15,7,1,H,space,0.396,,,,,,,,,,,
,,,,,R_2l46s3O2ycWtR8P,001,2025-08-22_12h25.38.895,continuous_performance_test,2024.2.4,Win32,60.0240096,aef93d2d-1d55-444e-8199-f46f991fa952,4,417.388,419.336,space,1,0,16,16,0,1,A,space,0.402,,,,,,,,,,,
,,,,,R_2l46s3O2ycWtR8P,001,2025-08-22_12h25.38.895,continuous_performance_test,2024.2.4,Win32,60.0240096,aef93d2d-1d55-444e-8199-f46f991fa952,4,419.337,421.335,space,1,0,17,17,14,1,O,space,0.403,,,,,,,,,,,
,,,,,R_2l46s3O2ycWtR8P,001,2025-08-22_12h25.38.895,continuous_performance_test,2024.2.4,Win32,60.0240096,aef93d2d-1d55-444e-8199-f46f991fa952,4,421.336,423.335,space,1,0,18,18,17,1,R,space,0.429,,,,,,,,,,,
,,,,,R_2l46s3O2ycWtR8P,001,2025-08-22_12h25.38.895,continuous_performance_test,2024.2.4,Win32,60.0240096,aef93d2d-1d55-444e-8199-f46f991fa952,4,423.336,425.135,space,1,0,19,19,12,1,M,space,0.436,,,,,,,,,,,
,,,,,R_2l46s3O2ycWtR8P,001,2025-08-22_12h25.38.895,continuous_performance_test,2024.2.4,Win32,60.0240096,aef93d2d-1d55-444e-8199-f46f991fa952,4,425.137,426.734,space,1,0,20,20,5,1,F,space,0.4,,,,,,,,,,,
,,,,,R_2l46s3O2ycWtR8P,001,2025-08-22_12h25.38.895,continuous_performance_test,2024.2.4,Win32,60.0240096,aef93d2d-1d55-444e-8199-f46f991fa952,4,426.736,428.685,space,1,0,21,21,21,1,V,space,0.488,,,,,,,,,,,
,,,,,R_2l46s3O2ycWtR8P,001,2025-08-22_12h25.38.895,continuous_performance_test,2024.2.4,Win32,60.0240096,aef93d2d-1d55-444e-8199-f46f991fa952,4,428.687,430.335,space,1,0,22,22,24,1,Z,space,0.415,,,,,,,,,,,
,,,,,R_2l46s3O2ycWtR8P,001,2025-08-22_12h25.38.895,continuous_performance_test,2024.2.4,Win32,60.0240096,aef93d2d-1d55-444e-8199-f46f991fa952,4,430.339,432.334,space,1,0,23,23,4,1,E,space,0.498,,,,,,,,,,,
,,,,,R_2l46s3O2ycWtR8P,001,2025-08-22_12h25.38.895,continuous_performance_test,2024.2.4,Win32,60.0240096,aef93d2d-1d55-444e-8199-f46f991fa952,4,432.335,434.134,space,1,0,24,24,10,1,K,space,0.421,,,,,,,,,,,
,,,,,R_2l46s3O2ycWtR8P,001,2025-08-22_12h25.38.895,continuous_performance_test,2024.2.4,Win32,60.0240096,aef93d2d-1d55-444e-8199-f46f991fa952,4,434.135,435.934,space,1,0,25,25,11,1,L,space,0.469,,,,,,,,,,,
,,,,,R_2l46s3O2ycWtR8P,001,2025-08-22_12h25.38.895,continuous_performance_test,2024.2.4,Win32,60.0240096,aef93d2d-1d55-444e-8199-f46f991fa952,4,435.936,437.784,space,1,0,26,26,6,1,G,space,0.489,,,,,,,,,,,
,,,,,R_2l46s3O2ycWtR8P,001,2025-08-22_12h25.38.895,continuous_performance_test,2024.2.4,Win32,60.0240096,aef93d2d-1d55-444e-8199-f46f991fa952,4,437.785,439.583,space,1,0,27,27,13,1,N,space,0.5,,,,,,,,,,,
,,,,,R_2l46s3O2ycWtR8P,001,2025-08-22_12h25.38.895,continuous_performance_test,2024.2.4,Win32,60.0240096,aef93d2d-1d55-444e-8199-f46f991fa952,4,439.585,441.384,space,1,0,28,28,8,1,I,space,0.566,,,,,,,,,,,
,,,,,R_2l46s3O2ycWtR8P,001,2025-08-22_12h25.38.895,continuous_performance_test,2024.2.4,Win32,60.0240096,aef93d2d-1d55-444e-8199-f46f991fa952,4,441.384,442.984,space,1,0,29,29,18,1,S,space,0.435,,,,,,,,,,,
,,,,,R_2l46s3O2ycWtR8P,001,2025-08-22_12h25.38.895,continuous_performance_test,2024.2.4,Win32,60.0240096,aef93d2d-1d55-444e-8199-f46f991fa952,4,457.993,459.782,space,1,0,0,0,12,1,M,space,0.844,,442.985,457.982,,,,,,,,
,,,,,R_2l46s3O2ycWtR8P,001,2025-08-22_12h25.38.895,continuous_performance_test,2024.2.4,Win32,60.0240096,aef93d2d-1d55-444e-8199-f46f991fa952,4,459.784,461.731,space,1,0,1,1,17,1,R,space,0.364,,,,,,,,,,,
,,,,,R_2l46s3O2ycWtR8P,001,2025-08-22_12h25.38.895,continuous_performance_test,2024.2.4,Win32,60.0240096,aef93d2d-1d55-444e-8199-f46f991fa952,4,461.732,463.331,space,1,0,2,2,3,1,D,space,0.354,,,,,,,,,,,
,,,,,R_2l46s3O2ycWtR8P,001,2025-08-22_12h25.38.895,continuous_performance_test,2024.2.4,Win32,60.0240096,aef93d2d-1d55-444e-8199-f46f991fa952,4,463.332,465.031,,1,0,3,3,26,1,X,,,,,,,,,,,,,
,,,,,R_2l46s3O2ycWtR8P,001,2025-08-22_12h25.38.895,continuous_performance_test,2024.2.4,Win32,60.0240096,aef93d2d-1d55-444e-8199-f46f991fa952,4,465.033,466.731,,1,0,4,4,25,1,X,,,,,,,,,,,,,
,,,,,R_2l46s3O2ycWtR8P,001,2025-08-22_12h25.38.895,continuous_performance_test,2024.2.4,Win32,60.0240096,aef93d2d-1d55-444e-8199-f46f991fa952,4,466.733,468.48,space,1,0,5,5,0,1,A,space,0.466,,,,,,,,,,,
,,,,,R_2l46s3O2ycWtR8P,001,2025-08-22_12h25.38.895,continuous_performance_test,2024.2.4,Win32,60.0240096,aef93d2d-1d55-444e-8199-f46f991fa952,4,468.481,470.031,space,1,0,6,6,11,1,L,space,0.434,,,,,,,,,,,
,,,,,R_2l46s3O2ycWtR8P,001,2025-08-22_12h25.38.895,continuous_performance_test,2024.2.4,Win32,60.0240096,aef93d2d-1d55-444e-8199-f46f991fa952,4,470.032,471.581,space,1,0,7,7,15,1,P,space,0.43,,,,,,,,,,,
,,,,,R_2l46s3O2ycWtR8P,001,2025-08-22_12h25.38.895,continuous_performance_test,2024.2.4,Win32,60.0240096,aef93d2d-1d55-444e-8199-f46f991fa952,4,471.582,473.281,space,1,0,8,8,4,1,E,space,0.387,,,,,,,,,,,
,,,,,R_2l46s3O2ycWtR8P,001,2025-08-22_12h25.38.895,continuous_performance_test,2024.2.4,Win32,60.0240096,aef93d2d-1d55-444e-8199-f46f991fa952,4,473.281,474.98,space,1,0,9,9,18,1,S,space,0.415,,,,,,,,,,,
,,,,,R_2l46s3O2ycWtR8P,001,2025-08-22_12h25.38.895,continuous_performance_test,2024.2.4,Win32,60.0240096,aef93d2d-1d55-444e-8199-f46f991fa952,4,474.981,476.93,space,1,0,10,10,16,1,Q,space,0.515,,,,,,,,,,,
,,,,,R_2l46s3O2ycWtR8P,001,2025-08-22_12h25.38.895,continuous_performance_test,2024.2.4,Win32,60.0240096,aef93d2d-1d55-444e-8199-f46f991fa952,4,476.931,478.78,space,1,0,11,11,9,1,J,space,0.465,,,,,,,,,,,
,,,,,R_2l46s3O2ycWtR8P,001,2025-08-22_12h25.38.895,continuous_performance_test,2024.2.4,Win32,60.0240096,aef93d2d-1d55-444e-8199-f46f991fa952,4,478.782,480.33,space,1,0,12,12,2,1,C,space,0.415,,,,,,,,,,,
,,,,,R_2l46s3O2ycWtR8P,001,2025-08-22_12h25.38.895,continuous_performance_test,2024.2.4,Win32,60.0240096,aef93d2d-1d55-444e-8199-f46f991fa952,4,480.331,482.23,space,1,0,13,13,14,1,O,space,0.505,,,,,,,,,,,
,,,,,R_2l46s3O2ycWtR8P,001,2025-08-22_12h25.38.895,continuous_performance_test,2024.2.4,Win32,60.0240096,aef93d2d-1d55-444e-8199-f46f991fa952,4,482.231,483.98,space,1,0,14,14,20,1,U,space,0.365,,,,,,,,,,,
,,,,,R_2l46s3O2ycWtR8P,001,2025-08-22_12h25.38.895,continuous_performance_test,2024.2.4,Win32,60.0240096,aef93d2d-1d55-444e-8199-f46f991fa952,4,483.981,485.929,space,1,0,15,15,22,1,W,space,0.549,,,,,,,,,,,
,,,,,R_2l46s3O2ycWtR8P,001,2025-08-22_12h25.38.895,continuous_performance_test,2024.2.4,Win32,60.0240096,aef93d2d-1d55-444e-8199-f46f991fa952,4,485.931,487.729,space,1,0,16,16,8,1,I,space,0.567,,,,,,,,,,,
,,,,,R_2l46s3O2ycWtR8P,001,2025-08-22_12h25.38.895,continuous_performance_test,2024.2.4,Win32,60.0240096,aef93d2d-1d55-444e-8199-f46f991fa952,4,487.73,489.328,,1,0,17,17,28,1,X,,,,,,,,,,,,,
,,,,,R_2l46s3O2ycWtR8P,001,2025-08-22_12h25.38.895,continuous_performance_test,2024.2.4,Win32,60.0240096,aef93d2d-1d55-444e-8199-f46f991fa952,4,489.329,491.229,space,1,0,18,18,5,1,F,space,0.45,,,,,,,,,,,
,,,,,R_2l46s3O2ycWtR8P,001,2025-08-22_12h25.38.895,continuous_performance_test,2024.2.4,Win32,60.0240096,aef93d2d-1d55-444e-8199-f46f991fa952,4,491.23,493.228,,1,0,19,19,27,1,X,,,,,,,,,,,,,
,,,,,R_2l46s3O2ycWtR8P,001,2025-08-22_12h25.38.895,continuous_performance_test,2024.2.4,Win32,60.0240096,aef93d2d-1d55-444e-8199-f46f991fa952,4,493.23,494.878,space,1,0,20,20,1,1,B,space,0.446,,,,,,,,,,,
,,,,,R_2l46s3O2ycWtR8P,001,2025-08-22_12h25.38.895,continuous_performance_test,2024.2.4,Win32,60.0240096,aef93d2d-1d55-444e-8199-f46f991fa952,4,494.88,496.877,space,1,0,21,21,10,1,K,space,0.634,,,,,,,,,,,
,,,,,R_2l46s3O2ycWtR8P,001,2025-08-22_12h25.38.895,continuous_performance_test,2024.2.4,Win32,60.0240096,aef93d2d-1d55-444e-8199-f46f991fa952,4,496.88,498.578,space,1,0,22,22,24,1,Z,space,0.639,,,,,,,,,,,
,,,,,R_2l46s3O2ycWtR8P,001,2025-08-22_12h25.38.895,continuous_performance_test,2024.2.4,Win32,60.0240096,aef93d2d-1d55-444e-8199-f46f991fa952,4,498.58,500.377,space,1,0,23,23,13,1,N,space,0.465,,,,,,,,,,,
,,,,,R_2l46s3O2ycWtR8P,001,2025-08-22_12h25.38.895,continuous_performance_test,2024.2.4,Win32,60.0240096,aef93d2d-1d55-444e-8199-f46f991fa952,4,500.379,502.178,,1,0,24,24,29,1,X,,,,,,,,,,,,,
,,,,,R_2l46s3O2ycWtR8P,001,2025-08-22_12h25.38.895,continuous_performance_test,2024.2.4,Win32,60.0240096,aef93d2d-1d55-444e-8199-f46f991fa952,4,502.179,503.727,space,1,0,25,25,7,1,H,space,0.547,,,,,,,,,,,
,,,,,R_2l46s3O2ycWtR8P,001,2025-08-22_12h25.38.895,continuous_performance_test,2024.2.4,Win32,60.0240096,aef93d2d-1d55-444e-8199-f46f991fa952,4,503.728,505.527,space,1,0,26,26,21,1,V,space,0.484,,,,,,,,,,,
,,,,,R_2l46s3O2ycWtR8P,001,2025-08-22_12h25.38.895,continuous_performance_test,2024.2.4,Win32,60.0240096,aef93d2d-1d55-444e-8199-f46f991fa952,4,505.528,507.277,space,1,0,27,27,6,1,G,space,0.508,,,,,,,,,,,
,,,,,R_2l46s3O2ycWtR8P,001,2025-08-22_12h25.38.895,continuous_performance_test,2024.2.4,Win32,60.0240096,aef93d2d-1d55-444e-8199-f46f991fa952,4,507.279,509.277,space,1,0,28,28,19,1,T,space,0.383,,,,,,,,,,,
,,,,,R_2l46s3O2ycWtR8P,001,2025-08-22_12h25.38.895,continuous_performance_test,2024.2.4,Win32,60.0240096,aef93d2d-1d55-444e-8199-f46f991fa952,4,509.28,511.226,space,1,0,29,29,23,1,Y,space,0.514,,,,,,,,,,,
,,,,,R_2l46s3O2ycWtR8P,001,2025-08-22_12h25.38.895,continuous_performance_test,2024.2.4,Win32,60.0240096,aef93d2d-1d55-444e-8199-f46f991fa952,4,515.251,517.043,space,1,0,0,0,16,1,Q,space,0.654,,511.228,515.243,space,3.978,,,,,,
,,,,,R_2l46s3O2ycWtR8P,001,2025-08-22_12h25.38.895,continuous_performance_test,2024.2.4,Win32,60.0240096,aef93d2d-1d55-444e-8199-f46f991fa952,4,517.045,518.692,space,1,0,1,1,23,1,Y,space,0.354,,,,,,,,,,,
,,,,,R_2l46s3O2ycWtR8P,001,2025-08-22_12h25.38.895,continuous_performance_test,2024.2.4,Win32,60.0240096,aef93d2d-1d55-444e-8199-f46f991fa952,4,518.693,520.393,space,1,0,2,2,3,1,D,space,0.42,,,,,,,,,,,
,,,,,R_2l46s3O2ycWtR8P,001,2025-08-22_12h25.38.895,continuous_performance_test,2024.2.4,Win32,60.0240096,aef93d2d-1d55-444e-8199-f46f991fa952,4,520.395,522.242,space,1,0,3,3,8,1,I,space,0.468,,,,,,,,,,,
,,,,,R_2l46s3O2ycWtR8P,001,2025-08-22_12h25.38.895,continuous_performance_test,2024.2.4,Win32,60.0240096,aef93d2d-1d55-444e-8199-f46f991fa952,4,522.245,523.892,space,1,0,4,4,15,1,P,space,0.394,,,,,,,,,,,
,,,,,R_2l46s3O2ycWtR8P,001,2025-08-22_12h25.38.895,continuous_performance_test,2024.2.4,Win32,60.0240096,aef93d2d-1d55-444e-8199-f46f991fa952,4,523.892,525.492,space,1,0,5,5,18,1,S,space,0.347,,,,,,,,,,,
,,,,,R_2l46s3O2ycWtR8P,001,2025-08-22_12h25.38.895,continuous_performance_test,2024.2.4,Win32,60.0240096,aef93d2d-1d55-444e-8199-f46f991fa952,4,525.493,527.392,space,1,0,6,6,11,1,L,space,0.385,,,,,,,,,,,
,,,,,R_2l46s3O2ycWtR8P,001,2025-08-22_12h25.38.895,continuous_performance_test,2024.2.4,Win32,60.0240096,aef93d2d-1d55-444e-8199-f46f991fa952,4,527.394,528.942,space,1,0,7,7,7,1,H,space,0.419,,,,,,,,,,,
,,,,,R_2l46s3O2ycWtR8P,001,2025-08-22_12h25.38.895,continuous_performance_test,2024.2.4,Win32,60.0240096,aef93d2d-1d55-444e-8199-f46f991fa952,4,528.944,530.641,,1,0,8,8,28,1,X,,,,,,,,,,,,,
,,,,,R_2l46s3O2ycWtR8P,001,2025-08-22_12h25.38.895,continuous_performance_test,2024.2.4,Win32,60.0240096,aef93d2d-1d55-444e-8199-f46f991fa952,4,530.642,532.491,,1,0,9,9,29,1,X,,,,,,,,,,,,,
,,,,,R_2l46s3O2ycWtR8P,001,2025-08-22_12h25.38.895,continuous_performance_test,2024.2.4,Win32,60.0240096,aef93d2d-1d55-444e-8199-f46f991fa952,4,532.492,534.391,space,1,0,10,10,0,1,A,space,0.431,,,,,,,,,,,
,,,,,R_2l46s3O2ycWtR8P,001,2025-08-22_12h25.38.895,continuous_performance_test,2024.2.4,Win32,60.0240096,aef93d2d-1d55-444e-8199-f46f991fa952,4,534.392,536.09,space,1,0,11,11,12,1,M,space,0.446,,,,,,,,,,,
,,,,,R_2l46s3O2ycWtR8P,001,2025-08-22_12h25.38.895,continuous_performance_test,2024.2.4,Win32,60.0240096,aef93d2d-1d55-444e-8199-f46f991fa952,4,536.091,537.741,space,1,0,12,12,9,1,J,space,0.382,,,,,,,,,,,
,,,,,R_2l46s3O2ycWtR8P,001,2025-08-22_12h25.38.895,continuous_performance_test,2024.2.4,Win32,60.0240096,aef93d2d-1d55-444e-8199-f46f991fa952,4,537.743,539.291,space,1,0,13,13,2,1,C,space,0.329,,,,,,,,,,,
,,,,,R_2l46s3O2ycWtR8P,001,2025-08-22_12h25.38.895,continuous_performance_test,2024.2.4,Win32,60.0240096,aef93d2d-1d55-444e-8199-f46f991fa952,4,539.292,540.89,space,1,0,14,14,17,1,R,space,0.346,,,,,,,,,,,
,,,,,R_2l46s3O2ycWtR8P,001,2025-08-22_12h25.38.895,continuous_performance_test,2024.2.4,Win32,60.0240096,aef93d2d-1d55-444e-8199-f46f991fa952,4,540.891,542.89,,1,0,15,15,26,1,X,,,,,,,,,,,,,
,,,,,R_2l46s3O2ycWtR8P,001,2025-08-22_12h25.38.895,continuous_performance_test,2024.2.4,Win32,60.0240096,aef93d2d-1d55-444e-8199-f46f991fa952,4,542.897,544.841,space,1,0,16,16,21,1,V,space,0.582,,,,,,,,,,,
,,,,,R_2l46s3O2ycWtR8P,001,2025-08-22_12h25.38.895,continuous_performance_test,2024.2.4,Win32,60.0240096,aef93d2d-1d55-444e-8199-f46f991fa952,4,544.841,546.84,space,1,0,17,17,6,1,G,space,0.396,,,,,,,,,,,
,,,,,R_2l46s3O2ycWtR8P,001,2025-08-22_12h25.38.895,continuous_performance_test,2024.2.4,Win32,60.0240096,aef93d2d-1d55-444e-8199-f46f991fa952,4,546.841,548.44,space,1,0,18,18,20,1,U,space,0.346,,,,,,,,,,,
,,,,,R_2l46s3O2ycWtR8P,001,2025-08-22_12h25.38.895,continuous_performance_test,2024.2.4,Win32,60.0240096,aef93d2d-1d55-444e-8199-f46f991fa952,4,548.441,550.189,space,1,0,19,19,5,1,F,space,0.317,,,,,,,,,,,
,,,,,R_2l46s3O2ycWtR8P,001,2025-08-22_12h25.38.895,continuous_performance_test,2024.2.4,Win32,60.0240096,aef93d2d-1d55-444e-8199-f46f991fa952,4,550.191,551.99,space,1,0,20,20,10,1,K,space,0.446,,,,,,,,,,,
,,,,,R_2l46s3O2ycWtR8P,001,2025-08-22_12h25.38.895,continuous_performance_test,2024.2.4,Win32,60.0240096,aef93d2d-1d55-444e-8199-f46f991fa952,4,551.991,553.889,space,1,0,21,21,19,1,T,space,0.381,,,,,,,,,,,
,,,,,R_2l46s3O2ycWtR8P,001,2025-08-22_12h25.38.895,continuous_performance_test,2024.2.4,Win32,60.0240096,aef93d2d-1d55-444e-8199-f46f991fa952,4,553.89,555.739,space,1,0,22,22,4,1,E,space,0.473,,,,,,,,,,,
,,,,,R_2l46s3O2ycWtR8P,001,2025-08-22_12h25.38.895,continuous_performance_test,2024.2.4,Win32,60.0240096,aef93d2d-1d55-444e-8199-f46f991fa952,4,555.741,557.539,space,1,0,23,23,14,1,O,space,0.716,,,,,,,,,,,
,,,,,R_2l46s3O2ycWtR8P,001,2025-08-22_12h25.38.895,continuous_performance_test,2024.2.4,Win32,60.0240096,aef93d2d-1d55-444e-8199-f46f991fa952,4,557.54,559.188,space,1,0,24,24,22,1,W,space,0.381,,,,,,,,,,,
,,,,,R_2l46s3O2ycWtR8P,001,2025-08-22_12h25.38.895,continuous_performance_test,2024.2.4,Win32,60.0240096,aef93d2d-1d55-444e-8199-f46f991fa952,4,559.19,561.139,space,1,0,25,25,24,1,Z,space,0.513,,,,,,,,,,,
,,,,,R_2l46s3O2ycWtR8P,001,2025-08-22_12h25.38.895,continuous_performance_test,2024.2.4,Win32,60.0240096,aef93d2d-1d55-444e-8199-f46f991fa952,4,561.14,562.888,space,1,0,26,26,13,1,N,space,0.498,,,,,,,,,,,
,,,,,R_2l46s3O2ycWtR8P,001,2025-08-22_12h25.38.895,continuous_performance_test,2024.2.4,Win32,60.0240096,aef93d2d-1d55-444e-8199-f46f991fa952,4,562.89,564.588,,1,0,27,27,27,1,X,,,,,,,,,,,,,
,,,,,R_2l46s3O2ycWtR8P,001,2025-08-22_12h25.38.895,continuous_performance_test,2024.2.4,Win32,60.0240096,aef93d2d-1d55-444e-8199-f46f991fa952,4,564.589,566.488,space,0,0,28,28,25,1,X,,0.534,,,,,,,,,,,
,,,,,R_2l46s3O2ycWtR8P,001,2025-08-22_12h25.38.895,continuous_performance_test,2024.2.4,Win32,60.0240096,aef93d2d-1d55-444e-8199-f46f991fa952,4,566.489,568.187,space,1,0,29,29,1,1,B,space,0.439,,,,,,,,,,,
,,,,,R_2l46s3O2ycWtR8P,001,2025-08-22_12h25.38.895,continuous_performance_test,2024.2.4,Win32,60.0240096,aef93d2d-1d55-444e-8199-f46f991fa952,4,583.197,584.836,,1,0,0,0,26,1,X,,,,568.189,583.187,,,,,,,,
,,,,,R_2l46s3O2ycWtR8P,001,2025-08-22_12h25.38.895,continuous_performance_test,2024.2.4,Win32,60.0240096,aef93d2d-1d55-444e-8199-f46f991fa952,4,584.838,586.537,space,1,0,1,1,18,1,S,space,0.415,,,,,,,,,,,
,,,,,R_2l46s3O2ycWtR8P,001,2025-08-22_12h25.38.895,continuous_performance_test,2024.2.4,Win32,60.0240096,aef93d2d-1d55-444e-8199-f46f991fa952,4,586.538,588.189,space,1,0,2,2,7,1,H,space,0.583,,,,,,,,,,,
,,,,,R_2l46s3O2ycWtR8P,001,2025-08-22_12h25.38.895,continuous_performance_test,2024.2.4,Win32,60.0240096,aef93d2d-1d55-444e-8199-f46f991fa952,4,588.19,590.035,space,1,0,3,3,12,1,M,space,0.351,,,,,,,,,,,
,,,,,R_2l46s3O2ycWtR8P,001,2025-08-22_12h25.38.895,continuous_performance_test,2024.2.4,Win32,60.0240096,aef93d2d-1d55-444e-8199-f46f991fa952,4,590.037,591.836,,1,0,4,4,25,1,X,,,,,,,,,,,,,
,,,,,R_2l46s3O2ycWtR8P,001,2025-08-22_12h25.38.895,continuous_performance_test,2024.2.4,Win32,60.0240096,aef93d2d-1d55-444e-8199-f46f991fa952,4,591.837,593.685,space,1,0,5,5,21,1,V,space,0.597,,,,,,,,,,,
,,,,,R_2l46s3O2ycWtR8P,001,2025-08-22_12h25.38.895,continuous_performance_test,2024.2.4,Win32,60.0240096,aef93d2d-1d55-444e-8199-f46f991fa952,4,593.686,595.235,,1,0,6,6,29,1,X,,,,,,,,,,,,,
,,,,,R_2l46s3O2ycWtR8P,001,2025-08-22_12h25.38.895,continuous_performance_test,2024.2.4,Win32,60.0240096,aef93d2d-1d55-444e-8199-f46f991fa952,4,595.236,597.135,space,1,0,7,7,3,1,D,space,0.549,,,,,,,,,,,
,,,,,R_2l46s3O2ycWtR8P,001,2025-08-22_12h25.38.895,continuous_performance_test,2024.2.4,Win32,60.0240096,aef93d2d-1d55-444e-8199-f46f991fa952,4,597.136,598.835,space,1,0,8,8,11,1,L,space,0.451,,,,,,,,,,,
,,,,,R_2l46s3O2ycWtR8P,001,2025-08-22_12h25.38.895,continuous_performance_test,2024.2.4,Win32,60.0240096,aef93d2d-1d55-444e-8199-f46f991fa952,4,598.836,600.535,,1,0,9,9,28,1,X,,,,,,,,,,,,,
,,,,,R_2l46s3O2ycWtR8P,001,2025-08-22_12h25.38.895,continuous_performance_test,2024.2.4,Win32,60.0240096,aef93d2d-1d55-444e-8199-f46f991fa952,4,600.536,602.435,space,1,0,10,10,9,1,J,space,0.484,,,,,,,,,,,
,,,,,R_2l46s3O2ycWtR8P,001,2025-08-22_12h25.38.895,continuous_performance_test,2024.2.4,Win32,60.0240096,aef93d2d-1d55-444e-8199-f46f991fa952,4,602.435,603.985,space,1,0,11,11,14,1,O,space,0.68,,,,,,,,,,,
,,,,,R_2l46s3O2ycWtR8P,001,2025-08-22_12h25.38.895,continuous_performance_test,2024.2.4,Win32,60.0240096,aef93d2d-1d55-444e-8199-f46f991fa952,4,603.986,605.934,space,1,0,12,12,20,1,U,space,0.394,,,,,,,,,,,
,,,,,R_2l46s3O2ycWtR8P,001,2025-08-22_12h25.38.895,continuous_performance_test,2024.2.4,Win32,60.0240096,aef93d2d-1d55-444e-8199-f46f991fa952,4,605.935,607.784,space,1,0,13,13,17,1,R,space,0.412,,,,,,,,,,,
,,,,,R_2l46s3O2ycWtR8P,001,2025-08-22_12h25.38.895,continuous_performance_test,2024.2.4,Win32,60.0240096,aef93d2d-1d55-444e-8199-f46f991fa952,4,607.785,609.434,space,1,0,14,14,6,1,G,space,0.434,,,,,,,,,,,
,,,,,R_2l46s3O2ycWtR8P,001,2025-08-22_12h25.38.895,continuous_performance_test,2024.2.4,Win32,60.0240096,aef93d2d-1d55-444e-8199-f46f991fa952,4,609.435,611.134,space,1,0,15,15,1,1,B,space,0.45,,,,,,,,,,,
,,,,,R_2l46s3O2ycWtR8P,001,2025-08-22_12h25.38.895,continuous_performance_test,2024.2.4,Win32,60.0240096,aef93d2d-1d55-444e-8199-f46f991fa952,4,611.137,612.983,,1,0,16,16,27,1,X,,,,,,,,,,,,,
,,,,,R_2l46s3O2ycWtR8P,001,2025-08-22_12h25.38.895,continuous_performance_test,2024.2.4,Win32,60.0240096,aef93d2d-1d55-444e-8199-f46f991fa952,4,612.984,614.933,space,1,0,17,17,24,1,Z,space,0.535,,,,,,,,,,,
,,,,,R_2l46s3O2ycWtR8P,001,2025-08-22_12h25.38.895,continuous_performance_test,2024.2.4,Win32,60.0240096,aef93d2d-1d55-444e-8199-f46f991fa952,4,614.934,616.533,space,1,0,18,18,13,1,N,space,0.555,,,,,,,,,,,
,,,,,R_2l46s3O2ycWtR8P,001,2025-08-22_12h25.38.895,continuous_performance_test,2024.2.4,Win32,60.0240096,aef93d2d-1d55-444e-8199-f46f991fa952,4,616.534,618.483,space,1,0,19,19,15,1,P,space,0.381,,,,,,,,,,,
,,,,,R_2l46s3O2ycWtR8P,001,2025-08-22_12h25.38.895,continuous_performance_test,2024.2.4,Win32,60.0240096,aef93d2d-1d55-444e-8199-f46f991fa952,4,618.484,620.233,space,1,0,20,20,2,1,C,space,0.364,,,,,,,,,,,
,,,,,R_2l46s3O2ycWtR8P,001,2025-08-22_12h25.38.895,continuous_performance_test,2024.2.4,Win32,60.0240096,aef93d2d-1d55-444e-8199-f46f991fa952,4,620.234,621.833,space,1,0,21,21,8,1,I,space,0.435,,,,,,,,,,,
,,,,,R_2l46s3O2ycWtR8P,001,2025-08-22_12h25.38.895,continuous_performance_test,2024.2.4,Win32,60.0240096,aef93d2d-1d55-444e-8199-f46f991fa952,4,621.834,623.833,space,1,0,22,22,19,1,T,space,0.514,,,,,,,,,,,
,,,,,R_2l46s3O2ycWtR8P,001,2025-08-22_12h25.38.895,continuous_performance_test,2024.2.4,Win32,60.0240096,aef93d2d-1d55-444e-8199-f46f991fa952,4,623.833,625.383,space,1,0,23,23,22,1,W,space,0.447,,,,,,,,,,,
,,,,,R_2l46s3O2ycWtR8P,001,2025-08-22_12h25.38.895,continuous_performance_test,2024.2.4,Win32,60.0240096,aef93d2d-1d55-444e-8199-f46f991fa952,4,625.384,627.032,space,1,0,24,24,16,1,Q,space,0.45,,,,,,,,,,,
,,,,,R_2l46s3O2ycWtR8P,001,2025-08-22_12h25.38.895,continuous_performance_test,2024.2.4,Win32,60.0240096,aef93d2d-1d55-444e-8199-f46f991fa952,4,627.033,628.982,space,1,0,25,25,4,1,E,space,0.448,,,,,,,,,,,
,,,,,R_2l46s3O2ycWtR8P,001,2025-08-22_12h25.38.895,continuous_performance_test,2024.2.4,Win32,60.0240096,aef93d2d-1d55-444e-8199-f46f991fa952,4,628.983,630.931,space,1,0,26,26,10,1,K,space,0.59,,,,,,,,,,,
,,,,,R_2l46s3O2ycWtR8P,001,2025-08-22_12h25.38.895,continuous_performance_test,2024.2.4,Win32,60.0240096,aef93d2d-1d55-444e-8199-f46f991fa952,4,630.932,632.682,space,1,0,27,27,5,1,F,space,0.448,,,,,,,,,,,
,,,,,R_2l46s3O2ycWtR8P,001,2025-08-22_12h25.38.895,continuous_performance_test,2024.2.4,Win32,60.0240096,aef93d2d-1d55-444e-8199-f46f991fa952,4,632.683,634.531,space,1,0,28,28,23,1,Y,space,0.383,,,,,,,,,,,
,,,,,R_2l46s3O2ycWtR8P,001,2025-08-22_12h25.38.895,continuous_performance_test,2024.2.4,Win32,60.0240096,aef93d2d-1d55-444e-8199-f46f991fa952,4,634.532,636.131,space,1,0,29,29,0,1,A,space,0.534,,,,,,,,,,,
,,,,,R_2l46s3O2ycWtR8P,001,2025-08-22_12h25.38.895,continuous_performance_test,2024.2.4,Win32,60.0240096,aef93d2d-1d55-444e-8199-f46f991fa952,4,651.141,652.83,space,1,0,0,0,3,1,D,space,0.405,,636.133,651.131,,,,,,,,
,,,,,R_2l46s3O2ycWtR8P,001,2025-08-22_12h25.38.895,continuous_performance_test,2024.2.4,Win32,60.0240096,aef93d2d-1d55-444e-8199-f46f991fa952,4,652.832,654.48,space,1,0,1,1,7,1,H,space,0.376,,,,,,,,,,,
,,,,,R_2l46s3O2ycWtR8P,001,2025-08-22_12h25.38.895,continuous_performance_test,2024.2.4,Win32,60.0240096,aef93d2d-1d55-444e-8199-f46f991fa952,4,654.482,656.229,space,1,0,2,2,10,1,K,space,0.511,,,,,,,,,,,
,,,,,R_2l46s3O2ycWtR8P,001,2025-08-22_12h25.38.895,continuous_performance_test,2024.2.4,Win32,60.0240096,aef93d2d-1d55-444e-8199-f46f991fa952,4,656.231,658.179,space,1,0,3,3,19,1,T,space,0.422,,,,,,,,,,,
,,,,,R_2l46s3O2ycWtR8P,001,2025-08-22_12h25.38.895,continuous_performance_test,2024.2.4,Win32,60.0240096,aef93d2d-1d55-444e-8199-f46f991fa952,4,658.18,659.729,space,1,0,4,4,0,1,A,space,0.384,,,,,,,,,,,
,,,,,R_2l46s3O2ycWtR8P,001,2025-08-22_12h25.38.895,continuous_performance_test,2024.2.4,Win32,60.0240096,aef93d2d-1d55-444e-8199-f46f991fa952,4,659.73,661.679,space,1,0,5,5,16,1,Q,space,0.437,,,,,,,,,,,
,,,,,R_2l46s3O2ycWtR8P,001,2025-08-22_12h25.38.895,continuous_performance_test,2024.2.4,Win32,60.0240096,aef93d2d-1d55-444e-8199-f46f991fa952,4,661.68,663.279,space,1,0,6,6,13,1,N,space,0.417,,,,,,,,,,,
,,,,,R_2l46s3O2ycWtR8P,001,2025-08-22_12h25.38.895,continuous_performance_test,2024.2.4,Win32,60.0240096,aef93d2d-1d55-444e-8199-f46f991fa952,4,663.28,664.878,space,1,0,7,7,15,1,P,space,0.418,,,,,,,,,,,
,,,,,R_2l46s3O2ycWtR8P,001,2025-08-22_12h25.38.895,continuous_performance_test,2024.2.4,Win32,60.0240096,aef93d2d-1d55-444e-8199-f46f991fa952,4,664.881,666.728,space,1,0,8,8,4,1,E,space,0.383,,,,,,,,,,,
,,,,,R_2l46s3O2ycWtR8P,001,2025-08-22_12h25.38.895,continuous_performance_test,2024.2.4,Win32,60.0240096,aef93d2d-1d55-444e-8199-f46f991fa952,4,666.73,668.428,space,1,0,9,9,23,1,Y,space,0.541,,,,,,,,,,,
,,,,,R_2l46s3O2ycWtR8P,001,2025-08-22_12h25.38.895,continuous_performance_test,2024.2.4,Win32,60.0240096,aef93d2d-1d55-444e-8199-f46f991fa952,4,668.43,670.278,space,1,0,10,10,2,1,C,space,0.633,,,,,,,,,,,
,,,,,R_2l46s3O2ycWtR8P,001,2025-08-22_12h25.38.895,continuous_performance_test,2024.2.4,Win32,60.0240096,aef93d2d-1d55-444e-8199-f46f991fa952,4,670.279,671.927,,1,0,11,11,29,1,X,,,,,,,,,,,,,
,,,,,R_2l46s3O2ycWtR8P,001,2025-08-22_12h25.38.895,continuous_performance_test,2024.2.4,Win32,60.0240096,aef93d2d-1d55-444e-8199-f46f991fa952,4,671.929,673.628,space,1,0,12,12,22,1,W,space,0.523,,,,,,,,,,,
,,,,,R_2l46s3O2ycWtR8P,001,2025-08-22_12h25.38.895,continuous_performance_test,2024.2.4,Win32,60.0240096,aef93d2d-1d55-444e-8199-f46f991fa952,4,673.629,675.479,space,1,0,13,13,8,1,I,space,0.433,,,,,,,,,,,
,,,,,R_2l46s3O2ycWtR8P,001,2025-08-22_12h25.38.895,continuous_performance_test,2024.2.4,Win32,60.0240096,aef93d2d-1d55-444e-8199-f46f991fa952,4,675.48,677.028,space,1,0,14,14,20,1,U,space,0.588,,,,,,,,,,,
,,,,,R_2l46s3O2ycWtR8P,001,2025-08-22_12h25.38.895,continuous_performance_test,2024.2.4,Win32,60.0240096,aef93d2d-1d55-444e-8199-f46f991fa952,4,677.029,679.027,space,1,0,15,15,9,1,J,space,0.419,,,,,,,,,,,
,,,,,R_2l46s3O2ycWtR8P,001,2025-08-22_12h25.38.895,continuous_performance_test,2024.2.4,Win32,60.0240096,aef93d2d-1d55-444e-8199-f46f991fa952,4,679.028,680.578,,1,0,16,16,25,1,X,,,,,,,,,,,,,
,,,,,R_2l46s3O2ycWtR8P,001,2025-08-22_12h25.38.895,continuous_performance_test,2024.2.4,Win32,60.0240096,aef93d2d-1d55-444e-8199-f46f991fa952,4,680.582,682.177,space,1,0,17,17,14,1,O,space,0.468,,,,,,,,,,,
,,,,,R_2l46s3O2ycWtR8P,001,2025-08-22_12h25.38.895,continuous_performance_test,2024.2.4,Win32,60.0240096,aef93d2d-1d55-444e-8199-f46f991fa952,4,682.178,683.977,space,1,0,18,18,24,1,Z,space,0.452,,,,,,,,,,,
,,,,,R_2l46s3O2ycWtR8P,001,2025-08-22_12h25.38.895,continuous_performance_test,2024.2.4,Win32,60.0240096,aef93d2d-1d55-444e-8199-f46f991fa952,4,683.978,685.977,,1,0,19,19,28,1,X,,,,,,,,,,,,,
,,,,,R_2l46s3O2ycWtR8P,001,2025-08-22_12h25.38.895,continuous_performance_test,2024.2.4,Win32,60.0240096,aef93d2d-1d55-444e-8199-f46f991fa952,4,685.977,687.627,space,1,0,20,20,12,1,M,space,0.455,,,,,,,,,,,
,,,,,R_2l46s3O2ycWtR8P,001,2025-08-22_12h25.38.895,continuous_performance_test,2024.2.4,Win32,60.0240096,aef93d2d-1d55-444e-8199-f46f991fa952,4,687.629,689.526,space,1,0,21,21,6,1,G,space,0.487,,,,,,,,,,,
,,,,,R_2l46s3O2ycWtR8P,001,2025-08-22_12h25.38.895,continuous_performance_test,2024.2.4,Win32,60.0240096,aef93d2d-1d55-444e-8199-f46f991fa952,4,689.528,691.426,space,1,0,22,22,1,1,B,space,0.35,,,,,,,,,,,
,,,,,R_2l46s3O2ycWtR8P,001,2025-08-22_12h25.38.895,continuous_performance_test,2024.2.4,Win32,60.0240096,aef93d2d-1d55-444e-8199-f46f991fa952,4,691.428,693.276,,1,0,23,23,27,1,X,,,,,,,,,,,,,
,,,,,R_2l46s3O2ycWtR8P,001,2025-08-22_12h25.38.895,continuous_performance_test,2024.2.4,Win32,60.0240096,aef93d2d-1d55-444e-8199-f46f991fa952,4,693.276,695.026,space,1,0,24,24,17,1,R,space,0.314,,,,,,,,,,,
,,,,,R_2l46s3O2ycWtR8P,001,2025-08-22_12h25.38.895,continuous_performance_test,2024.2.4,Win32,60.0240096,aef93d2d-1d55-444e-8199-f46f991fa952,4,695.026,696.825,,1,0,25,25,26,1,X,,,,,,,,,,,,,
,,,,,R_2l46s3O2ycWtR8P,001,2025-08-22_12h25.38.895,continuous_performance_test,2024.2.4,Win32,60.0240096,aef93d2d-1d55-444e-8199-f46f991fa952,4,696.827,698.525,space,1,0,26,26,18,1,S,space,0.55,,,,,,,,,,,
,,,,,R_2l46s3O2ycWtR8P,001,2025-08-22_12h25.38.895,continuous_performance_test,2024.2.4,Win32,60.0240096,aef93d2d-1d55-444e-8199-f46f991fa952,4,698.528,700.125,space,1,0,27,27,21,1,V,space,0.604,,,,,,,,,,,
,,,,,R_2l46s3O2ycWtR8P,001,2025-08-22_12h25.38.895,continuous_performance_test,2024.2.4,Win32,60.0240096,aef93d2d-1d55-444e-8199-f46f991fa952,4,700.126,701.925,space,1,0,28,28,5,1,F,space,0.533,,,,,,,,,,,
,,,,,R_2l46s3O2ycWtR8P,001,2025-08-22_12h25.38.895,continuous_performance_test,2024.2.4,Win32,60.0240096,aef93d2d-1d55-444e-8199-f46f991fa952,4,701.926,703.825,space,1,0,29,29,11,1,L,space,0.402,,,,,,,,,,,
,,,,,R_2l46s3O2ycWtR8P,001,2025-08-22_12h25.38.895,continuous_performance_test,2024.2.4,Win32,60.0240096,aef93d2d-1d55-444e-8199-f46f991fa952,4,,,,,,,,,,,,,,703.825,703.827,,,,703.827,708.875,space,5.004,
