Instructions.started,Instructions.stopped,key_resp.keys,key_resp.rt,key_resp.duration,participant,session,date,expName,psychopyVersion,OS,frameRate,realeye-tester-id,realeye-tester-quality_grade,Trial_noX.started,Trial_noX.stopped,response.keys,response.corr,response.rt,response.duration,trials_noX.thisRepN,trials_noX.thisTrialN,trials_noX.thisN,trials_noX.thisIndex,trials_noX.ran,letter,corrAns,BlockBreak.started,BlockBreak.stopped,key_instruct.keys,key_instruct.rt,key_instruct.duration,End_NoX.started,End_NoX.stopped,key_resp_end_noX.keys,key_resp_end_noX.rt,key_resp_end_noX.duration
0.001,15.4519,space,15.4069,,R_2ruqN7Gw5wwAcKt,001,2025-09-12_12h04.36.067,continuous_performance_test,2024.2.4,Win32,60.60606061,9626dc21-8bce-4afe-88c4-46db59062c8d,4,,,,,,,,,,,,,,,,,,,,,,,
,,,,,R_2ruqN7Gw5wwAcKt,001,2025-09-12_12h04.36.067,continuous_performance_test,2024.2.4,Win32,60.60606061,9626dc21-8bce-4afe-88c4-46db59062c8d,4,15.5001,17.1901,space,1,0.6772,,0,0,0,14,1,O,space,,,,,,,,,,
,,,,,R_2ruqN7Gw5wwAcKt,001,2025-09-12_12h04.36.067,continuous_performance_test,2024.2.4,Win32,60.60606061,9626dc21-8bce-4afe-88c4-46db59062c8d,4,17.1985,19.1874,space,1,0.365,,0,1,1,18,1,S,space,,,,,,,,,,
,,,,,R_2ruqN7Gw5wwAcKt,001,2025-09-12_12h04.36.067,continuous_performance_test,2024.2.4,Win32,60.60606061,9626dc21-8bce-4afe-88c4-46db59062c8d,4,19.193,20.9854,space,1,0.3474,,0,2,2,15,1,P,space,,,,,,,,,,
,,,,,R_2ruqN7Gw5wwAcKt,001,2025-09-12_12h04.36.067,continuous_performance_test,2024.2.4,Win32,60.60606061,9626dc21-8bce-4afe-88c4-46db59062c8d,4,20.9909,22.6337,space,1,0.3483,,0,3,3,8,1,I,space,,,,,,,,,,
,,,,,R_2ruqN7Gw5wwAcKt,001,2025-09-12_12h04.36.067,continuous_performance_test,2024.2.4,Win32,60.60606061,9626dc21-8bce-4afe-88c4-46db59062c8d,4,22.64,24.4819,space,1,0.3334,,0,4,4,19,1,T,space,,,,,,,,,,
,,,,,R_2ruqN7Gw5wwAcKt,001,2025-09-12_12h04.36.067,continuous_performance_test,2024.2.4,Win32,60.60606061,9626dc21-8bce-4afe-88c4-46db59062c8d,4,24.4884,26.2307,space,1,0.3455,,0,5,5,20,1,U,space,,,,,,,,,,
,,,,,R_2ruqN7Gw5wwAcKt,001,2025-09-12_12h04.36.067,continuous_performance_test,2024.2.4,Win32,60.60606061,9626dc21-8bce-4afe-88c4-46db59062c8d,4,26.2368,28.0286,space,1,0.3,,0,6,6,10,1,K,space,,,,,,,,,,
,,,,,R_2ruqN7Gw5wwAcKt,001,2025-09-12_12h04.36.067,continuous_performance_test,2024.2.4,Win32,60.60606061,9626dc21-8bce-4afe-88c4-46db59062c8d,4,28.0352,29.9768,space,1,0.3125,,0,7,7,21,1,V,space,,,,,,,,,,
,,,,,R_2ruqN7Gw5wwAcKt,001,2025-09-12_12h04.36.067,continuous_performance_test,2024.2.4,Win32,60.60606061,9626dc21-8bce-4afe-88c4-46db59062c8d,4,29.9832,31.9748,,1,,,0,8,8,29,1,X,,,,,,,,,,,
,,,,,R_2ruqN7Gw5wwAcKt,001,2025-09-12_12h04.36.067,continuous_performance_test,2024.2.4,Win32,60.60606061,9626dc21-8bce-4afe-88c4-46db59062c8d,4,31.9804,33.6234,space,1,0.3506,,0,9,9,22,1,W,space,,,,,,,,,,
,,,,,R_2ruqN7Gw5wwAcKt,001,2025-09-12_12h04.36.067,continuous_performance_test,2024.2.4,Win32,60.60606061,9626dc21-8bce-4afe-88c4-46db59062c8d,4,33.6283,35.5774,,1,,,0,10,10,28,1,X,,,,,,,,,,,
,,,,,R_2ruqN7Gw5wwAcKt,001,2025-09-12_12h04.36.067,continuous_performance_test,2024.2.4,Win32,60.60606061,9626dc21-8bce-4afe-88c4-46db59062c8d,4,35.5839,37.3701,space,1,0.2808,,0,11,11,7,1,H,space,,,,,,,,,,
,,,,,R_2ruqN7Gw5wwAcKt,001,2025-09-12_12h04.36.067,continuous_performance_test,2024.2.4,Win32,60.60606061,9626dc21-8bce-4afe-88c4-46db59062c8d,4,37.376,38.9754,space,1,0.3669,,0,12,12,16,1,Q,space,,,,,,,,,,
,,,,,R_2ruqN7Gw5wwAcKt,001,2025-09-12_12h04.36.067,continuous_performance_test,2024.2.4,Win32,60.60606061,9626dc21-8bce-4afe-88c4-46db59062c8d,4,38.9803,40.9165,space,1,0.3148,,0,13,13,9,1,J,space,,,,,,,,,,
,,,,,R_2ruqN7Gw5wwAcKt,001,2025-09-12_12h04.36.067,continuous_performance_test,2024.2.4,Win32,60.60606061,9626dc21-8bce-4afe-88c4-46db59062c8d,4,40.9211,42.615,space,0,0.2668,,0,14,14,27,1,X,,,,,,,,,,,
,,,,,R_2ruqN7Gw5wwAcKt,001,2025-09-12_12h04.36.067,continuous_performance_test,2024.2.4,Win32,60.60606061,9626dc21-8bce-4afe-88c4-46db59062c8d,4,42.6205,44.4631,space,1,0.3042,,0,15,15,13,1,N,space,,,,,,,,,,
,,,,,R_2ruqN7Gw5wwAcKt,001,2025-09-12_12h04.36.067,continuous_performance_test,2024.2.4,Win32,60.60606061,9626dc21-8bce-4afe-88c4-46db59062c8d,4,44.4697,46.2023,space,1,0.3311,,0,16,16,12,1,M,space,,,,,,,,,,
,,,,,R_2ruqN7Gw5wwAcKt,001,2025-09-12_12h04.36.067,continuous_performance_test,2024.2.4,Win32,60.60606061,9626dc21-8bce-4afe-88c4-46db59062c8d,4,46.2071,47.7932,space,1,0.3162,,0,17,17,2,1,C,space,,,,,,,,,,
,,,,,R_2ruqN7Gw5wwAcKt,001,2025-09-12_12h04.36.067,continuous_performance_test,2024.2.4,Win32,60.60606061,9626dc21-8bce-4afe-88c4-46db59062c8d,4,47.8004,49.7955,space,1,0.3336,,0,18,18,11,1,L,space,,,,,,,,,,
,,,,,R_2ruqN7Gw5wwAcKt,001,2025-09-12_12h04.36.067,continuous_performance_test,2024.2.4,Win32,60.60606061,9626dc21-8bce-4afe-88c4-46db59062c8d,4,49.8005,51.3399,space,1,0.3393,,0,19,19,6,1,G,space,,,,,,,,,,
,,,,,R_2ruqN7Gw5wwAcKt,001,2025-09-12_12h04.36.067,continuous_performance_test,2024.2.4,Win32,60.60606061,9626dc21-8bce-4afe-88c4-46db59062c8d,4,51.3453,52.9882,space,1,0.3328,,0,20,20,3,1,D,space,,,,,,,,,,
,,,,,R_2ruqN7Gw5wwAcKt,001,2025-09-12_12h04.36.067,continuous_performance_test,2024.2.4,Win32,60.60606061,9626dc21-8bce-4afe-88c4-46db59062c8d,4,52.9935,54.737,,1,,,0,21,21,25,1,X,,,,,,,,,,,
,,,,,R_2ruqN7Gw5wwAcKt,001,2025-09-12_12h04.36.067,continuous_performance_test,2024.2.4,Win32,60.60606061,9626dc21-8bce-4afe-88c4-46db59062c8d,4,54.7425,56.5853,space,1,0.3068,,0,22,22,1,1,B,space,,,,,,,,,,
,,,,,R_2ruqN7Gw5wwAcKt,001,2025-09-12_12h04.36.067,continuous_performance_test,2024.2.4,Win32,60.60606061,9626dc21-8bce-4afe-88c4-46db59062c8d,4,56.5909,58.2334,space,1,0.3581,,0,23,23,5,1,F,space,,,,,,,,,,
,,,,,R_2ruqN7Gw5wwAcKt,001,2025-09-12_12h04.36.067,continuous_performance_test,2024.2.4,Win32,60.60606061,9626dc21-8bce-4afe-88c4-46db59062c8d,4,58.2385,60.072,space,1,0.3929,,0,24,24,4,1,E,space,,,,,,,,,,
,,,,,R_2ruqN7Gw5wwAcKt,001,2025-09-12_12h04.36.067,continuous_performance_test,2024.2.4,Win32,60.60606061,9626dc21-8bce-4afe-88c4-46db59062c8d,4,60.0764,61.9132,,1,,,0,25,25,26,1,X,,,,,,,,,,,
,,,,,R_2ruqN7Gw5wwAcKt,001,2025-09-12_12h04.36.067,continuous_performance_test,2024.2.4,Win32,60.60606061,9626dc21-8bce-4afe-88c4-46db59062c8d,4,61.9186,63.7618,space,1,0.4826,,0,26,26,17,1,R,space,,,,,,,,,,
,,,,,R_2ruqN7Gw5wwAcKt,001,2025-09-12_12h04.36.067,continuous_performance_test,2024.2.4,Win32,60.60606061,9626dc21-8bce-4afe-88c4-46db59062c8d,4,63.7673,65.5099,space,1,0.3346,,0,27,27,0,1,A,space,,,,,,,,,,
,,,,,R_2ruqN7Gw5wwAcKt,001,2025-09-12_12h04.36.067,continuous_performance_test,2024.2.4,Win32,60.60606061,9626dc21-8bce-4afe-88c4-46db59062c8d,4,65.5156,67.1147,space,1,0.4891,,0,28,28,23,1,Y,space,,,,,,,,,,
,,,,,R_2ruqN7Gw5wwAcKt,001,2025-09-12_12h04.36.067,continuous_performance_test,2024.2.4,Win32,60.60606061,9626dc21-8bce-4afe-88c4-46db59062c8d,4,67.1196,69.0563,space,1,0.4768,,0,29,29,24,1,Z,space,,,,,,,,,,
,,,,,R_2ruqN7Gw5wwAcKt,001,2025-09-12_12h04.36.067,continuous_performance_test,2024.2.4,Win32,60.60606061,9626dc21-8bce-4afe-88c4-46db59062c8d,4,72.8832,74.8179,space,1,0.3369,,0,0,0,5,1,F,space,69.0574,72.8614,space,3.7798,,,,,,
,,,,,R_2ruqN7Gw5wwAcKt,001,2025-09-12_12h04.36.067,continuous_performance_test,2024.2.4,Win32,60.60606061,9626dc21-8bce-4afe-88c4-46db59062c8d,4,74.8227,76.6663,space,1,0.254,,0,1,1,22,1,W,space,,,,,,,,,,
,,,,,R_2ruqN7Gw5wwAcKt,001,2025-09-12_12h04.36.067,continuous_performance_test,2024.2.4,Win32,60.60606061,9626dc21-8bce-4afe-88c4-46db59062c8d,4,76.6714,78.6644,space,1,0.3127,,0,2,2,6,1,G,space,,,,,,,,,,
,,,,,R_2ruqN7Gw5wwAcKt,001,2025-09-12_12h04.36.067,continuous_performance_test,2024.2.4,Win32,60.60606061,9626dc21-8bce-4afe-88c4-46db59062c8d,4,78.6694,80.5124,space,1,0.2656,,0,3,3,18,1,S,space,,,,,,,,,,
,,,,,R_2ruqN7Gw5wwAcKt,001,2025-09-12_12h04.36.067,continuous_performance_test,2024.2.4,Win32,60.60606061,9626dc21-8bce-4afe-88c4-46db59062c8d,4,80.517,82.0611,space,1,0.3808,,0,4,4,19,1,T,space,,,,,,,,,,
,,,,,R_2ruqN7Gw5wwAcKt,001,2025-09-12_12h04.36.067,continuous_performance_test,2024.2.4,Win32,60.60606061,9626dc21-8bce-4afe-88c4-46db59062c8d,4,82.0658,83.7093,,1,,,0,5,5,28,1,X,,,,,,,,,,,
,,,,,R_2ruqN7Gw5wwAcKt,001,2025-09-12_12h04.36.067,continuous_performance_test,2024.2.4,Win32,60.60606061,9626dc21-8bce-4afe-88c4-46db59062c8d,4,83.7151,85.6577,space,1,0.3333,,0,6,6,9,1,J,space,,,,,,,,,,
,,,,,R_2ruqN7Gw5wwAcKt,001,2025-09-12_12h04.36.067,continuous_performance_test,2024.2.4,Win32,60.60606061,9626dc21-8bce-4afe-88c4-46db59062c8d,4,85.6623,87.5059,,1,,,0,7,7,25,1,X,,,,,,,,,,,
,,,,,R_2ruqN7Gw5wwAcKt,001,2025-09-12_12h04.36.067,continuous_performance_test,2024.2.4,Win32,60.60606061,9626dc21-8bce-4afe-88c4-46db59062c8d,4,87.5105,89.3541,space,1,0.2974,,0,8,8,7,1,H,space,,,,,,,,,,
,,,,,R_2ruqN7Gw5wwAcKt,001,2025-09-12_12h04.36.067,continuous_performance_test,2024.2.4,Win32,60.60606061,9626dc21-8bce-4afe-88c4-46db59062c8d,4,89.36,90.9527,space,1,0.3156,,0,9,9,11,1,L,space,,,,,,,,,,
,,,,,R_2ruqN7Gw5wwAcKt,001,2025-09-12_12h04.36.067,continuous_performance_test,2024.2.4,Win32,60.60606061,9626dc21-8bce-4afe-88c4-46db59062c8d,4,90.9585,92.9505,space,1,0.3179,,0,10,10,21,1,V,space,,,,,,,,,,
,,,,,R_2ruqN7Gw5wwAcKt,001,2025-09-12_12h04.36.067,continuous_performance_test,2024.2.4,Win32,60.60606061,9626dc21-8bce-4afe-88c4-46db59062c8d,4,92.9549,94.6989,space,1,0.3028,,0,11,11,8,1,I,space,,,,,,,,,,
,,,,,R_2ruqN7Gw5wwAcKt,001,2025-09-12_12h04.36.067,continuous_performance_test,2024.2.4,Win32,60.60606061,9626dc21-8bce-4afe-88c4-46db59062c8d,4,94.7036,96.3476,space,1,0.2975,,0,12,12,12,1,M,space,,,,,,,,,,
,,,,,R_2ruqN7Gw5wwAcKt,001,2025-09-12_12h04.36.067,continuous_performance_test,2024.2.4,Win32,60.60606061,9626dc21-8bce-4afe-88c4-46db59062c8d,4,96.3532,98.1456,,1,,,0,13,13,29,1,X,,,,,,,,,,,
,,,,,R_2ruqN7Gw5wwAcKt,001,2025-09-12_12h04.36.067,continuous_performance_test,2024.2.4,Win32,60.60606061,9626dc21-8bce-4afe-88c4-46db59062c8d,4,98.1502,99.9437,space,1,0.2828,,0,14,14,3,1,D,space,,,,,,,,,,
,,,,,R_2ruqN7Gw5wwAcKt,001,2025-09-12_12h04.36.067,continuous_performance_test,2024.2.4,Win32,60.60606061,9626dc21-8bce-4afe-88c4-46db59062c8d,4,99.9482,101.5927,space,1,0.3023,,0,15,15,10,1,K,space,,,,,,,,,,
,,,,,R_2ruqN7Gw5wwAcKt,001,2025-09-12_12h04.36.067,continuous_performance_test,2024.2.4,Win32,60.60606061,9626dc21-8bce-4afe-88c4-46db59062c8d,4,101.5982,103.5903,space,1,0.3704,,0,16,16,16,1,Q,space,,,,,,,,,,
,,,,,R_2ruqN7Gw5wwAcKt,001,2025-09-12_12h04.36.067,continuous_performance_test,2024.2.4,Win32,60.60606061,9626dc21-8bce-4afe-88c4-46db59062c8d,4,103.5947,105.3391,space,1,0.4655,,0,17,17,2,1,C,space,,,,,,,,,,
,,,,,R_2ruqN7Gw5wwAcKt,001,2025-09-12_12h04.36.067,continuous_performance_test,2024.2.4,Win32,60.60606061,9626dc21-8bce-4afe-88c4-46db59062c8d,4,105.3436,106.9375,space,1,0.3331,,0,18,18,14,1,O,space,,,,,,,,,,
,,,,,R_2ruqN7Gw5wwAcKt,001,2025-09-12_12h04.36.067,continuous_performance_test,2024.2.4,Win32,60.60606061,9626dc21-8bce-4afe-88c4-46db59062c8d,4,106.9421,108.8356,space,1,0.3828,,0,19,19,4,1,E,space,,,,,,,,,,
,,,,,R_2ruqN7Gw5wwAcKt,001,2025-09-12_12h04.36.067,continuous_performance_test,2024.2.4,Win32,60.60606061,9626dc21-8bce-4afe-88c4-46db59062c8d,4,108.8406,110.4842,,1,,,0,20,20,26,1,X,,,,,,,,,,,
,,,,,R_2ruqN7Gw5wwAcKt,001,2025-09-12_12h04.36.067,continuous_performance_test,2024.2.4,Win32,60.60606061,9626dc21-8bce-4afe-88c4-46db59062c8d,4,110.4887,112.3321,space,1,0.4132,,0,21,21,23,1,Y,space,,,,,,,,,,
,,,,,R_2ruqN7Gw5wwAcKt,001,2025-09-12_12h04.36.067,continuous_performance_test,2024.2.4,Win32,60.60606061,9626dc21-8bce-4afe-88c4-46db59062c8d,4,112.3366,114.1806,space,1,0.3465,,0,22,22,24,1,Z,space,,,,,,,,,,
,,,,,R_2ruqN7Gw5wwAcKt,001,2025-09-12_12h04.36.067,continuous_performance_test,2024.2.4,Win32,60.60606061,9626dc21-8bce-4afe-88c4-46db59062c8d,4,114.1858,116.0787,space,1,0.399,,0,23,23,20,1,U,space,,,,,,,,,,
,,,,,R_2ruqN7Gw5wwAcKt,001,2025-09-12_12h04.36.067,continuous_performance_test,2024.2.4,Win32,60.60606061,9626dc21-8bce-4afe-88c4-46db59062c8d,4,116.0833,117.8769,space,1,0.3338,,0,24,24,17,1,R,space,,,,,,,,,,
,,,,,R_2ruqN7Gw5wwAcKt,001,2025-09-12_12h04.36.067,continuous_performance_test,2024.2.4,Win32,60.60606061,9626dc21-8bce-4afe-88c4-46db59062c8d,4,117.8815,119.5257,space,1,0.403,,0,25,25,15,1,P,space,,,,,,,,,,
,,,,,R_2ruqN7Gw5wwAcKt,001,2025-09-12_12h04.36.067,continuous_performance_test,2024.2.4,Win32,60.60606061,9626dc21-8bce-4afe-88c4-46db59062c8d,4,119.5302,121.4739,space,1,0.4886,,0,26,26,13,1,N,space,,,,,,,,,,
,,,,,R_2ruqN7Gw5wwAcKt,001,2025-09-12_12h04.36.067,continuous_performance_test,2024.2.4,Win32,60.60606061,9626dc21-8bce-4afe-88c4-46db59062c8d,4,121.4785,123.4716,space,1,0.4334,,0,27,27,0,1,A,space,,,,,,,,,,
,,,,,R_2ruqN7Gw5wwAcKt,001,2025-09-12_12h04.36.067,continuous_performance_test,2024.2.4,Win32,60.60606061,9626dc21-8bce-4afe-88c4-46db59062c8d,4,123.476,125.3201,space,1,0.4995,,0,28,28,1,1,B,space,,,,,,,,,,
,,,,,R_2ruqN7Gw5wwAcKt,001,2025-09-12_12h04.36.067,continuous_performance_test,2024.2.4,Win32,60.60606061,9626dc21-8bce-4afe-88c4-46db59062c8d,4,125.325,127.0683,,1,,,0,29,29,27,1,X,,,,,,,,,,,
,,,,,R_2ruqN7Gw5wwAcKt,001,2025-09-12_12h04.36.067,continuous_performance_test,2024.2.4,Win32,60.60606061,9626dc21-8bce-4afe-88c4-46db59062c8d,4,128.6143,130.3993,space,1,0.5503,,0,0,0,10,1,K,space,127.0716,128.6001,space,1.5095,,,,,,
,,,,,R_2ruqN7Gw5wwAcKt,001,2025-09-12_12h04.36.067,continuous_performance_test,2024.2.4,Win32,60.60606061,9626dc21-8bce-4afe-88c4-46db59062c8d,4,130.4057,131.9472,,1,,,0,1,1,27,1,X,,,,,,,,,,,
,,,,,R_2ruqN7Gw5wwAcKt,001,2025-09-12_12h04.36.067,continuous_performance_test,2024.2.4,Win32,60.60606061,9626dc21-8bce-4afe-88c4-46db59062c8d,4,131.9521,133.6458,space,1,0.2663,,0,2,2,9,1,J,space,,,,,,,,,,
,,,,,R_2ruqN7Gw5wwAcKt,001,2025-09-12_12h04.36.067,continuous_performance_test,2024.2.4,Win32,60.60606061,9626dc21-8bce-4afe-88c4-46db59062c8d,4,133.6511,135.2439,space,1,0.3069,,0,3,3,4,1,E,space,,,,,,,,,,
,,,,,R_2ruqN7Gw5wwAcKt,001,2025-09-12_12h04.36.067,continuous_performance_test,2024.2.4,Win32,60.60606061,9626dc21-8bce-4afe-88c4-46db59062c8d,4,135.2493,136.9423,space,1,0.3597,,0,4,4,15,1,P,space,,,,,,,,,,
,,,,,R_2ruqN7Gw5wwAcKt,001,2025-09-12_12h04.36.067,continuous_performance_test,2024.2.4,Win32,60.60606061,9626dc21-8bce-4afe-88c4-46db59062c8d,4,136.9473,138.8407,space,1,0.3839,,0,5,5,16,1,Q,space,,,,,,,,,,
,,,,,R_2ruqN7Gw5wwAcKt,001,2025-09-12_12h04.36.067,continuous_performance_test,2024.2.4,Win32,60.60606061,9626dc21-8bce-4afe-88c4-46db59062c8d,4,138.8458,140.3952,space,1,0.3333,,0,6,6,1,1,B,space,,,,,,,,,,
,,,,,R_2ruqN7Gw5wwAcKt,001,2025-09-12_12h04.36.067,continuous_performance_test,2024.2.4,Win32,60.60606061,9626dc21-8bce-4afe-88c4-46db59062c8d,4,140.4015,142.2872,,1,,,0,7,7,29,1,X,,,,,,,,,,,
,,,,,R_2ruqN7Gw5wwAcKt,001,2025-09-12_12h04.36.067,continuous_performance_test,2024.2.4,Win32,60.60606061,9626dc21-8bce-4afe-88c4-46db59062c8d,4,142.2939,143.8856,space,1,0.2836,,0,8,8,23,1,Y,space,,,,,,,,,,
,,,,,R_2ruqN7Gw5wwAcKt,001,2025-09-12_12h04.36.067,continuous_performance_test,2024.2.4,Win32,60.60606061,9626dc21-8bce-4afe-88c4-46db59062c8d,4,143.8898,145.8379,space,1,0.31,,0,9,9,18,1,S,space,,,,,,,,,,
,,,,,R_2ruqN7Gw5wwAcKt,001,2025-09-12_12h04.36.067,continuous_performance_test,2024.2.4,Win32,60.60606061,9626dc21-8bce-4afe-88c4-46db59062c8d,4,145.8424,147.5823,space,1,0.281,,0,10,10,11,1,L,space,,,,,,,,,,
,,,,,R_2ruqN7Gw5wwAcKt,001,2025-09-12_12h04.36.067,continuous_performance_test,2024.2.4,Win32,60.60606061,9626dc21-8bce-4afe-88c4-46db59062c8d,4,147.5888,149.3368,space,1,0.3172,,0,11,11,21,1,V,space,,,,,,,,,,
,,,,,R_2ruqN7Gw5wwAcKt,001,2025-09-12_12h04.36.067,continuous_performance_test,2024.2.4,Win32,60.60606061,9626dc21-8bce-4afe-88c4-46db59062c8d,4,149.3416,151.3286,space,1,0.3761,,0,12,12,24,1,Z,space,,,,,,,,,,
,,,,,R_2ruqN7Gw5wwAcKt,001,2025-09-12_12h04.36.067,continuous_performance_test,2024.2.4,Win32,60.60606061,9626dc21-8bce-4afe-88c4-46db59062c8d,4,151.3336,153.1273,space,1,0.3247,,0,13,13,14,1,O,space,,,,,,,,,,
,,,,,R_2ruqN7Gw5wwAcKt,001,2025-09-12_12h04.36.067,continuous_performance_test,2024.2.4,Win32,60.60606061,9626dc21-8bce-4afe-88c4-46db59062c8d,4,153.132,154.8752,space,1,0.3839,,0,14,14,0,1,A,space,,,,,,,,,,
,,,,,R_2ruqN7Gw5wwAcKt,001,2025-09-12_12h04.36.067,continuous_performance_test,2024.2.4,Win32,60.60606061,9626dc21-8bce-4afe-88c4-46db59062c8d,4,154.8801,156.8235,space,1,0.2993,,0,15,15,20,1,U,space,,,,,,,,,,
,,,,,R_2ruqN7Gw5wwAcKt,001,2025-09-12_12h04.36.067,continuous_performance_test,2024.2.4,Win32,60.60606061,9626dc21-8bce-4afe-88c4-46db59062c8d,4,156.8283,158.622,space,0,0.49,,0,16,16,28,1,X,,,,,,,,,,,
,,,,,R_2ruqN7Gw5wwAcKt,001,2025-09-12_12h04.36.067,continuous_performance_test,2024.2.4,Win32,60.60606061,9626dc21-8bce-4afe-88c4-46db59062c8d,4,158.6268,160.5102,space,1,0.3183,,0,17,17,5,1,F,space,,,,,,,,,,
,,,,,R_2ruqN7Gw5wwAcKt,001,2025-09-12_12h04.36.067,continuous_performance_test,2024.2.4,Win32,60.60606061,9626dc21-8bce-4afe-88c4-46db59062c8d,4,160.5145,162.4018,space,1,0.3505,,0,18,18,8,1,I,space,,,,,,,,,,
,,,,,R_2ruqN7Gw5wwAcKt,001,2025-09-12_12h04.36.067,continuous_performance_test,2024.2.4,Win32,60.60606061,9626dc21-8bce-4afe-88c4-46db59062c8d,4,162.4067,164.1038,space,1,0.3327,,0,19,19,22,1,W,space,,,,,,,,,,
,,,,,R_2ruqN7Gw5wwAcKt,001,2025-09-12_12h04.36.067,continuous_performance_test,2024.2.4,Win32,60.60606061,9626dc21-8bce-4afe-88c4-46db59062c8d,4,164.1081,165.9026,space,1,0.3382,,0,20,20,19,1,T,space,,,,,,,,,,
,,,,,R_2ruqN7Gw5wwAcKt,001,2025-09-12_12h04.36.067,continuous_performance_test,2024.2.4,Win32,60.60606061,9626dc21-8bce-4afe-88c4-46db59062c8d,4,165.9066,167.7966,,1,,,0,21,21,26,1,X,,,,,,,,,,,
,,,,,R_2ruqN7Gw5wwAcKt,001,2025-09-12_12h04.36.067,continuous_performance_test,2024.2.4,Win32,60.60606061,9626dc21-8bce-4afe-88c4-46db59062c8d,4,167.8011,169.5511,,1,,,0,22,22,25,1,X,,,,,,,,,,,
,,,,,R_2ruqN7Gw5wwAcKt,001,2025-09-12_12h04.36.067,continuous_performance_test,2024.2.4,Win32,60.60606061,9626dc21-8bce-4afe-88c4-46db59062c8d,4,169.5553,171.4433,space,1,0.4538,,0,23,23,17,1,R,space,,,,,,,,,,
,,,,,R_2ruqN7Gw5wwAcKt,001,2025-09-12_12h04.36.067,continuous_performance_test,2024.2.4,Win32,60.60606061,9626dc21-8bce-4afe-88c4-46db59062c8d,4,171.4484,173.1985,space,1,0.3328,,0,24,24,6,1,G,space,,,,,,,,,,
,,,,,R_2ruqN7Gw5wwAcKt,001,2025-09-12_12h04.36.067,continuous_performance_test,2024.2.4,Win32,60.60606061,9626dc21-8bce-4afe-88c4-46db59062c8d,4,173.2026,175.1897,space,1,0.3141,,0,25,25,7,1,H,space,,,,,,,,,,
,,,,,R_2ruqN7Gw5wwAcKt,001,2025-09-12_12h04.36.067,continuous_performance_test,2024.2.4,Win32,60.60606061,9626dc21-8bce-4afe-88c4-46db59062c8d,4,175.1944,176.9384,space,1,0.34,,0,26,26,3,1,D,space,,,,,,,,,,
,,,,,R_2ruqN7Gw5wwAcKt,001,2025-09-12_12h04.36.067,continuous_performance_test,2024.2.4,Win32,60.60606061,9626dc21-8bce-4afe-88c4-46db59062c8d,4,176.9431,178.5363,space,1,0.4005,,0,27,27,12,1,M,space,,,,,,,,,,
,,,,,R_2ruqN7Gw5wwAcKt,001,2025-09-12_12h04.36.067,continuous_performance_test,2024.2.4,Win32,60.60606061,9626dc21-8bce-4afe-88c4-46db59062c8d,4,178.5408,180.1853,space,1,0.4887,,0,28,28,2,1,C,space,,,,,,,,,,
,,,,,R_2ruqN7Gw5wwAcKt,001,2025-09-12_12h04.36.067,continuous_performance_test,2024.2.4,Win32,60.60606061,9626dc21-8bce-4afe-88c4-46db59062c8d,4,180.1904,182.0832,space,1,0.5338,,0,29,29,13,1,N,space,,,,,,,,,,
,,,,,R_2ruqN7Gw5wwAcKt,001,2025-09-12_12h04.36.067,continuous_performance_test,2024.2.4,Win32,60.60606061,9626dc21-8bce-4afe-88c4-46db59062c8d,4,183.4173,185.3636,space,1,0.3836,,0,0,0,13,1,N,space,182.0865,183.4063,space,1.2988,,,,,,
,,,,,R_2ruqN7Gw5wwAcKt,001,2025-09-12_12h04.36.067,continuous_performance_test,2024.2.4,Win32,60.60606061,9626dc21-8bce-4afe-88c4-46db59062c8d,4,185.3683,187.3613,space,1,0.3088,,0,1,1,15,1,P,space,,,,,,,,,,
,,,,,R_2ruqN7Gw5wwAcKt,001,2025-09-12_12h04.36.067,continuous_performance_test,2024.2.4,Win32,60.60606061,9626dc21-8bce-4afe-88c4-46db59062c8d,4,187.3665,189.3597,space,1,0.3162,,0,2,2,3,1,D,space,,,,,,,,,,
,,,,,R_2ruqN7Gw5wwAcKt,001,2025-09-12_12h04.36.067,continuous_performance_test,2024.2.4,Win32,60.60606061,9626dc21-8bce-4afe-88c4-46db59062c8d,4,189.3645,191.3634,space,1,0.3637,,0,3,3,23,1,Y,space,,,,,,,,,,
,,,,,R_2ruqN7Gw5wwAcKt,001,2025-09-12_12h04.36.067,continuous_performance_test,2024.2.4,Win32,60.60606061,9626dc21-8bce-4afe-88c4-46db59062c8d,4,191.3676,193.0558,space,1,0.3797,,0,4,4,2,1,C,space,,,,,,,,,,
,,,,,R_2ruqN7Gw5wwAcKt,001,2025-09-12_12h04.36.067,continuous_performance_test,2024.2.4,Win32,60.60606061,9626dc21-8bce-4afe-88c4-46db59062c8d,4,193.0623,194.7601,space,1,0.3171,,0,5,5,0,1,A,space,,,,,,,,,,
,,,,,R_2ruqN7Gw5wwAcKt,001,2025-09-12_12h04.36.067,continuous_performance_test,2024.2.4,Win32,60.60606061,9626dc21-8bce-4afe-88c4-46db59062c8d,4,194.7644,196.4599,space,1,0.3205,,0,6,6,19,1,T,space,,,,,,,,,,
,,,,,R_2ruqN7Gw5wwAcKt,001,2025-09-12_12h04.36.067,continuous_performance_test,2024.2.4,Win32,60.60606061,9626dc21-8bce-4afe-88c4-46db59062c8d,4,196.464,198.4007,space,1,0.4105,,0,7,7,18,1,S,space,,,,,,,,,,
,,,,,R_2ruqN7Gw5wwAcKt,001,2025-09-12_12h04.36.067,continuous_performance_test,2024.2.4,Win32,60.60606061,9626dc21-8bce-4afe-88c4-46db59062c8d,4,198.4054,200.0495,space,1,0.3548,,0,8,8,24,1,Z,space,,,,,,,,,,
,,,,,R_2ruqN7Gw5wwAcKt,001,2025-09-12_12h04.36.067,continuous_performance_test,2024.2.4,Win32,60.60606061,9626dc21-8bce-4afe-88c4-46db59062c8d,4,200.0543,202.0476,space,1,0.3305,,0,9,9,21,1,V,space,,,,,,,,,,
,,,,,R_2ruqN7Gw5wwAcKt,001,2025-09-12_12h04.36.067,continuous_performance_test,2024.2.4,Win32,60.60606061,9626dc21-8bce-4afe-88c4-46db59062c8d,4,202.0533,204.0016,space,0,0.5364,,0,10,10,27,1,X,,,,,,,,,,,
,,,,,R_2ruqN7Gw5wwAcKt,001,2025-09-12_12h04.36.067,continuous_performance_test,2024.2.4,Win32,60.60606061,9626dc21-8bce-4afe-88c4-46db59062c8d,4,204.0046,205.8442,space,0,0.3469,,0,11,11,25,1,X,,,,,,,,,,,
,,,,,R_2ruqN7Gw5wwAcKt,001,2025-09-12_12h04.36.067,continuous_performance_test,2024.2.4,Win32,60.60606061,9626dc21-8bce-4afe-88c4-46db59062c8d,4,205.8491,207.3983,space,1,0.364,,0,12,12,16,1,Q,space,,,,,,,,,,
,,,,,R_2ruqN7Gw5wwAcKt,001,2025-09-12_12h04.36.067,continuous_performance_test,2024.2.4,Win32,60.60606061,9626dc21-8bce-4afe-88c4-46db59062c8d,4,207.4026,209.3911,,1,,,0,13,13,26,1,X,,,,,,,,,,,
,,,,,R_2ruqN7Gw5wwAcKt,001,2025-09-12_12h04.36.067,continuous_performance_test,2024.2.4,Win32,60.60606061,9626dc21-8bce-4afe-88c4-46db59062c8d,4,209.3976,210.9456,space,1,0.3964,,0,14,14,8,1,I,space,,,,,,,,,,
,,,,,R_2ruqN7Gw5wwAcKt,001,2025-09-12_12h04.36.067,continuous_performance_test,2024.2.4,Win32,60.60606061,9626dc21-8bce-4afe-88c4-46db59062c8d,4,210.9497,212.893,space,1,0.3923,,0,15,15,7,1,H,space,,,,,,,,,,
,,,,,R_2ruqN7Gw5wwAcKt,001,2025-09-12_12h04.36.067,continuous_performance_test,2024.2.4,Win32,60.60606061,9626dc21-8bce-4afe-88c4-46db59062c8d,4,212.8972,214.7356,space,1,0.3714,,0,16,16,6,1,G,space,,,,,,,,,,
,,,,,R_2ruqN7Gw5wwAcKt,001,2025-09-12_12h04.36.067,continuous_performance_test,2024.2.4,Win32,60.60606061,9626dc21-8bce-4afe-88c4-46db59062c8d,4,214.7404,216.5336,space,1,0.4007,,0,17,17,12,1,M,space,,,,,,,,,,
,,,,,R_2ruqN7Gw5wwAcKt,001,2025-09-12_12h04.36.067,continuous_performance_test,2024.2.4,Win32,60.60606061,9626dc21-8bce-4afe-88c4-46db59062c8d,4,216.5389,218.4322,space,1,0.3902,,0,18,18,11,1,L,space,,,,,,,,,,
,,,,,R_2ruqN7Gw5wwAcKt,001,2025-09-12_12h04.36.067,continuous_performance_test,2024.2.4,Win32,60.60606061,9626dc21-8bce-4afe-88c4-46db59062c8d,4,218.4369,220.0365,,1,,,0,19,19,28,1,X,,,,,,,,,,,
,,,,,R_2ruqN7Gw5wwAcKt,001,2025-09-12_12h04.36.067,continuous_performance_test,2024.2.4,Win32,60.60606061,9626dc21-8bce-4afe-88c4-46db59062c8d,4,220.0416,221.9288,space,1,0.3495,,0,20,20,22,1,W,space,,,,,,,,,,
,,,,,R_2ruqN7Gw5wwAcKt,001,2025-09-12_12h04.36.067,continuous_performance_test,2024.2.4,Win32,60.60606061,9626dc21-8bce-4afe-88c4-46db59062c8d,4,221.9351,223.6271,space,1,0.3772,,0,21,21,1,1,B,space,,,,,,,,,,
,,,,,R_2ruqN7Gw5wwAcKt,001,2025-09-12_12h04.36.067,continuous_performance_test,2024.2.4,Win32,60.60606061,9626dc21-8bce-4afe-88c4-46db59062c8d,4,223.6317,225.3821,space,1,0.4139,,0,22,22,17,1,R,space,,,,,,,,,,
,,,,,R_2ruqN7Gw5wwAcKt,001,2025-09-12_12h04.36.067,continuous_performance_test,2024.2.4,Win32,60.60606061,9626dc21-8bce-4afe-88c4-46db59062c8d,4,225.3862,227.0237,space,1,0.4169,,0,23,23,4,1,E,space,,,,,,,,,,
,,,,,R_2ruqN7Gw5wwAcKt,001,2025-09-12_12h04.36.067,continuous_performance_test,2024.2.4,Win32,60.60606061,9626dc21-8bce-4afe-88c4-46db59062c8d,4,227.0298,229.022,space,1,0.3642,,0,24,24,14,1,O,space,,,,,,,,,,
,,,,,R_2ruqN7Gw5wwAcKt,001,2025-09-12_12h04.36.067,continuous_performance_test,2024.2.4,Win32,60.60606061,9626dc21-8bce-4afe-88c4-46db59062c8d,4,229.027,230.6265,,1,,,0,25,25,29,1,X,,,,,,,,,,,
,,,,,R_2ruqN7Gw5wwAcKt,001,2025-09-12_12h04.36.067,continuous_performance_test,2024.2.4,Win32,60.60606061,9626dc21-8bce-4afe-88c4-46db59062c8d,4,230.6308,232.5747,space,1,0.3641,,0,26,26,5,1,F,space,,,,,,,,,,
,,,,,R_2ruqN7Gw5wwAcKt,001,2025-09-12_12h04.36.067,continuous_performance_test,2024.2.4,Win32,60.60606061,9626dc21-8bce-4afe-88c4-46db59062c8d,4,232.579,234.2172,space,1,0.3975,,0,27,27,10,1,K,space,,,,,,,,,,
,,,,,R_2ruqN7Gw5wwAcKt,001,2025-09-12_12h04.36.067,continuous_performance_test,2024.2.4,Win32,60.60606061,9626dc21-8bce-4afe-88c4-46db59062c8d,4,234.222,235.8656,space,1,0.4472,,0,28,28,9,1,J,space,,,,,,,,,,
,,,,,R_2ruqN7Gw5wwAcKt,001,2025-09-12_12h04.36.067,continuous_performance_test,2024.2.4,Win32,60.60606061,9626dc21-8bce-4afe-88c4-46db59062c8d,4,235.8705,237.8637,space,1,0.45,,0,29,29,20,1,U,space,,,,,,,,,,
,,,,,R_2ruqN7Gw5wwAcKt,001,2025-09-12_12h04.36.067,continuous_performance_test,2024.2.4,Win32,60.60606061,9626dc21-8bce-4afe-88c4-46db59062c8d,4,239.98,241.5306,space,1,0.3674,,0,0,0,18,1,S,space,237.8674,239.9665,space,2.0786,,,,,,
,,,,,R_2ruqN7Gw5wwAcKt,001,2025-09-12_12h04.36.067,continuous_performance_test,2024.2.4,Win32,60.60606061,9626dc21-8bce-4afe-88c4-46db59062c8d,4,241.5347,243.1252,space,1,0.3492,,0,1,1,6,1,G,space,,,,,,,,,,
,,,,,R_2ruqN7Gw5wwAcKt,001,2025-09-12_12h04.36.067,continuous_performance_test,2024.2.4,Win32,60.60606061,9626dc21-8bce-4afe-88c4-46db59062c8d,4,243.1303,244.8738,space,1,0.4002,,0,2,2,9,1,J,space,,,,,,,,,,
,,,,,R_2ruqN7Gw5wwAcKt,001,2025-09-12_12h04.36.067,continuous_performance_test,2024.2.4,Win32,60.60606061,9626dc21-8bce-4afe-88c4-46db59062c8d,4,244.8785,246.8788,,1,,,0,3,3,26,1,X,,,,,,,,,,,
,,,,,R_2ruqN7Gw5wwAcKt,001,2025-09-12_12h04.36.067,continuous_performance_test,2024.2.4,Win32,60.60606061,9626dc21-8bce-4afe-88c4-46db59062c8d,4,246.883,248.4704,space,1,0.35,,0,4,4,17,1,R,space,,,,,,,,,,
,,,,,R_2ruqN7Gw5wwAcKt,001,2025-09-12_12h04.36.067,continuous_performance_test,2024.2.4,Win32,60.60606061,9626dc21-8bce-4afe-88c4-46db59062c8d,4,248.4767,250.4745,space,1,0.4261,,0,5,5,7,1,H,space,,,,,,,,,,
,,,,,R_2ruqN7Gw5wwAcKt,001,2025-09-12_12h04.36.067,continuous_performance_test,2024.2.4,Win32,60.60606061,9626dc21-8bce-4afe-88c4-46db59062c8d,4,250.4789,252.0171,space,1,0.3996,,0,6,6,21,1,V,space,,,,,,,,,,
,,,,,R_2ruqN7Gw5wwAcKt,001,2025-09-12_12h04.36.067,continuous_performance_test,2024.2.4,Win32,60.60606061,9626dc21-8bce-4afe-88c4-46db59062c8d,4,252.0223,253.6156,space,1,0.3564,,0,7,7,22,1,W,space,,,,,,,,,,
,,,,,R_2ruqN7Gw5wwAcKt,001,2025-09-12_12h04.36.067,continuous_performance_test,2024.2.4,Win32,60.60606061,9626dc21-8bce-4afe-88c4-46db59062c8d,4,253.6204,255.2637,space,1,0.3764,,0,8,8,24,1,Z,space,,,,,,,,,,
,,,,,R_2ruqN7Gw5wwAcKt,001,2025-09-12_12h04.36.067,continuous_performance_test,2024.2.4,Win32,60.60606061,9626dc21-8bce-4afe-88c4-46db59062c8d,4,255.2683,257.1624,space,1,0.364,,0,9,9,5,1,F,space,,,,,,,,,,
,,,,,R_2ruqN7Gw5wwAcKt,001,2025-09-12_12h04.36.067,continuous_performance_test,2024.2.4,Win32,60.60606061,9626dc21-8bce-4afe-88c4-46db59062c8d,4,257.1671,258.9606,,1,,,0,10,10,28,1,X,,,,,,,,,,,
,,,,,R_2ruqN7Gw5wwAcKt,001,2025-09-12_12h04.36.067,continuous_performance_test,2024.2.4,Win32,60.60606061,9626dc21-8bce-4afe-88c4-46db59062c8d,4,258.9653,260.6085,space,1,0.4489,,0,11,11,23,1,Y,space,,,,,,,,,,
,,,,,R_2ruqN7Gw5wwAcKt,001,2025-09-12_12h04.36.067,continuous_performance_test,2024.2.4,Win32,60.60606061,9626dc21-8bce-4afe-88c4-46db59062c8d,4,260.6133,262.6076,space,1,0.4517,,0,12,12,4,1,E,space,,,,,,,,,,
,,,,,R_2ruqN7Gw5wwAcKt,001,2025-09-12_12h04.36.067,continuous_performance_test,2024.2.4,Win32,60.60606061,9626dc21-8bce-4afe-88c4-46db59062c8d,4,262.6138,264.5054,space,1,0.3891,,0,13,13,14,1,O,space,,,,,,,,,,
,,,,,R_2ruqN7Gw5wwAcKt,001,2025-09-12_12h04.36.067,continuous_performance_test,2024.2.4,Win32,60.60606061,9626dc21-8bce-4afe-88c4-46db59062c8d,4,264.5123,266.4101,space,1,0.3738,,0,14,14,3,1,D,space,,,,,,,,,,
,,,,,R_2ruqN7Gw5wwAcKt,001,2025-09-12_12h04.36.067,continuous_performance_test,2024.2.4,Win32,60.60606061,9626dc21-8bce-4afe-88c4-46db59062c8d,4,266.4143,268.2513,,1,,,0,15,15,27,1,X,,,,,,,,,,,
,,,,,R_2ruqN7Gw5wwAcKt,001,2025-09-12_12h04.36.067,continuous_performance_test,2024.2.4,Win32,60.60606061,9626dc21-8bce-4afe-88c4-46db59062c8d,4,268.256,269.8406,space,1,0.3673,,0,16,16,20,1,U,space,,,,,,,,,,
,,,,,R_2ruqN7Gw5wwAcKt,001,2025-09-12_12h04.36.067,continuous_performance_test,2024.2.4,Win32,60.60606061,9626dc21-8bce-4afe-88c4-46db59062c8d,4,269.8449,271.7852,space,1,0.3217,,0,17,17,16,1,Q,space,,,,,,,,,,
,,,,,R_2ruqN7Gw5wwAcKt,001,2025-09-12_12h04.36.067,continuous_performance_test,2024.2.4,Win32,60.60606061,9626dc21-8bce-4afe-88c4-46db59062c8d,4,271.7896,273.4798,space,1,0.3831,,0,18,18,19,1,T,space,,,,,,,,,,
,,,,,R_2ruqN7Gw5wwAcKt,001,2025-09-12_12h04.36.067,continuous_performance_test,2024.2.4,Win32,60.60606061,9626dc21-8bce-4afe-88c4-46db59062c8d,4,273.4844,275.1843,space,1,0.4062,,0,19,19,8,1,I,space,,,,,,,,,,
,,,,,R_2ruqN7Gw5wwAcKt,001,2025-09-12_12h04.36.067,continuous_performance_test,2024.2.4,Win32,60.60606061,9626dc21-8bce-4afe-88c4-46db59062c8d,4,275.1893,277.0769,,1,,,0,20,20,29,1,X,,,,,,,,,,,
,,,,,R_2ruqN7Gw5wwAcKt,001,2025-09-12_12h04.36.067,continuous_performance_test,2024.2.4,Win32,60.60606061,9626dc21-8bce-4afe-88c4-46db59062c8d,4,277.0816,278.6312,space,1,0.4676,,0,21,21,11,1,L,space,,,,,,,,,,
,,,,,R_2ruqN7Gw5wwAcKt,001,2025-09-12_12h04.36.067,continuous_performance_test,2024.2.4,Win32,60.60606061,9626dc21-8bce-4afe-88c4-46db59062c8d,4,278.6355,280.2796,space,1,0.4828,,0,22,22,13,1,N,space,,,,,,,,,,
,,,,,R_2ruqN7Gw5wwAcKt,001,2025-09-12_12h04.36.067,continuous_performance_test,2024.2.4,Win32,60.60606061,9626dc21-8bce-4afe-88c4-46db59062c8d,4,280.2838,281.829,space,1,0.4661,,0,23,23,10,1,K,space,,,,,,,,,,
,,,,,R_2ruqN7Gw5wwAcKt,001,2025-09-12_12h04.36.067,continuous_performance_test,2024.2.4,Win32,60.60606061,9626dc21-8bce-4afe-88c4-46db59062c8d,4,281.8333,283.6264,,1,,,0,24,24,25,1,X,,,,,,,,,,,
,,,,,R_2ruqN7Gw5wwAcKt,001,2025-09-12_12h04.36.067,continuous_performance_test,2024.2.4,Win32,60.60606061,9626dc21-8bce-4afe-88c4-46db59062c8d,4,283.6312,285.5187,space,1,0.4328,,0,25,25,2,1,C,space,,,,,,,,,,
,,,,,R_2ruqN7Gw5wwAcKt,001,2025-09-12_12h04.36.067,continuous_performance_test,2024.2.4,Win32,60.60606061,9626dc21-8bce-4afe-88c4-46db59062c8d,4,285.5234,287.4165,space,1,0.3972,,0,26,26,0,1,A,space,,,,,,,,,,
,,,,,R_2ruqN7Gw5wwAcKt,001,2025-09-12_12h04.36.067,continuous_performance_test,2024.2.4,Win32,60.60606061,9626dc21-8bce-4afe-88c4-46db59062c8d,4,287.4216,289.2649,space,1,0.5078,,0,27,27,12,1,M,space,,,,,,,,,,
,,,,,R_2ruqN7Gw5wwAcKt,001,2025-09-12_12h04.36.067,continuous_performance_test,2024.2.4,Win32,60.60606061,9626dc21-8bce-4afe-88c4-46db59062c8d,4,289.2695,291.0134,space,1,0.4837,,0,28,28,1,1,B,space,,,,,,,,,,
,,,,,R_2ruqN7Gw5wwAcKt,001,2025-09-12_12h04.36.067,continuous_performance_test,2024.2.4,Win32,60.60606061,9626dc21-8bce-4afe-88c4-46db59062c8d,4,291.0181,292.8689,space,1,0.5328,,0,29,29,15,1,P,space,,,,,,,,,,
,,,,,R_2ruqN7Gw5wwAcKt,001,2025-09-12_12h04.36.067,continuous_performance_test,2024.2.4,Win32,60.60606061,9626dc21-8bce-4afe-88c4-46db59062c8d,4,294.1239,295.7087,space,1,0.4673,,0,0,0,11,1,L,space,292.872,294.1115,space,1.223,,,,,,
,,,,,R_2ruqN7Gw5wwAcKt,001,2025-09-12_12h04.36.067,continuous_performance_test,2024.2.4,Win32,60.60606061,9626dc21-8bce-4afe-88c4-46db59062c8d,4,295.7135,297.6138,space,1,0.4006,,0,1,1,21,1,V,space,,,,,,,,,,
,,,,,R_2ruqN7Gw5wwAcKt,001,2025-09-12_12h04.36.067,continuous_performance_test,2024.2.4,Win32,60.60606061,9626dc21-8bce-4afe-88c4-46db59062c8d,4,297.6179,299.5554,space,1,0.3327,,0,2,2,16,1,Q,space,,,,,,,,,,
,,,,,R_2ruqN7Gw5wwAcKt,001,2025-09-12_12h04.36.067,continuous_performance_test,2024.2.4,Win32,60.60606061,9626dc21-8bce-4afe-88c4-46db59062c8d,4,299.5601,301.4037,space,1,0.3306,,0,3,3,12,1,M,space,,,,,,,,,,
,,,,,R_2ruqN7Gw5wwAcKt,001,2025-09-12_12h04.36.067,continuous_performance_test,2024.2.4,Win32,60.60606061,9626dc21-8bce-4afe-88c4-46db59062c8d,4,301.4087,302.9558,,1,,,0,4,4,28,1,X,,,,,,,,,,,
,,,,,R_2ruqN7Gw5wwAcKt,001,2025-09-12_12h04.36.067,continuous_performance_test,2024.2.4,Win32,60.60606061,9626dc21-8bce-4afe-88c4-46db59062c8d,4,302.9587,304.8004,,1,,,0,5,5,26,1,X,,,,,,,,,,,
,,,,,R_2ruqN7Gw5wwAcKt,001,2025-09-12_12h04.36.067,continuous_performance_test,2024.2.4,Win32,60.60606061,9626dc21-8bce-4afe-88c4-46db59062c8d,4,304.8057,306.6523,space,1,0.4829,,0,6,6,5,1,F,space,,,,,,,,,,
,,,,,R_2ruqN7Gw5wwAcKt,001,2025-09-12_12h04.36.067,continuous_performance_test,2024.2.4,Win32,60.60606061,9626dc21-8bce-4afe-88c4-46db59062c8d,4,306.6568,308.5469,,1,,,0,7,7,25,1,X,,,,,,,,,,,
,,,,,R_2ruqN7Gw5wwAcKt,001,2025-09-12_12h04.36.067,continuous_performance_test,2024.2.4,Win32,60.60606061,9626dc21-8bce-4afe-88c4-46db59062c8d,4,308.5518,310.5486,space,1,0.3338,,0,8,8,14,1,O,space,,,,,,,,,,
,,,,,R_2ruqN7Gw5wwAcKt,001,2025-09-12_12h04.36.067,continuous_performance_test,2024.2.4,Win32,60.60606061,9626dc21-8bce-4afe-88c4-46db59062c8d,4,310.5528,312.2434,space,1,0.3748,,0,9,9,6,1,G,space,,,,,,,,,,
,,,,,R_2ruqN7Gw5wwAcKt,001,2025-09-12_12h04.36.067,continuous_performance_test,2024.2.4,Win32,60.60606061,9626dc21-8bce-4afe-88c4-46db59062c8d,4,312.2482,313.892,space,1,0.3839,,0,10,10,10,1,K,space,,,,,,,,,,
,,,,,R_2ruqN7Gw5wwAcKt,001,2025-09-12_12h04.36.067,continuous_performance_test,2024.2.4,Win32,60.60606061,9626dc21-8bce-4afe-88c4-46db59062c8d,4,313.8967,315.7402,space,1,0.3673,,0,11,11,18,1,S,space,,,,,,,,,,
,,,,,R_2ruqN7Gw5wwAcKt,001,2025-09-12_12h04.36.067,continuous_performance_test,2024.2.4,Win32,60.60606061,9626dc21-8bce-4afe-88c4-46db59062c8d,4,315.7449,317.2883,,1,,,0,12,12,29,1,X,,,,,,,,,,,
,,,,,R_2ruqN7Gw5wwAcKt,001,2025-09-12_12h04.36.067,continuous_performance_test,2024.2.4,Win32,60.60606061,9626dc21-8bce-4afe-88c4-46db59062c8d,4,317.2931,319.2866,space,1,0.4565,,0,13,13,8,1,I,space,,,,,,,,,,
,,,,,R_2ruqN7Gw5wwAcKt,001,2025-09-12_12h04.36.067,continuous_performance_test,2024.2.4,Win32,60.60606061,9626dc21-8bce-4afe-88c4-46db59062c8d,4,319.2914,320.8853,space,1,0.3644,,0,14,14,13,1,N,space,,,,,,,,,,
,,,,,R_2ruqN7Gw5wwAcKt,001,2025-09-12_12h04.36.067,continuous_performance_test,2024.2.4,Win32,60.60606061,9626dc21-8bce-4afe-88c4-46db59062c8d,4,320.8899,322.4838,space,1,0.317,,0,15,15,3,1,D,space,,,,,,,,,,
,,,,,R_2ruqN7Gw5wwAcKt,001,2025-09-12_12h04.36.067,continuous_performance_test,2024.2.4,Win32,60.60606061,9626dc21-8bce-4afe-88c4-46db59062c8d,4,322.4885,324.0821,space,1,0.373,,0,16,16,7,1,H,space,,,,,,,,,,
,,,,,R_2ruqN7Gw5wwAcKt,001,2025-09-12_12h04.36.067,continuous_performance_test,2024.2.4,Win32,60.60606061,9626dc21-8bce-4afe-88c4-46db59062c8d,4,324.0867,325.8807,space,1,0.3981,,0,17,17,20,1,U,space,,,,,,,,,,
,,,,,R_2ruqN7Gw5wwAcKt,001,2025-09-12_12h04.36.067,continuous_performance_test,2024.2.4,Win32,60.60606061,9626dc21-8bce-4afe-88c4-46db59062c8d,4,325.8855,327.4848,space,1,0.3834,,0,18,18,17,1,R,space,,,,,,,,,,
,,,,,R_2ruqN7Gw5wwAcKt,001,2025-09-12_12h04.36.067,continuous_performance_test,2024.2.4,Win32,60.60606061,9626dc21-8bce-4afe-88c4-46db59062c8d,4,327.489,329.1779,space,1,0.3734,,0,19,19,23,1,Y,space,,,,,,,,,,
,,,,,R_2ruqN7Gw5wwAcKt,001,2025-09-12_12h04.36.067,continuous_performance_test,2024.2.4,Win32,60.60606061,9626dc21-8bce-4afe-88c4-46db59062c8d,4,329.1838,331.1253,space,1,0.3476,,0,20,20,4,1,E,space,,,,,,,,,,
,,,,,R_2ruqN7Gw5wwAcKt,001,2025-09-12_12h04.36.067,continuous_performance_test,2024.2.4,Win32,60.60606061,9626dc21-8bce-4afe-88c4-46db59062c8d,4,331.1305,332.764,space,1,0.3168,,0,21,21,1,1,B,space,,,,,,,,,,
,,,,,R_2ruqN7Gw5wwAcKt,001,2025-09-12_12h04.36.067,continuous_performance_test,2024.2.4,Win32,60.60606061,9626dc21-8bce-4afe-88c4-46db59062c8d,4,332.7685,334.6056,space,1,0.5064,,0,22,22,22,1,W,space,,,,,,,,,,
,,,,,R_2ruqN7Gw5wwAcKt,001,2025-09-12_12h04.36.067,continuous_performance_test,2024.2.4,Win32,60.60606061,9626dc21-8bce-4afe-88c4-46db59062c8d,4,334.6103,336.4039,space,1,0.4999,,0,23,23,15,1,P,space,,,,,,,,,,
,,,,,R_2ruqN7Gw5wwAcKt,001,2025-09-12_12h04.36.067,continuous_performance_test,2024.2.4,Win32,60.60606061,9626dc21-8bce-4afe-88c4-46db59062c8d,4,336.4085,338.3521,,1,,,0,24,24,27,1,X,,,,,,,,,,,
,,,,,R_2ruqN7Gw5wwAcKt,001,2025-09-12_12h04.36.067,continuous_performance_test,2024.2.4,Win32,60.60606061,9626dc21-8bce-4afe-88c4-46db59062c8d,4,338.3567,340.0502,space,1,0.4635,,0,25,25,0,1,A,space,,,,,,,,,,
,,,,,R_2ruqN7Gw5wwAcKt,001,2025-09-12_12h04.36.067,continuous_performance_test,2024.2.4,Win32,60.60606061,9626dc21-8bce-4afe-88c4-46db59062c8d,4,340.0557,341.8488,space,1,0.4327,,0,26,26,19,1,T,space,,,,,,,,,,
,,,,,R_2ruqN7Gw5wwAcKt,001,2025-09-12_12h04.36.067,continuous_performance_test,2024.2.4,Win32,60.60606061,9626dc21-8bce-4afe-88c4-46db59062c8d,4,341.8539,343.4042,space,1,0.4356,,0,27,27,9,1,J,space,,,,,,,,,,
,,,,,R_2ruqN7Gw5wwAcKt,001,2025-09-12_12h04.36.067,continuous_performance_test,2024.2.4,Win32,60.60606061,9626dc21-8bce-4afe-88c4-46db59062c8d,4,343.4082,345.1956,space,1,0.5828,,0,28,28,2,1,C,space,,,,,,,,,,
,,,,,R_2ruqN7Gw5wwAcKt,001,2025-09-12_12h04.36.067,continuous_performance_test,2024.2.4,Win32,60.60606061,9626dc21-8bce-4afe-88c4-46db59062c8d,4,345.2009,346.7441,space,1,0.5738,,0,29,29,24,1,Z,space,,,,,,,,,,
,,,,,R_2ruqN7Gw5wwAcKt,001,2025-09-12_12h04.36.067,continuous_performance_test,2024.2.4,Win32,60.60606061,9626dc21-8bce-4afe-88c4-46db59062c8d,4,347.383,349.325,space,1,0.5318,,0,0,0,19,1,T,space,346.7491,347.368,space,0.5992,,,,,,
,,,,,R_2ruqN7Gw5wwAcKt,001,2025-09-12_12h04.36.067,continuous_performance_test,2024.2.4,Win32,60.60606061,9626dc21-8bce-4afe-88c4-46db59062c8d,4,349.3296,350.9233,space,1,0.5488,,0,1,1,9,1,J,space,,,,,,,,,,
,,,,,R_2ruqN7Gw5wwAcKt,001,2025-09-12_12h04.36.067,continuous_performance_test,2024.2.4,Win32,60.60606061,9626dc21-8bce-4afe-88c4-46db59062c8d,4,350.9276,352.6718,space,1,0.452,,0,2,2,15,1,P,space,,,,,,,,,,
,,,,,R_2ruqN7Gw5wwAcKt,001,2025-09-12_12h04.36.067,continuous_performance_test,2024.2.4,Win32,60.60606061,9626dc21-8bce-4afe-88c4-46db59062c8d,4,352.6762,354.67,space,1,0.369,,0,3,3,11,1,L,space,,,,,,,,,,
,,,,,R_2ruqN7Gw5wwAcKt,001,2025-09-12_12h04.36.067,continuous_performance_test,2024.2.4,Win32,60.60606061,9626dc21-8bce-4afe-88c4-46db59062c8d,4,354.6745,356.3183,space,1,0.4821,,0,4,4,23,1,Y,space,,,,,,,,,,
,,,,,R_2ruqN7Gw5wwAcKt,001,2025-09-12_12h04.36.067,continuous_performance_test,2024.2.4,Win32,60.60606061,9626dc21-8bce-4afe-88c4-46db59062c8d,4,356.3229,357.9667,space,1,0.3326,,0,5,5,22,1,W,space,,,,,,,,,,
,,,,,R_2ruqN7Gw5wwAcKt,001,2025-09-12_12h04.36.067,continuous_performance_test,2024.2.4,Win32,60.60606061,9626dc21-8bce-4afe-88c4-46db59062c8d,4,357.9713,359.9648,,1,,,0,6,6,25,1,X,,,,,,,,,,,
,,,,,R_2ruqN7Gw5wwAcKt,001,2025-09-12_12h04.36.067,continuous_performance_test,2024.2.4,Win32,60.60606061,9626dc21-8bce-4afe-88c4-46db59062c8d,4,359.9692,361.7629,space,1,0.3686,,0,7,7,14,1,O,space,,,,,,,,,,
,,,,,R_2ruqN7Gw5wwAcKt,001,2025-09-12_12h04.36.067,continuous_performance_test,2024.2.4,Win32,60.60606061,9626dc21-8bce-4afe-88c4-46db59062c8d,4,361.7674,363.6611,,1,,,0,8,8,29,1,X,,,,,,,,,,,
,,,,,R_2ruqN7Gw5wwAcKt,001,2025-09-12_12h04.36.067,continuous_performance_test,2024.2.4,Win32,60.60606061,9626dc21-8bce-4afe-88c4-46db59062c8d,4,363.6656,365.4598,space,1,0.3353,,0,9,9,17,1,R,space,,,,,,,,,,
,,,,,R_2ruqN7Gw5wwAcKt,001,2025-09-12_12h04.36.067,continuous_performance_test,2024.2.4,Win32,60.60606061,9626dc21-8bce-4afe-88c4-46db59062c8d,4,365.4651,367.0582,space,1,0.4206,,0,10,10,7,1,H,space,,,,,,,,,,
,,,,,R_2ruqN7Gw5wwAcKt,001,2025-09-12_12h04.36.067,continuous_performance_test,2024.2.4,Win32,60.60606061,9626dc21-8bce-4afe-88c4-46db59062c8d,4,367.0626,368.9064,space,1,0.3794,,0,11,11,5,1,F,space,,,,,,,,,,
,,,,,R_2ruqN7Gw5wwAcKt,001,2025-09-12_12h04.36.067,continuous_performance_test,2024.2.4,Win32,60.60606061,9626dc21-8bce-4afe-88c4-46db59062c8d,4,368.9109,370.505,space,1,0.3628,,0,12,12,10,1,K,space,,,,,,,,,,
,,,,,R_2ruqN7Gw5wwAcKt,001,2025-09-12_12h04.36.067,continuous_performance_test,2024.2.4,Win32,60.60606061,9626dc21-8bce-4afe-88c4-46db59062c8d,4,370.5099,372.153,space,1,0.4493,,0,13,13,20,1,U,space,,,,,,,,,,
,,,,,R_2ruqN7Gw5wwAcKt,001,2025-09-12_12h04.36.067,continuous_performance_test,2024.2.4,Win32,60.60606061,9626dc21-8bce-4afe-88c4-46db59062c8d,4,372.1575,373.9017,space,1,0.316,,0,14,14,18,1,S,space,,,,,,,,,,
,,,,,R_2ruqN7Gw5wwAcKt,001,2025-09-12_12h04.36.067,continuous_performance_test,2024.2.4,Win32,60.60606061,9626dc21-8bce-4afe-88c4-46db59062c8d,4,373.9066,375.8,space,1,0.3993,,0,15,15,6,1,G,space,,,,,,,,,,
,,,,,R_2ruqN7Gw5wwAcKt,001,2025-09-12_12h04.36.067,continuous_performance_test,2024.2.4,Win32,60.60606061,9626dc21-8bce-4afe-88c4-46db59062c8d,4,375.8044,377.4984,space,1,0.4802,,0,16,16,0,1,A,space,,,,,,,,,,
,,,,,R_2ruqN7Gw5wwAcKt,001,2025-09-12_12h04.36.067,continuous_performance_test,2024.2.4,Win32,60.60606061,9626dc21-8bce-4afe-88c4-46db59062c8d,4,377.5027,379.4965,space,1,0.4137,,0,17,17,2,1,C,space,,,,,,,,,,
,,,,,R_2ruqN7Gw5wwAcKt,001,2025-09-12_12h04.36.067,continuous_performance_test,2024.2.4,Win32,60.60606061,9626dc21-8bce-4afe-88c4-46db59062c8d,4,379.501,381.0447,space,1,0.4801,,0,18,18,4,1,E,space,,,,,,,,,,
,,,,,R_2ruqN7Gw5wwAcKt,001,2025-09-12_12h04.36.067,continuous_performance_test,2024.2.4,Win32,60.60606061,9626dc21-8bce-4afe-88c4-46db59062c8d,4,381.0492,382.6432,,1,,,0,19,19,26,1,X,,,,,,,,,,,
,,,,,R_2ruqN7Gw5wwAcKt,001,2025-09-12_12h04.36.067,continuous_performance_test,2024.2.4,Win32,60.60606061,9626dc21-8bce-4afe-88c4-46db59062c8d,4,382.6466,384.2419,,1,,,0,20,20,27,1,X,,,,,,,,,,,
,,,,,R_2ruqN7Gw5wwAcKt,001,2025-09-12_12h04.36.067,continuous_performance_test,2024.2.4,Win32,60.60606061,9626dc21-8bce-4afe-88c4-46db59062c8d,4,384.2465,385.7906,space,1,0.4803,,0,21,21,24,1,Z,space,,,,,,,,,,
,,,,,R_2ruqN7Gw5wwAcKt,001,2025-09-12_12h04.36.067,continuous_performance_test,2024.2.4,Win32,60.60606061,9626dc21-8bce-4afe-88c4-46db59062c8d,4,385.7957,387.6385,space,1,0.4639,,0,22,22,13,1,N,space,,,,,,,,,,
,,,,,R_2ruqN7Gw5wwAcKt,001,2025-09-12_12h04.36.067,continuous_performance_test,2024.2.4,Win32,60.60606061,9626dc21-8bce-4afe-88c4-46db59062c8d,4,387.6429,389.5867,space,1,0.4717,,0,23,23,12,1,M,space,,,,,,,,,,
,,,,,R_2ruqN7Gw5wwAcKt,001,2025-09-12_12h04.36.067,continuous_performance_test,2024.2.4,Win32,60.60606061,9626dc21-8bce-4afe-88c4-46db59062c8d,4,389.5911,391.4349,space,1,0.566,,0,24,24,21,1,V,space,,,,,,,,,,
,,,,,R_2ruqN7Gw5wwAcKt,001,2025-09-12_12h04.36.067,continuous_performance_test,2024.2.4,Win32,60.60606061,9626dc21-8bce-4afe-88c4-46db59062c8d,4,391.4395,393.3338,space,1,0.466,,0,25,25,16,1,Q,space,,,,,,,,,,
,,,,,R_2ruqN7Gw5wwAcKt,001,2025-09-12_12h04.36.067,continuous_performance_test,2024.2.4,Win32,60.60606061,9626dc21-8bce-4afe-88c4-46db59062c8d,4,393.3382,395.3315,space,1,0.4165,,0,26,26,1,1,B,space,,,,,,,,,,
,,,,,R_2ruqN7Gw5wwAcKt,001,2025-09-12_12h04.36.067,continuous_performance_test,2024.2.4,Win32,60.60606061,9626dc21-8bce-4afe-88c4-46db59062c8d,4,395.3362,396.9799,space,1,0.4994,,0,27,27,3,1,D,space,,,,,,,,,,
,,,,,R_2ruqN7Gw5wwAcKt,001,2025-09-12_12h04.36.067,continuous_performance_test,2024.2.4,Win32,60.60606061,9626dc21-8bce-4afe-88c4-46db59062c8d,4,396.9843,398.7782,space,1,0.5044,,0,28,28,8,1,I,space,,,,,,,,,,
,,,,,R_2ruqN7Gw5wwAcKt,001,2025-09-12_12h04.36.067,continuous_performance_test,2024.2.4,Win32,60.60606061,9626dc21-8bce-4afe-88c4-46db59062c8d,4,398.7826,400.7763,,1,,,0,29,29,28,1,X,,,,,,,,,,,
,,,,,R_2ruqN7Gw5wwAcKt,001,2025-09-12_12h04.36.067,continuous_performance_test,2024.2.4,Win32,60.60606061,9626dc21-8bce-4afe-88c4-46db59062c8d,4,401.6034,403.4901,,1,,,0,0,0,29,1,X,,400.7796,401.5922,space,0.7956,,,,,,
,,,,,R_2ruqN7Gw5wwAcKt,001,2025-09-12_12h04.36.067,continuous_performance_test,2024.2.4,Win32,60.60606061,9626dc21-8bce-4afe-88c4-46db59062c8d,4,403.4945,405.2389,space,1,0.4496,,0,1,1,12,1,M,space,,,,,,,,,,
,,,,,R_2ruqN7Gw5wwAcKt,001,2025-09-12_12h04.36.067,continuous_performance_test,2024.2.4,Win32,60.60606061,9626dc21-8bce-4afe-88c4-46db59062c8d,4,405.2435,407.0869,space,1,0.4973,,0,2,2,2,1,C,space,,,,,,,,,,
,,,,,R_2ruqN7Gw5wwAcKt,001,2025-09-12_12h04.36.067,continuous_performance_test,2024.2.4,Win32,60.60606061,9626dc21-8bce-4afe-88c4-46db59062c8d,4,407.0912,408.6355,space,1,0.4178,,0,3,3,21,1,V,space,,,,,,,,,,
,,,,,R_2ruqN7Gw5wwAcKt,001,2025-09-12_12h04.36.067,continuous_performance_test,2024.2.4,Win32,60.60606061,9626dc21-8bce-4afe-88c4-46db59062c8d,4,408.6401,410.1838,space,1,0.3991,,0,4,4,15,1,P,space,,,,,,,,,,
,,,,,R_2ruqN7Gw5wwAcKt,001,2025-09-12_12h04.36.067,continuous_performance_test,2024.2.4,Win32,60.60606061,9626dc21-8bce-4afe-88c4-46db59062c8d,4,410.1882,411.7821,space,1,0.4222,,0,5,5,0,1,A,space,,,,,,,,,,
,,,,,R_2ruqN7Gw5wwAcKt,001,2025-09-12_12h04.36.067,continuous_performance_test,2024.2.4,Win32,60.60606061,9626dc21-8bce-4afe-88c4-46db59062c8d,4,411.7865,413.7805,space,1,0.5137,,0,6,6,18,1,S,space,,,,,,,,,,
,,,,,R_2ruqN7Gw5wwAcKt,001,2025-09-12_12h04.36.067,continuous_performance_test,2024.2.4,Win32,60.60606061,9626dc21-8bce-4afe-88c4-46db59062c8d,4,413.785,415.7786,,1,,,0,7,7,28,1,X,,,,,,,,,,,
,,,,,R_2ruqN7Gw5wwAcKt,001,2025-09-12_12h04.36.067,continuous_performance_test,2024.2.4,Win32,60.60606061,9626dc21-8bce-4afe-88c4-46db59062c8d,4,415.7831,417.3271,space,1,0.518,,0,8,8,1,1,B,space,,,,,,,,,,
,,,,,R_2ruqN7Gw5wwAcKt,001,2025-09-12_12h04.36.067,continuous_performance_test,2024.2.4,Win32,60.60606061,9626dc21-8bce-4afe-88c4-46db59062c8d,4,417.3316,419.1755,space,1,0.5164,,0,9,9,23,1,Y,space,,,,,,,,,,
,,,,,R_2ruqN7Gw5wwAcKt,001,2025-09-12_12h04.36.067,continuous_performance_test,2024.2.4,Win32,60.60606061,9626dc21-8bce-4afe-88c4-46db59062c8d,4,419.1798,421.0239,,1,,,0,10,10,27,1,X,,,,,,,,,,,
,,,,,R_2ruqN7Gw5wwAcKt,001,2025-09-12_12h04.36.067,continuous_performance_test,2024.2.4,Win32,60.60606061,9626dc21-8bce-4afe-88c4-46db59062c8d,4,421.0284,422.5721,space,1,0.4555,,0,11,11,5,1,F,space,,,,,,,,,,
,,,,,R_2ruqN7Gw5wwAcKt,001,2025-09-12_12h04.36.067,continuous_performance_test,2024.2.4,Win32,60.60606061,9626dc21-8bce-4afe-88c4-46db59062c8d,4,422.5767,424.4206,space,1,0.4452,,0,12,12,3,1,D,space,,,,,,,,,,
,,,,,R_2ruqN7Gw5wwAcKt,001,2025-09-12_12h04.36.067,continuous_performance_test,2024.2.4,Win32,60.60606061,9626dc21-8bce-4afe-88c4-46db59062c8d,4,424.4253,426.119,space,1,0.5155,,0,13,13,20,1,U,space,,,,,,,,,,
,,,,,R_2ruqN7Gw5wwAcKt,001,2025-09-12_12h04.36.067,continuous_performance_test,2024.2.4,Win32,60.60606061,9626dc21-8bce-4afe-88c4-46db59062c8d,4,426.1241,427.6676,space,1,0.6679,,0,14,14,17,1,R,space,,,,,,,,,,
,,,,,R_2ruqN7Gw5wwAcKt,001,2025-09-12_12h04.36.067,continuous_performance_test,2024.2.4,Win32,60.60606061,9626dc21-8bce-4afe-88c4-46db59062c8d,4,427.6722,429.5659,space,1,0.4659,,0,15,15,6,1,G,space,,,,,,,,,,
,,,,,R_2ruqN7Gw5wwAcKt,001,2025-09-12_12h04.36.067,continuous_performance_test,2024.2.4,Win32,60.60606061,9626dc21-8bce-4afe-88c4-46db59062c8d,4,429.5703,431.4639,space,1,0.4373,,0,16,16,14,1,O,space,,,,,,,,,,
,,,,,R_2ruqN7Gw5wwAcKt,001,2025-09-12_12h04.36.067,continuous_performance_test,2024.2.4,Win32,60.60606061,9626dc21-8bce-4afe-88c4-46db59062c8d,4,431.4683,433.3121,space,1,0.4464,,0,17,17,4,1,E,space,,,,,,,,,,
,,,,,R_2ruqN7Gw5wwAcKt,001,2025-09-12_12h04.36.067,continuous_performance_test,2024.2.4,Win32,60.60606061,9626dc21-8bce-4afe-88c4-46db59062c8d,4,433.3168,435.1105,space,1,0.5489,,0,18,18,7,1,H,space,,,,,,,,,,
,,,,,R_2ruqN7Gw5wwAcKt,001,2025-09-12_12h04.36.067,continuous_performance_test,2024.2.4,Win32,60.60606061,9626dc21-8bce-4afe-88c4-46db59062c8d,4,435.1149,436.7587,space,1,0.48,,0,19,19,10,1,K,space,,,,,,,,,,
,,,,,R_2ruqN7Gw5wwAcKt,001,2025-09-12_12h04.36.067,continuous_performance_test,2024.2.4,Win32,60.60606061,9626dc21-8bce-4afe-88c4-46db59062c8d,4,436.7632,438.4075,space,1,0.4388,,0,20,20,22,1,W,space,,,,,,,,,,
,,,,,R_2ruqN7Gw5wwAcKt,001,2025-09-12_12h04.36.067,continuous_performance_test,2024.2.4,Win32,60.60606061,9626dc21-8bce-4afe-88c4-46db59062c8d,4,438.413,439.9557,space,1,0.3887,,0,21,21,24,1,Z,space,,,,,,,,,,
,,,,,R_2ruqN7Gw5wwAcKt,001,2025-09-12_12h04.36.067,continuous_performance_test,2024.2.4,Win32,60.60606061,9626dc21-8bce-4afe-88c4-46db59062c8d,4,439.9601,441.5543,space,1,0.4156,,0,22,22,8,1,I,space,,,,,,,,,,
,,,,,R_2ruqN7Gw5wwAcKt,001,2025-09-12_12h04.36.067,continuous_performance_test,2024.2.4,Win32,60.60606061,9626dc21-8bce-4afe-88c4-46db59062c8d,4,441.5587,443.3024,space,1,0.3019,,0,23,23,9,1,J,space,,,,,,,,,,
,,,,,R_2ruqN7Gw5wwAcKt,001,2025-09-12_12h04.36.067,continuous_performance_test,2024.2.4,Win32,60.60606061,9626dc21-8bce-4afe-88c4-46db59062c8d,4,443.3067,445.0009,space,0,0.2999,,0,24,24,26,1,X,,,,,,,,,,,
,,,,,R_2ruqN7Gw5wwAcKt,001,2025-09-12_12h04.36.067,continuous_performance_test,2024.2.4,Win32,60.60606061,9626dc21-8bce-4afe-88c4-46db59062c8d,4,445.0053,446.8991,space,1,0.4801,,0,25,25,16,1,Q,space,,,,,,,,,,
,,,,,R_2ruqN7Gw5wwAcKt,001,2025-09-12_12h04.36.067,continuous_performance_test,2024.2.4,Win32,60.60606061,9626dc21-8bce-4afe-88c4-46db59062c8d,4,446.9035,448.6976,space,1,0.4305,,0,26,26,19,1,T,space,,,,,,,,,,
,,,,,R_2ruqN7Gw5wwAcKt,001,2025-09-12_12h04.36.067,continuous_performance_test,2024.2.4,Win32,60.60606061,9626dc21-8bce-4afe-88c4-46db59062c8d,4,448.7023,450.346,,1,,,0,27,27,25,1,X,,,,,,,,,,,
,,,,,R_2ruqN7Gw5wwAcKt,001,2025-09-12_12h04.36.067,continuous_performance_test,2024.2.4,Win32,60.60606061,9626dc21-8bce-4afe-88c4-46db59062c8d,4,450.3505,452.2951,space,1,0.3374,,0,28,28,11,1,L,space,,,,,,,,,,
,,,,,R_2ruqN7Gw5wwAcKt,001,2025-09-12_12h04.36.067,continuous_performance_test,2024.2.4,Win32,60.60606061,9626dc21-8bce-4afe-88c4-46db59062c8d,4,452.2992,454.2925,space,1,0.4321,,0,29,29,13,1,N,space,,,,,,,,,,
,,,,,R_2ruqN7Gw5wwAcKt,001,2025-09-12_12h04.36.067,continuous_performance_test,2024.2.4,Win32,60.60606061,9626dc21-8bce-4afe-88c4-46db59062c8d,4,455.2367,457.0731,space,1,0.5503,,0,0,0,4,1,E,space,454.2968,455.2252,space,0.9057,,,,,,
,,,,,R_2ruqN7Gw5wwAcKt,001,2025-09-12_12h04.36.067,continuous_performance_test,2024.2.4,Win32,60.60606061,9626dc21-8bce-4afe-88c4-46db59062c8d,4,457.0779,458.921,space,1,0.3835,,0,1,1,1,1,B,space,,,,,,,,,,
,,,,,R_2ruqN7Gw5wwAcKt,001,2025-09-12_12h04.36.067,continuous_performance_test,2024.2.4,Win32,60.60606061,9626dc21-8bce-4afe-88c4-46db59062c8d,4,458.9257,460.8194,space,1,0.4241,,0,2,2,13,1,N,space,,,,,,,,,,
,,,,,R_2ruqN7Gw5wwAcKt,001,2025-09-12_12h04.36.067,continuous_performance_test,2024.2.4,Win32,60.60606061,9626dc21-8bce-4afe-88c4-46db59062c8d,4,460.8241,462.7677,space,1,0.4223,,0,3,3,11,1,L,space,,,,,,,,,,
,,,,,R_2ruqN7Gw5wwAcKt,001,2025-09-12_12h04.36.067,continuous_performance_test,2024.2.4,Win32,60.60606061,9626dc21-8bce-4afe-88c4-46db59062c8d,4,462.7724,464.4161,,1,,,0,4,4,28,1,X,,,,,,,,,,,
,,,,,R_2ruqN7Gw5wwAcKt,001,2025-09-12_12h04.36.067,continuous_performance_test,2024.2.4,Win32,60.60606061,9626dc21-8bce-4afe-88c4-46db59062c8d,4,464.4211,466.418,space,1,0.4499,,0,5,5,16,1,Q,space,,,,,,,,,,
,,,,,R_2ruqN7Gw5wwAcKt,001,2025-09-12_12h04.36.067,continuous_performance_test,2024.2.4,Win32,60.60606061,9626dc21-8bce-4afe-88c4-46db59062c8d,4,466.4223,468.1685,space,1,0.3971,,0,6,6,21,1,V,space,,,,,,,,,,
,,,,,R_2ruqN7Gw5wwAcKt,001,2025-09-12_12h04.36.067,continuous_performance_test,2024.2.4,Win32,60.60606061,9626dc21-8bce-4afe-88c4-46db59062c8d,4,468.1728,470.1109,space,1,0.4008,,0,7,7,5,1,F,space,,,,,,,,,,
,,,,,R_2ruqN7Gw5wwAcKt,001,2025-09-12_12h04.36.067,continuous_performance_test,2024.2.4,Win32,60.60606061,9626dc21-8bce-4afe-88c4-46db59062c8d,4,470.1154,472.059,,1,,,0,8,8,29,1,X,,,,,,,,,,,
,,,,,R_2ruqN7Gw5wwAcKt,001,2025-09-12_12h04.36.067,continuous_performance_test,2024.2.4,Win32,60.60606061,9626dc21-8bce-4afe-88c4-46db59062c8d,4,472.064,474.0136,space,1,0.5306,,0,9,9,19,1,T,space,,,,,,,,,,
,,,,,R_2ruqN7Gw5wwAcKt,001,2025-09-12_12h04.36.067,continuous_performance_test,2024.2.4,Win32,60.60606061,9626dc21-8bce-4afe-88c4-46db59062c8d,4,474.0189,475.9049,space,1,0.5335,,0,10,10,15,1,P,space,,,,,,,,,,
,,,,,R_2ruqN7Gw5wwAcKt,001,2025-09-12_12h04.36.067,continuous_performance_test,2024.2.4,Win32,60.60606061,9626dc21-8bce-4afe-88c4-46db59062c8d,4,475.9099,477.5034,space,1,0.5697,,0,11,11,8,1,I,space,,,,,,,,,,
,,,,,R_2ruqN7Gw5wwAcKt,001,2025-09-12_12h04.36.067,continuous_performance_test,2024.2.4,Win32,60.60606061,9626dc21-8bce-4afe-88c4-46db59062c8d,4,477.5085,479.1523,space,1,0.5011,,0,12,12,0,1,A,space,,,,,,,,,,
,,,,,R_2ruqN7Gw5wwAcKt,001,2025-09-12_12h04.36.067,continuous_performance_test,2024.2.4,Win32,60.60606061,9626dc21-8bce-4afe-88c4-46db59062c8d,4,479.1575,480.7073,space,1,0.5636,,0,13,13,10,1,K,space,,,,,,,,,,
,,,,,R_2ruqN7Gw5wwAcKt,001,2025-09-12_12h04.36.067,continuous_performance_test,2024.2.4,Win32,60.60606061,9626dc21-8bce-4afe-88c4-46db59062c8d,4,480.7126,482.2494,space,1,0.5253,,0,14,14,6,1,G,space,,,,,,,,,,
,,,,,R_2ruqN7Gw5wwAcKt,001,2025-09-12_12h04.36.067,continuous_performance_test,2024.2.4,Win32,60.60606061,9626dc21-8bce-4afe-88c4-46db59062c8d,4,482.2544,484.0473,space,1,0.6753,,0,15,15,18,1,S,space,,,,,,,,,,
,,,,,R_2ruqN7Gw5wwAcKt,001,2025-09-12_12h04.36.067,continuous_performance_test,2024.2.4,Win32,60.60606061,9626dc21-8bce-4afe-88c4-46db59062c8d,4,484.052,485.603,space,1,0.4574,,0,16,16,17,1,R,space,,,,,,,,,,
,,,,,R_2ruqN7Gw5wwAcKt,001,2025-09-12_12h04.36.067,continuous_performance_test,2024.2.4,Win32,60.60606061,9626dc21-8bce-4afe-88c4-46db59062c8d,4,485.6081,487.4444,space,1,0.3169,,0,17,17,2,1,C,space,,,,,,,,,,
,,,,,R_2ruqN7Gw5wwAcKt,001,2025-09-12_12h04.36.067,continuous_performance_test,2024.2.4,Win32,60.60606061,9626dc21-8bce-4afe-88c4-46db59062c8d,4,487.4492,489.2984,,1,,,0,18,18,27,1,X,,,,,,,,,,,
,,,,,R_2ruqN7Gw5wwAcKt,001,2025-09-12_12h04.36.067,continuous_performance_test,2024.2.4,Win32,60.60606061,9626dc21-8bce-4afe-88c4-46db59062c8d,4,489.3012,491.2965,,1,,,0,19,19,26,1,X,,,,,,,,,,,
,,,,,R_2ruqN7Gw5wwAcKt,001,2025-09-12_12h04.36.067,continuous_performance_test,2024.2.4,Win32,60.60606061,9626dc21-8bce-4afe-88c4-46db59062c8d,4,491.3005,493.2889,space,1,0.4998,,0,20,20,22,1,W,space,,,,,,,,,,
,,,,,R_2ruqN7Gw5wwAcKt,001,2025-09-12_12h04.36.067,continuous_performance_test,2024.2.4,Win32,60.60606061,9626dc21-8bce-4afe-88c4-46db59062c8d,4,493.2936,494.9373,space,1,0.4178,,0,21,21,23,1,Y,space,,,,,,,,,,
,,,,,R_2ruqN7Gw5wwAcKt,001,2025-09-12_12h04.36.067,continuous_performance_test,2024.2.4,Win32,60.60606061,9626dc21-8bce-4afe-88c4-46db59062c8d,4,494.9423,496.6927,space,1,0.3477,,0,22,22,24,1,Z,space,,,,,,,,,,
,,,,,R_2ruqN7Gw5wwAcKt,001,2025-09-12_12h04.36.067,continuous_performance_test,2024.2.4,Win32,60.60606061,9626dc21-8bce-4afe-88c4-46db59062c8d,4,496.7008,498.4337,,1,,,0,23,23,25,1,X,,,,,,,,,,,
,,,,,R_2ruqN7Gw5wwAcKt,001,2025-09-12_12h04.36.067,continuous_performance_test,2024.2.4,Win32,60.60606061,9626dc21-8bce-4afe-88c4-46db59062c8d,4,498.4378,500.2823,space,1,0.4072,,0,24,24,20,1,U,space,,,,,,,,,,
,,,,,R_2ruqN7Gw5wwAcKt,001,2025-09-12_12h04.36.067,continuous_performance_test,2024.2.4,Win32,60.60606061,9626dc21-8bce-4afe-88c4-46db59062c8d,4,500.2872,501.9375,space,1,0.3833,,0,25,25,3,1,D,space,,,,,,,,,,
,,,,,R_2ruqN7Gw5wwAcKt,001,2025-09-12_12h04.36.067,continuous_performance_test,2024.2.4,Win32,60.60606061,9626dc21-8bce-4afe-88c4-46db59062c8d,4,501.9431,503.9325,space,1,0.3678,,0,26,26,9,1,J,space,,,,,,,,,,
,,,,,R_2ruqN7Gw5wwAcKt,001,2025-09-12_12h04.36.067,continuous_performance_test,2024.2.4,Win32,60.60606061,9626dc21-8bce-4afe-88c4-46db59062c8d,4,503.9367,505.7285,space,1,0.3668,,0,27,27,14,1,O,space,,,,,,,,,,
,,,,,R_2ruqN7Gw5wwAcKt,001,2025-09-12_12h04.36.067,continuous_performance_test,2024.2.4,Win32,60.60606061,9626dc21-8bce-4afe-88c4-46db59062c8d,4,505.7326,507.575,space,1,0.4667,,0,28,28,12,1,M,space,,,,,,,,,,
,,,,,R_2ruqN7Gw5wwAcKt,001,2025-09-12_12h04.36.067,continuous_performance_test,2024.2.4,Win32,60.60606061,9626dc21-8bce-4afe-88c4-46db59062c8d,4,507.5803,509.3738,space,1,0.6017,,0,29,29,7,1,H,space,,,,,,,,,,
,,,,,R_2ruqN7Gw5wwAcKt,001,2025-09-12_12h04.36.067,continuous_performance_test,2024.2.4,Win32,60.60606061,9626dc21-8bce-4afe-88c4-46db59062c8d,4,511.2256,512.9204,,1,,,0,0,0,29,1,X,,509.3771,511.2133,space,1.8155,,,,,,
,,,,,R_2ruqN7Gw5wwAcKt,001,2025-09-12_12h04.36.067,continuous_performance_test,2024.2.4,Win32,60.60606061,9626dc21-8bce-4afe-88c4-46db59062c8d,4,512.925,514.9183,space,1,0.4066,,0,1,1,7,1,H,space,,,,,,,,,,
,,,,,R_2ruqN7Gw5wwAcKt,001,2025-09-12_12h04.36.067,continuous_performance_test,2024.2.4,Win32,60.60606061,9626dc21-8bce-4afe-88c4-46db59062c8d,4,514.9228,516.7668,space,1,0.347,,0,2,2,8,1,I,space,,,,,,,,,,
,,,,,R_2ruqN7Gw5wwAcKt,001,2025-09-12_12h04.36.067,continuous_performance_test,2024.2.4,Win32,60.60606061,9626dc21-8bce-4afe-88c4-46db59062c8d,4,516.7718,518.6215,space,1,0.2973,,0,3,3,10,1,K,space,,,,,,,,,,
,,,,,R_2ruqN7Gw5wwAcKt,001,2025-09-12_12h04.36.067,continuous_performance_test,2024.2.4,Win32,60.60606061,9626dc21-8bce-4afe-88c4-46db59062c8d,4,518.6257,520.2668,,1,,,0,4,4,28,1,X,,,,,,,,,,,
,,,,,R_2ruqN7Gw5wwAcKt,001,2025-09-12_12h04.36.067,continuous_performance_test,2024.2.4,Win32,60.60606061,9626dc21-8bce-4afe-88c4-46db59062c8d,4,520.2702,521.9619,,1,,,0,5,5,27,1,X,,,,,,,,,,,
,,,,,R_2ruqN7Gw5wwAcKt,001,2025-09-12_12h04.36.067,continuous_performance_test,2024.2.4,Win32,60.60606061,9626dc21-8bce-4afe-88c4-46db59062c8d,4,521.9679,523.5674,space,1,0.4337,,0,6,6,4,1,E,space,,,,,,,,,,
,,,,,R_2ruqN7Gw5wwAcKt,001,2025-09-12_12h04.36.067,continuous_performance_test,2024.2.4,Win32,60.60606061,9626dc21-8bce-4afe-88c4-46db59062c8d,4,523.5715,525.4585,,1,,,0,7,7,25,1,X,,,,,,,,,,,
,,,,,R_2ruqN7Gw5wwAcKt,001,2025-09-12_12h04.36.067,continuous_performance_test,2024.2.4,Win32,60.60606061,9626dc21-8bce-4afe-88c4-46db59062c8d,4,525.4631,527.157,space,1,0.5135,,0,8,8,13,1,N,space,,,,,,,,,,
,,,,,R_2ruqN7Gw5wwAcKt,001,2025-09-12_12h04.36.067,continuous_performance_test,2024.2.4,Win32,60.60606061,9626dc21-8bce-4afe-88c4-46db59062c8d,4,527.1617,528.7555,space,1,0.5831,,0,9,9,9,1,J,space,,,,,,,,,,
,,,,,R_2ruqN7Gw5wwAcKt,001,2025-09-12_12h04.36.067,continuous_performance_test,2024.2.4,Win32,60.60606061,9626dc21-8bce-4afe-88c4-46db59062c8d,4,528.7602,530.3076,space,1,0.5911,,0,10,10,18,1,S,space,,,,,,,,,,
,,,,,R_2ruqN7Gw5wwAcKt,001,2025-09-12_12h04.36.067,continuous_performance_test,2024.2.4,Win32,60.60606061,9626dc21-8bce-4afe-88c4-46db59062c8d,4,530.3119,532.2559,space,1,0.5172,,0,11,11,23,1,Y,space,,,,,,,,,,
,,,,,R_2ruqN7Gw5wwAcKt,001,2025-09-12_12h04.36.067,continuous_performance_test,2024.2.4,Win32,60.60606061,9626dc21-8bce-4afe-88c4-46db59062c8d,4,532.2601,534.1499,space,1,0.5838,,0,12,12,3,1,D,space,,,,,,,,,,
,,,,,R_2ruqN7Gw5wwAcKt,001,2025-09-12_12h04.36.067,continuous_performance_test,2024.2.4,Win32,60.60606061,9626dc21-8bce-4afe-88c4-46db59062c8d,4,534.1545,535.8488,space,1,0.5496,,0,13,13,14,1,O,space,,,,,,,,,,
,,,,,R_2ruqN7Gw5wwAcKt,001,2025-09-12_12h04.36.067,continuous_performance_test,2024.2.4,Win32,60.60606061,9626dc21-8bce-4afe-88c4-46db59062c8d,4,535.8533,537.5971,,1,,,0,14,14,26,1,X,,,,,,,,,,,
,,,,,R_2ruqN7Gw5wwAcKt,001,2025-09-12_12h04.36.067,continuous_performance_test,2024.2.4,Win32,60.60606061,9626dc21-8bce-4afe-88c4-46db59062c8d,4,537.6017,539.4952,space,1,0.5336,,0,15,15,17,1,R,space,,,,,,,,,,
,,,,,R_2ruqN7Gw5wwAcKt,001,2025-09-12_12h04.36.067,continuous_performance_test,2024.2.4,Win32,60.60606061,9626dc21-8bce-4afe-88c4-46db59062c8d,4,539.4998,541.4507,space,1,0.5148,,0,16,16,24,1,Z,space,,,,,,,,,,
,,,,,R_2ruqN7Gw5wwAcKt,001,2025-09-12_12h04.36.067,continuous_performance_test,2024.2.4,Win32,60.60606061,9626dc21-8bce-4afe-88c4-46db59062c8d,4,541.4548,543.2953,space,1,0.5707,,0,17,17,22,1,W,space,,,,,,,,,,
,,,,,R_2ruqN7Gw5wwAcKt,001,2025-09-12_12h04.36.067,continuous_performance_test,2024.2.4,Win32,60.60606061,9626dc21-8bce-4afe-88c4-46db59062c8d,4,543.3002,545.0463,space,1,0.55,,0,18,18,15,1,P,space,,,,,,,,,,
,,,,,R_2ruqN7Gw5wwAcKt,001,2025-09-12_12h04.36.067,continuous_performance_test,2024.2.4,Win32,60.60606061,9626dc21-8bce-4afe-88c4-46db59062c8d,4,545.0504,546.6919,space,1,0.5636,,0,19,19,0,1,A,space,,,,,,,,,,
,,,,,R_2ruqN7Gw5wwAcKt,001,2025-09-12_12h04.36.067,continuous_performance_test,2024.2.4,Win32,60.60606061,9626dc21-8bce-4afe-88c4-46db59062c8d,4,546.6961,548.4369,space,1,0.6328,,0,20,20,6,1,G,space,,,,,,,,,,
,,,,,R_2ruqN7Gw5wwAcKt,001,2025-09-12_12h04.36.067,continuous_performance_test,2024.2.4,Win32,60.60606061,9626dc21-8bce-4afe-88c4-46db59062c8d,4,548.4417,550.3345,space,1,0.5836,,0,21,21,20,1,U,space,,,,,,,,,,
,,,,,R_2ruqN7Gw5wwAcKt,001,2025-09-12_12h04.36.067,continuous_performance_test,2024.2.4,Win32,60.60606061,9626dc21-8bce-4afe-88c4-46db59062c8d,4,550.3392,551.8903,space,1,0.633,,0,22,22,16,1,Q,space,,,,,,,,,,
,,,,,R_2ruqN7Gw5wwAcKt,001,2025-09-12_12h04.36.067,continuous_performance_test,2024.2.4,Win32,60.60606061,9626dc21-8bce-4afe-88c4-46db59062c8d,4,551.8944,553.4319,space,1,0.5825,,0,23,23,11,1,L,space,,,,,,,,,,
,,,,,R_2ruqN7Gw5wwAcKt,001,2025-09-12_12h04.36.067,continuous_performance_test,2024.2.4,Win32,60.60606061,9626dc21-8bce-4afe-88c4-46db59062c8d,4,553.4369,555.0303,space,1,0.5841,,0,24,24,1,1,B,space,,,,,,,,,,
,,,,,R_2ruqN7Gw5wwAcKt,001,2025-09-12_12h04.36.067,continuous_performance_test,2024.2.4,Win32,60.60606061,9626dc21-8bce-4afe-88c4-46db59062c8d,4,555.0353,556.9355,space,1,0.4596,,0,25,25,5,1,F,space,,,,,,,,,,
,,,,,R_2ruqN7Gw5wwAcKt,001,2025-09-12_12h04.36.067,continuous_performance_test,2024.2.4,Win32,60.60606061,9626dc21-8bce-4afe-88c4-46db59062c8d,4,556.9396,558.8266,space,1,0.5336,,0,26,26,21,1,V,space,,,,,,,,,,
,,,,,R_2ruqN7Gw5wwAcKt,001,2025-09-12_12h04.36.067,continuous_performance_test,2024.2.4,Win32,60.60606061,9626dc21-8bce-4afe-88c4-46db59062c8d,4,558.8313,560.675,space,1,0.5501,,0,27,27,12,1,M,space,,,,,,,,,,
,,,,,R_2ruqN7Gw5wwAcKt,001,2025-09-12_12h04.36.067,continuous_performance_test,2024.2.4,Win32,60.60606061,9626dc21-8bce-4afe-88c4-46db59062c8d,4,560.6803,562.2238,space,1,0.5729,,0,28,28,19,1,T,space,,,,,,,,,,
,,,,,R_2ruqN7Gw5wwAcKt,001,2025-09-12_12h04.36.067,continuous_performance_test,2024.2.4,Win32,60.60606061,9626dc21-8bce-4afe-88c4-46db59062c8d,4,562.2285,564.1714,space,1,0.5672,,0,29,29,2,1,C,space,,,,,,,,,,
,,,,,R_2ruqN7Gw5wwAcKt,001,2025-09-12_12h04.36.067,continuous_performance_test,2024.2.4,Win32,60.60606061,9626dc21-8bce-4afe-88c4-46db59062c8d,4,,,,,,,,,,,,,,564.1747,564.1758,,,,564.1764,610.4501,space,46.243,
