Instructions.started,Instructions.stopped,key_resp.keys,key_resp.rt,key_resp.duration,participant,session,date,expName,psychopyVersion,OS,frameRate,realeye-tester-id,realeye-tester-quality_grade,Trial_noX.started,Trial_noX.stopped,response.keys,response.corr,trials_noX.thisRepN,trials_noX.thisTrialN,trials_noX.thisN,trials_noX.thisIndex,trials_noX.ran,letter,corrAns,response.rt,response.duration,BlockBreak.started,BlockBreak.stopped,key_instruct.keys,key_instruct.rt,key_instruct.duration,End_NoX.started,End_NoX.stopped,key_resp_end_noX.keys,key_resp_end_noX.rt,key_resp_end_noX.duration
0.0003,13.7139,space,13.6832,,R_2vji8lS5AfMnwLr,001,2025-09-11_10h50.02.678,continuous_performance_test,2024.2.4,Win32,60.24096386,91dcabf4-5f42-4e20-b4e4-3b6d15959a78,6,,,,,,,,,,,,,,,,,,,,,,,
,,,,,R_2vji8lS5AfMnwLr,001,2025-09-11_10h50.02.678,continuous_performance_test,2024.2.4,Win32,60.24096386,91dcabf4-5f42-4e20-b4e4-3b6d15959a78,6,13.7268,15.6144,,1,0,0,0,25,1,X,,,,,,,,,,,,,
,,,,,R_2vji8lS5AfMnwLr,001,2025-09-11_10h50.02.678,continuous_performance_test,2024.2.4,Win32,60.24096386,91dcabf4-5f42-4e20-b4e4-3b6d15959a78,6,15.6157,17.5126,space,1,0,1,1,3,1,D,space,0.356,,,,,,,,,,,
,,,,,R_2vji8lS5AfMnwLr,001,2025-09-11_10h50.02.678,continuous_performance_test,2024.2.4,Win32,60.24096386,91dcabf4-5f42-4e20-b4e4-3b6d15959a78,6,17.5145,19.1517,space,1,0,2,2,21,1,V,space,0.2749,,,,,,,,,,,
,,,,,R_2vji8lS5AfMnwLr,001,2025-09-11_10h50.02.678,continuous_performance_test,2024.2.4,Win32,60.24096386,91dcabf4-5f42-4e20-b4e4-3b6d15959a78,6,19.1533,20.9965,space,1,0,3,3,7,1,H,space,0.368,,,,,,,,,,,
,,,,,R_2vji8lS5AfMnwLr,001,2025-09-11_10h50.02.678,continuous_performance_test,2024.2.4,Win32,60.24096386,91dcabf4-5f42-4e20-b4e4-3b6d15959a78,6,20.9984,22.5464,space,1,0,4,4,4,1,E,space,0.4347,,,,,,,,,,,
,,,,,R_2vji8lS5AfMnwLr,001,2025-09-11_10h50.02.678,continuous_performance_test,2024.2.4,Win32,60.24096386,91dcabf4-5f42-4e20-b4e4-3b6d15959a78,6,22.5482,24.1965,space,1,0,5,5,15,1,P,space,0.3538,,,,,,,,,,,
,,,,,R_2vji8lS5AfMnwLr,001,2025-09-11_10h50.02.678,continuous_performance_test,2024.2.4,Win32,60.24096386,91dcabf4-5f42-4e20-b4e4-3b6d15959a78,6,24.1984,26.0968,space,1,0,6,6,20,1,U,space,0.3589,,,,,,,,,,,
,,,,,R_2vji8lS5AfMnwLr,001,2025-09-11_10h50.02.678,continuous_performance_test,2024.2.4,Win32,60.24096386,91dcabf4-5f42-4e20-b4e4-3b6d15959a78,6,26.0986,27.9512,space,1,0,7,7,5,1,F,space,0.3891,,,,,,,,,,,
,,,,,R_2vji8lS5AfMnwLr,001,2025-09-11_10h50.02.678,continuous_performance_test,2024.2.4,Win32,60.24096386,91dcabf4-5f42-4e20-b4e4-3b6d15959a78,6,27.9529,29.4959,space,1,0,8,8,9,1,J,space,0.3903,,,,,,,,,,,
,,,,,R_2vji8lS5AfMnwLr,001,2025-09-11_10h50.02.678,continuous_performance_test,2024.2.4,Win32,60.24096386,91dcabf4-5f42-4e20-b4e4-3b6d15959a78,6,29.4973,31.1015,space,1,0,9,9,13,1,N,space,0.3021,,,,,,,,,,,
,,,,,R_2vji8lS5AfMnwLr,001,2025-09-11_10h50.02.678,continuous_performance_test,2024.2.4,Win32,60.24096386,91dcabf4-5f42-4e20-b4e4-3b6d15959a78,6,31.1032,33.1011,space,1,0,10,10,24,1,Z,space,0.369,,,,,,,,,,,
,,,,,R_2vji8lS5AfMnwLr,001,2025-09-11_10h50.02.678,continuous_performance_test,2024.2.4,Win32,60.24096386,91dcabf4-5f42-4e20-b4e4-3b6d15959a78,6,33.1033,34.9467,space,1,0,11,11,11,1,L,space,0.3833,,,,,,,,,,,
,,,,,R_2vji8lS5AfMnwLr,001,2025-09-11_10h50.02.678,continuous_performance_test,2024.2.4,Win32,60.24096386,91dcabf4-5f42-4e20-b4e4-3b6d15959a78,6,34.9479,36.4959,,1,0,12,12,29,1,X,,,,,,,,,,,,,
,,,,,R_2vji8lS5AfMnwLr,001,2025-09-11_10h50.02.678,continuous_performance_test,2024.2.4,Win32,60.24096386,91dcabf4-5f42-4e20-b4e4-3b6d15959a78,6,36.498,38.4509,space,1,0,13,13,16,1,Q,space,0.4164,,,,,,,,,,,
,,,,,R_2vji8lS5AfMnwLr,001,2025-09-11_10h50.02.678,continuous_performance_test,2024.2.4,Win32,60.24096386,91dcabf4-5f42-4e20-b4e4-3b6d15959a78,6,38.4521,40.2456,space,1,0,14,14,12,1,M,space,0.3677,,,,,,,,,,,
,,,,,R_2vji8lS5AfMnwLr,001,2025-09-11_10h50.02.678,continuous_performance_test,2024.2.4,Win32,60.24096386,91dcabf4-5f42-4e20-b4e4-3b6d15959a78,6,40.2475,42.2456,space,1,0,15,15,18,1,S,space,0.3494,,,,,,,,,,,
,,,,,R_2vji8lS5AfMnwLr,001,2025-09-11_10h50.02.678,continuous_performance_test,2024.2.4,Win32,60.24096386,91dcabf4-5f42-4e20-b4e4-3b6d15959a78,6,42.2476,43.9956,space,1,0,16,16,1,1,B,space,0.3361,,,,,,,,,,,
,,,,,R_2vji8lS5AfMnwLr,001,2025-09-11_10h50.02.678,continuous_performance_test,2024.2.4,Win32,60.24096386,91dcabf4-5f42-4e20-b4e4-3b6d15959a78,6,43.9974,45.5342,space,1,0,17,17,22,1,W,space,0.3816,,,,,,,,,,,
,,,,,R_2vji8lS5AfMnwLr,001,2025-09-11_10h50.02.678,continuous_performance_test,2024.2.4,Win32,60.24096386,91dcabf4-5f42-4e20-b4e4-3b6d15959a78,6,45.5362,47.529,space,1,0,18,18,17,1,R,space,0.3439,,,,,,,,,,,
,,,,,R_2vji8lS5AfMnwLr,001,2025-09-11_10h50.02.678,continuous_performance_test,2024.2.4,Win32,60.24096386,91dcabf4-5f42-4e20-b4e4-3b6d15959a78,6,47.5308,49.1786,space,1,0,19,19,19,1,T,space,0.356,,,,,,,,,,,
,,,,,R_2vji8lS5AfMnwLr,001,2025-09-11_10h50.02.678,continuous_performance_test,2024.2.4,Win32,60.24096386,91dcabf4-5f42-4e20-b4e4-3b6d15959a78,6,49.1805,50.829,space,1,0,20,20,23,1,Y,space,0.4167,,,,,,,,,,,
,,,,,R_2vji8lS5AfMnwLr,001,2025-09-11_10h50.02.678,continuous_performance_test,2024.2.4,Win32,60.24096386,91dcabf4-5f42-4e20-b4e4-3b6d15959a78,6,50.8307,52.6286,,1,0,21,21,26,1,X,,,,,,,,,,,,,
,,,,,R_2vji8lS5AfMnwLr,001,2025-09-11_10h50.02.678,continuous_performance_test,2024.2.4,Win32,60.24096386,91dcabf4-5f42-4e20-b4e4-3b6d15959a78,6,52.6308,54.2287,space,1,0,22,22,14,1,O,space,0.3346,,,,,,,,,,,
,,,,,R_2vji8lS5AfMnwLr,001,2025-09-11_10h50.02.678,continuous_performance_test,2024.2.4,Win32,60.24096386,91dcabf4-5f42-4e20-b4e4-3b6d15959a78,6,54.2309,55.9787,space,1,0,23,23,0,1,A,space,0.3392,,,,,,,,,,,
,,,,,R_2vji8lS5AfMnwLr,001,2025-09-11_10h50.02.678,continuous_performance_test,2024.2.4,Win32,60.24096386,91dcabf4-5f42-4e20-b4e4-3b6d15959a78,6,55.9807,57.6788,space,1,0,24,24,6,1,G,space,0.3419,,,,,,,,,,,
,,,,,R_2vji8lS5AfMnwLr,001,2025-09-11_10h50.02.678,continuous_performance_test,2024.2.4,Win32,60.24096386,91dcabf4-5f42-4e20-b4e4-3b6d15959a78,6,57.681,59.6781,space,1,0,25,25,2,1,C,space,0.2851,,,,,,,,,,,
,,,,,R_2vji8lS5AfMnwLr,001,2025-09-11_10h50.02.678,continuous_performance_test,2024.2.4,Win32,60.24096386,91dcabf4-5f42-4e20-b4e4-3b6d15959a78,6,59.6798,61.3782,,1,0,26,26,28,1,X,,,,,,,,,,,,,
,,,,,R_2vji8lS5AfMnwLr,001,2025-09-11_10h50.02.678,continuous_performance_test,2024.2.4,Win32,60.24096386,91dcabf4-5f42-4e20-b4e4-3b6d15959a78,6,61.3794,63.3785,space,0,0,27,27,27,1,X,,0.33,,,,,,,,,,,
,,,,,R_2vji8lS5AfMnwLr,001,2025-09-11_10h50.02.678,continuous_performance_test,2024.2.4,Win32,60.24096386,91dcabf4-5f42-4e20-b4e4-3b6d15959a78,6,63.3801,65.2277,space,1,0,28,28,10,1,K,space,0.3501,,,,,,,,,,,
,,,,,R_2vji8lS5AfMnwLr,001,2025-09-11_10h50.02.678,continuous_performance_test,2024.2.4,Win32,60.24096386,91dcabf4-5f42-4e20-b4e4-3b6d15959a78,6,65.2295,66.9285,space,1,0,29,29,8,1,I,space,0.4006,,,,,,,,,,,
,,,,,R_2vji8lS5AfMnwLr,001,2025-09-11_10h50.02.678,continuous_performance_test,2024.2.4,Win32,60.24096386,91dcabf4-5f42-4e20-b4e4-3b6d15959a78,6,73.8182,75.5665,space,1,0,0,0,10,1,K,space,0.6733,,66.9293,73.8124,space,6.8517,,,,,,
,,,,,R_2vji8lS5AfMnwLr,001,2025-09-11_10h50.02.678,continuous_performance_test,2024.2.4,Win32,60.24096386,91dcabf4-5f42-4e20-b4e4-3b6d15959a78,6,75.5675,77.5614,space,1,0,1,1,6,1,G,space,0.3687,,,,,,,,,,,
,,,,,R_2vji8lS5AfMnwLr,001,2025-09-11_10h50.02.678,continuous_performance_test,2024.2.4,Win32,60.24096386,91dcabf4-5f42-4e20-b4e4-3b6d15959a78,6,77.5627,79.1115,space,1,0,2,2,16,1,Q,space,0.3863,,,,,,,,,,,
,,,,,R_2vji8lS5AfMnwLr,001,2025-09-11_10h50.02.678,continuous_performance_test,2024.2.4,Win32,60.24096386,91dcabf4-5f42-4e20-b4e4-3b6d15959a78,6,79.1128,81.0615,space,1,0,3,3,23,1,Y,space,0.2848,,,,,,,,,,,
,,,,,R_2vji8lS5AfMnwLr,001,2025-09-11_10h50.02.678,continuous_performance_test,2024.2.4,Win32,60.24096386,91dcabf4-5f42-4e20-b4e4-3b6d15959a78,6,81.0629,82.961,space,1,0,4,4,5,1,F,space,0.4064,,,,,,,,,,,
,,,,,R_2vji8lS5AfMnwLr,001,2025-09-11_10h50.02.678,continuous_performance_test,2024.2.4,Win32,60.24096386,91dcabf4-5f42-4e20-b4e4-3b6d15959a78,6,82.9625,84.5112,space,1,0,5,5,13,1,N,space,0.3845,,,,,,,,,,,
,,,,,R_2vji8lS5AfMnwLr,001,2025-09-11_10h50.02.678,continuous_performance_test,2024.2.4,Win32,60.24096386,91dcabf4-5f42-4e20-b4e4-3b6d15959a78,6,84.5127,86.2111,,1,0,6,6,25,1,X,,,,,,,,,,,,,
,,,,,R_2vji8lS5AfMnwLr,001,2025-09-11_10h50.02.678,continuous_performance_test,2024.2.4,Win32,60.24096386,91dcabf4-5f42-4e20-b4e4-3b6d15959a78,6,86.2124,88.111,space,1,0,7,7,3,1,D,space,0.3871,,,,,,,,,,,
,,,,,R_2vji8lS5AfMnwLr,001,2025-09-11_10h50.02.678,continuous_performance_test,2024.2.4,Win32,60.24096386,91dcabf4-5f42-4e20-b4e4-3b6d15959a78,6,88.1127,90.111,space,1,0,8,8,0,1,A,space,0.5013,,,,,,,,,,,
,,,,,R_2vji8lS5AfMnwLr,001,2025-09-11_10h50.02.678,continuous_performance_test,2024.2.4,Win32,60.24096386,91dcabf4-5f42-4e20-b4e4-3b6d15959a78,6,90.1124,92.061,space,1,0,9,9,21,1,V,space,0.4506,,,,,,,,,,,
,,,,,R_2vji8lS5AfMnwLr,001,2025-09-11_10h50.02.678,continuous_performance_test,2024.2.4,Win32,60.24096386,91dcabf4-5f42-4e20-b4e4-3b6d15959a78,6,92.0627,94.0111,,1,0,10,10,28,1,X,,,,,,,,,,,,,
,,,,,R_2vji8lS5AfMnwLr,001,2025-09-11_10h50.02.678,continuous_performance_test,2024.2.4,Win32,60.24096386,91dcabf4-5f42-4e20-b4e4-3b6d15959a78,6,94.0127,95.7614,space,1,0,11,11,4,1,E,space,0.3764,,,,,,,,,,,
,,,,,R_2vji8lS5AfMnwLr,001,2025-09-11_10h50.02.678,continuous_performance_test,2024.2.4,Win32,60.24096386,91dcabf4-5f42-4e20-b4e4-3b6d15959a78,6,95.7625,97.3497,,1,0,12,12,27,1,X,,,,,,,,,,,,,
,,,,,R_2vji8lS5AfMnwLr,001,2025-09-11_10h50.02.678,continuous_performance_test,2024.2.4,Win32,60.24096386,91dcabf4-5f42-4e20-b4e4-3b6d15959a78,6,97.351,99.0944,space,1,0,13,13,14,1,O,space,0.3488,,,,,,,,,,,
,,,,,R_2vji8lS5AfMnwLr,001,2025-09-11_10h50.02.678,continuous_performance_test,2024.2.4,Win32,60.24096386,91dcabf4-5f42-4e20-b4e4-3b6d15959a78,6,99.0958,100.6939,space,1,0,14,14,22,1,W,space,0.5206,,,,,,,,,,,
,,,,,R_2vji8lS5AfMnwLr,001,2025-09-11_10h50.02.678,continuous_performance_test,2024.2.4,Win32,60.24096386,91dcabf4-5f42-4e20-b4e4-3b6d15959a78,6,100.6953,102.4443,space,1,0,15,15,15,1,P,space,0.5199,,,,,,,,,,,
,,,,,R_2vji8lS5AfMnwLr,001,2025-09-11_10h50.02.678,continuous_performance_test,2024.2.4,Win32,60.24096386,91dcabf4-5f42-4e20-b4e4-3b6d15959a78,6,102.4457,104.3441,space,1,0,16,16,19,1,T,space,0.4745,,,,,,,,,,,
,,,,,R_2vji8lS5AfMnwLr,001,2025-09-11_10h50.02.678,continuous_performance_test,2024.2.4,Win32,60.24096386,91dcabf4-5f42-4e20-b4e4-3b6d15959a78,6,104.3455,106.1438,,1,0,17,17,26,1,X,,,,,,,,,,,,,
,,,,,R_2vji8lS5AfMnwLr,001,2025-09-11_10h50.02.678,continuous_performance_test,2024.2.4,Win32,60.24096386,91dcabf4-5f42-4e20-b4e4-3b6d15959a78,6,106.1453,107.9941,space,1,0,18,18,24,1,Z,space,0.5036,,,,,,,,,,,
,,,,,R_2vji8lS5AfMnwLr,001,2025-09-11_10h50.02.678,continuous_performance_test,2024.2.4,Win32,60.24096386,91dcabf4-5f42-4e20-b4e4-3b6d15959a78,6,107.9949,109.8935,space,1,0,19,19,20,1,U,space,0.3945,,,,,,,,,,,
,,,,,R_2vji8lS5AfMnwLr,001,2025-09-11_10h50.02.678,continuous_performance_test,2024.2.4,Win32,60.24096386,91dcabf4-5f42-4e20-b4e4-3b6d15959a78,6,109.895,111.544,space,1,0,20,20,17,1,R,space,0.5086,,,,,,,,,,,
,,,,,R_2vji8lS5AfMnwLr,001,2025-09-11_10h50.02.678,continuous_performance_test,2024.2.4,Win32,60.24096386,91dcabf4-5f42-4e20-b4e4-3b6d15959a78,6,111.5449,113.3438,space,1,0,21,21,11,1,L,space,0.4938,,,,,,,,,,,
,,,,,R_2vji8lS5AfMnwLr,001,2025-09-11_10h50.02.678,continuous_performance_test,2024.2.4,Win32,60.24096386,91dcabf4-5f42-4e20-b4e4-3b6d15959a78,6,113.3459,115.2435,space,1,0,22,22,2,1,C,space,0.3909,,,,,,,,,,,
,,,,,R_2vji8lS5AfMnwLr,001,2025-09-11_10h50.02.678,continuous_performance_test,2024.2.4,Win32,60.24096386,91dcabf4-5f42-4e20-b4e4-3b6d15959a78,6,115.2449,117.0488,space,1,0,23,23,18,1,S,space,0.486,,,,,,,,,,,
,,,,,R_2vji8lS5AfMnwLr,001,2025-09-11_10h50.02.678,continuous_performance_test,2024.2.4,Win32,60.24096386,91dcabf4-5f42-4e20-b4e4-3b6d15959a78,6,117.0495,118.7438,space,1,0,24,24,9,1,J,space,0.3298,,,,,,,,,,,
,,,,,R_2vji8lS5AfMnwLr,001,2025-09-11_10h50.02.678,continuous_performance_test,2024.2.4,Win32,60.24096386,91dcabf4-5f42-4e20-b4e4-3b6d15959a78,6,118.745,120.4434,space,1,0,25,25,8,1,I,space,0.4581,,,,,,,,,,,
,,,,,R_2vji8lS5AfMnwLr,001,2025-09-11_10h50.02.678,continuous_performance_test,2024.2.4,Win32,60.24096386,91dcabf4-5f42-4e20-b4e4-3b6d15959a78,6,120.445,122.0438,space,1,0,26,26,12,1,M,space,0.3595,,,,,,,,,,,
,,,,,R_2vji8lS5AfMnwLr,001,2025-09-11_10h50.02.678,continuous_performance_test,2024.2.4,Win32,60.24096386,91dcabf4-5f42-4e20-b4e4-3b6d15959a78,6,122.045,123.8442,space,1,0,27,27,7,1,H,space,0.4847,,,,,,,,,,,
,,,,,R_2vji8lS5AfMnwLr,001,2025-09-11_10h50.02.678,continuous_performance_test,2024.2.4,Win32,60.24096386,91dcabf4-5f42-4e20-b4e4-3b6d15959a78,6,123.8449,125.5435,space,1,0,28,28,1,1,B,space,0.4182,,,,,,,,,,,
,,,,,R_2vji8lS5AfMnwLr,001,2025-09-11_10h50.02.678,continuous_performance_test,2024.2.4,Win32,60.24096386,91dcabf4-5f42-4e20-b4e4-3b6d15959a78,6,125.5449,127.1983,,1,0,29,29,29,1,X,,,,,,,,,,,,,
,,,,,R_2vji8lS5AfMnwLr,001,2025-09-11_10h50.02.678,continuous_performance_test,2024.2.4,Win32,60.24096386,91dcabf4-5f42-4e20-b4e4-3b6d15959a78,6,140.6156,142.4595,space,1,0,0,0,6,1,G,space,0.6854,,127.1991,140.6104,space,13.3841,,,,,,
,,,,,R_2vji8lS5AfMnwLr,001,2025-09-11_10h50.02.678,continuous_performance_test,2024.2.4,Win32,60.24096386,91dcabf4-5f42-4e20-b4e4-3b6d15959a78,6,142.4612,144.2097,space,1,0,1,1,7,1,H,space,0.5399,,,,,,,,,,,
,,,,,R_2vji8lS5AfMnwLr,001,2025-09-11_10h50.02.678,continuous_performance_test,2024.2.4,Win32,60.24096386,91dcabf4-5f42-4e20-b4e4-3b6d15959a78,6,144.2112,146.1593,space,1,0,2,2,22,1,W,space,0.5416,,,,,,,,,,,
,,,,,R_2vji8lS5AfMnwLr,001,2025-09-11_10h50.02.678,continuous_performance_test,2024.2.4,Win32,60.24096386,91dcabf4-5f42-4e20-b4e4-3b6d15959a78,6,146.1608,147.7089,space,1,0,3,3,23,1,Y,space,0.5193,,,,,,,,,,,
,,,,,R_2vji8lS5AfMnwLr,001,2025-09-11_10h50.02.678,continuous_performance_test,2024.2.4,Win32,60.24096386,91dcabf4-5f42-4e20-b4e4-3b6d15959a78,6,147.7107,149.31,space,1,0,4,4,9,1,J,space,0.6427,,,,,,,,,,,
,,,,,R_2vji8lS5AfMnwLr,001,2025-09-11_10h50.02.678,continuous_performance_test,2024.2.4,Win32,60.24096386,91dcabf4-5f42-4e20-b4e4-3b6d15959a78,6,149.3107,151.2641,space,1,0,5,5,17,1,R,space,0.4571,,,,,,,,,,,
,,,,,R_2vji8lS5AfMnwLr,001,2025-09-11_10h50.02.678,continuous_performance_test,2024.2.4,Win32,60.24096386,91dcabf4-5f42-4e20-b4e4-3b6d15959a78,6,151.2648,153.0593,space,1,0,6,6,19,1,T,space,0.501,,,,,,,,,,,
,,,,,R_2vji8lS5AfMnwLr,001,2025-09-11_10h50.02.678,continuous_performance_test,2024.2.4,Win32,60.24096386,91dcabf4-5f42-4e20-b4e4-3b6d15959a78,6,153.0606,155.0089,space,1,0,7,7,16,1,Q,space,0.5518,,,,,,,,,,,
,,,,,R_2vji8lS5AfMnwLr,001,2025-09-11_10h50.02.678,continuous_performance_test,2024.2.4,Win32,60.24096386,91dcabf4-5f42-4e20-b4e4-3b6d15959a78,6,155.0103,156.7094,space,1,0,8,8,11,1,L,space,0.474,,,,,,,,,,,
,,,,,R_2vji8lS5AfMnwLr,001,2025-09-11_10h50.02.678,continuous_performance_test,2024.2.4,Win32,60.24096386,91dcabf4-5f42-4e20-b4e4-3b6d15959a78,6,156.7104,158.7089,,1,0,9,9,26,1,X,,,,,,,,,,,,,
,,,,,R_2vji8lS5AfMnwLr,001,2025-09-11_10h50.02.678,continuous_performance_test,2024.2.4,Win32,60.24096386,91dcabf4-5f42-4e20-b4e4-3b6d15959a78,6,158.7101,160.4475,,1,0,10,10,25,1,X,,,,,,,,,,,,,
,,,,,R_2vji8lS5AfMnwLr,001,2025-09-11_10h50.02.678,continuous_performance_test,2024.2.4,Win32,60.24096386,91dcabf4-5f42-4e20-b4e4-3b6d15959a78,6,160.4482,162.3921,space,1,0,11,11,3,1,D,space,0.4389,,,,,,,,,,,
,,,,,R_2vji8lS5AfMnwLr,001,2025-09-11_10h50.02.678,continuous_performance_test,2024.2.4,Win32,60.24096386,91dcabf4-5f42-4e20-b4e4-3b6d15959a78,6,162.3936,164.1926,,1,0,12,12,28,1,X,,,,,,,,,,,,,
,,,,,R_2vji8lS5AfMnwLr,001,2025-09-11_10h50.02.678,continuous_performance_test,2024.2.4,Win32,60.24096386,91dcabf4-5f42-4e20-b4e4-3b6d15959a78,6,164.1937,165.7922,space,1,0,13,13,4,1,E,space,0.5675,,,,,,,,,,,
,,,,,R_2vji8lS5AfMnwLr,001,2025-09-11_10h50.02.678,continuous_performance_test,2024.2.4,Win32,60.24096386,91dcabf4-5f42-4e20-b4e4-3b6d15959a78,6,165.7935,167.4414,space,1,0,14,14,2,1,C,space,0.5491,,,,,,,,,,,
,,,,,R_2vji8lS5AfMnwLr,001,2025-09-11_10h50.02.678,continuous_performance_test,2024.2.4,Win32,60.24096386,91dcabf4-5f42-4e20-b4e4-3b6d15959a78,6,167.4437,169.1924,space,1,0,15,15,18,1,S,space,0.4996,,,,,,,,,,,
,,,,,R_2vji8lS5AfMnwLr,001,2025-09-11_10h50.02.678,continuous_performance_test,2024.2.4,Win32,60.24096386,91dcabf4-5f42-4e20-b4e4-3b6d15959a78,6,169.1935,170.7469,space,1,0,16,16,12,1,M,space,0.5607,,,,,,,,,,,
,,,,,R_2vji8lS5AfMnwLr,001,2025-09-11_10h50.02.678,continuous_performance_test,2024.2.4,Win32,60.24096386,91dcabf4-5f42-4e20-b4e4-3b6d15959a78,6,170.7476,172.3412,space,1,0,17,17,10,1,K,space,0.4558,,,,,,,,,,,
,,,,,R_2vji8lS5AfMnwLr,001,2025-09-11_10h50.02.678,continuous_performance_test,2024.2.4,Win32,60.24096386,91dcabf4-5f42-4e20-b4e4-3b6d15959a78,6,172.3431,173.9416,space,1,0,18,18,24,1,Z,space,0.5183,,,,,,,,,,,
,,,,,R_2vji8lS5AfMnwLr,001,2025-09-11_10h50.02.678,continuous_performance_test,2024.2.4,Win32,60.24096386,91dcabf4-5f42-4e20-b4e4-3b6d15959a78,6,173.9436,175.6965,space,1,0,19,19,1,1,B,space,0.485,,,,,,,,,,,
,,,,,R_2vji8lS5AfMnwLr,001,2025-09-11_10h50.02.678,continuous_performance_test,2024.2.4,Win32,60.24096386,91dcabf4-5f42-4e20-b4e4-3b6d15959a78,6,175.6971,177.4415,,1,0,20,20,29,1,X,,,,,,,,,,,,,
,,,,,R_2vji8lS5AfMnwLr,001,2025-09-11_10h50.02.678,continuous_performance_test,2024.2.4,Win32,60.24096386,91dcabf4-5f42-4e20-b4e4-3b6d15959a78,6,177.4431,179.3472,space,1,0,21,21,15,1,P,space,0.3998,,,,,,,,,,,
,,,,,R_2vji8lS5AfMnwLr,001,2025-09-11_10h50.02.678,continuous_performance_test,2024.2.4,Win32,60.24096386,91dcabf4-5f42-4e20-b4e4-3b6d15959a78,6,179.3483,181.242,space,1,0,22,22,14,1,O,space,0.4507,,,,,,,,,,,
,,,,,R_2vji8lS5AfMnwLr,001,2025-09-11_10h50.02.678,continuous_performance_test,2024.2.4,Win32,60.24096386,91dcabf4-5f42-4e20-b4e4-3b6d15959a78,6,181.2442,182.7925,space,1,0,23,23,21,1,V,space,0.4334,,,,,,,,,,,
,,,,,R_2vji8lS5AfMnwLr,001,2025-09-11_10h50.02.678,continuous_performance_test,2024.2.4,Win32,60.24096386,91dcabf4-5f42-4e20-b4e4-3b6d15959a78,6,182.7939,184.4416,space,1,0,24,24,5,1,F,space,0.3499,,,,,,,,,,,
,,,,,R_2vji8lS5AfMnwLr,001,2025-09-11_10h50.02.678,continuous_performance_test,2024.2.4,Win32,60.24096386,91dcabf4-5f42-4e20-b4e4-3b6d15959a78,6,184.4434,185.9803,,1,0,25,25,27,1,X,,,,,,,,,,,,,
,,,,,R_2vji8lS5AfMnwLr,001,2025-09-11_10h50.02.678,continuous_performance_test,2024.2.4,Win32,60.24096386,91dcabf4-5f42-4e20-b4e4-3b6d15959a78,6,185.9815,187.6803,space,1,0,26,26,0,1,A,space,0.4699,,,,,,,,,,,
,,,,,R_2vji8lS5AfMnwLr,001,2025-09-11_10h50.02.678,continuous_performance_test,2024.2.4,Win32,60.24096386,91dcabf4-5f42-4e20-b4e4-3b6d15959a78,6,187.6816,189.6752,space,1,0,27,27,20,1,U,space,0.3854,,,,,,,,,,,
,,,,,R_2vji8lS5AfMnwLr,001,2025-09-11_10h50.02.678,continuous_performance_test,2024.2.4,Win32,60.24096386,91dcabf4-5f42-4e20-b4e4-3b6d15959a78,6,189.6766,191.3801,space,1,0,28,28,8,1,I,space,0.2856,,,,,,,,,,,
,,,,,R_2vji8lS5AfMnwLr,001,2025-09-11_10h50.02.678,continuous_performance_test,2024.2.4,Win32,60.24096386,91dcabf4-5f42-4e20-b4e4-3b6d15959a78,6,191.3812,193.2254,space,1,0,29,29,13,1,N,space,0.3658,,,,,,,,,,,
,,,,,R_2vji8lS5AfMnwLr,001,2025-09-11_10h50.02.678,continuous_performance_test,2024.2.4,Win32,60.24096386,91dcabf4-5f42-4e20-b4e4-3b6d15959a78,6,208.2376,209.9909,,0,0,0,0,7,1,H,space,,,193.2267,208.2262,,,,,,,,
,,,,,R_2vji8lS5AfMnwLr,001,2025-09-11_10h50.02.678,continuous_performance_test,2024.2.4,Win32,60.24096386,91dcabf4-5f42-4e20-b4e4-3b6d15959a78,6,209.9924,211.8297,,1,0,1,1,28,1,X,,,,,,,,,,,,,
,,,,,R_2vji8lS5AfMnwLr,001,2025-09-11_10h50.02.678,continuous_performance_test,2024.2.4,Win32,60.24096386,91dcabf4-5f42-4e20-b4e4-3b6d15959a78,6,211.8309,213.724,,0,0,2,2,8,1,I,space,,,,,,,,,,,,
,,,,,R_2vji8lS5AfMnwLr,001,2025-09-11_10h50.02.678,continuous_performance_test,2024.2.4,Win32,60.24096386,91dcabf4-5f42-4e20-b4e4-3b6d15959a78,6,213.7254,215.6745,space,1,0,3,3,13,1,N,space,0.8062,,,,,,,,,,,
,,,,,R_2vji8lS5AfMnwLr,001,2025-09-11_10h50.02.678,continuous_performance_test,2024.2.4,Win32,60.24096386,91dcabf4-5f42-4e20-b4e4-3b6d15959a78,6,215.6756,217.2265,space,1,0,4,4,21,1,V,space,0.5201,,,,,,,,,,,
,,,,,R_2vji8lS5AfMnwLr,001,2025-09-11_10h50.02.678,continuous_performance_test,2024.2.4,Win32,60.24096386,91dcabf4-5f42-4e20-b4e4-3b6d15959a78,6,217.2276,218.7743,space,1,0,5,5,6,1,G,space,0.5009,,,,,,,,,,,
,,,,,R_2vji8lS5AfMnwLr,001,2025-09-11_10h50.02.678,continuous_performance_test,2024.2.4,Win32,60.24096386,91dcabf4-5f42-4e20-b4e4-3b6d15959a78,6,218.7757,220.4744,space,1,0,6,6,18,1,S,space,0.5063,,,,,,,,,,,
,,,,,R_2vji8lS5AfMnwLr,001,2025-09-11_10h50.02.678,continuous_performance_test,2024.2.4,Win32,60.24096386,91dcabf4-5f42-4e20-b4e4-3b6d15959a78,6,220.4756,222.2242,space,1,0,7,7,23,1,Y,space,0.4693,,,,,,,,,,,
,,,,,R_2vji8lS5AfMnwLr,001,2025-09-11_10h50.02.678,continuous_performance_test,2024.2.4,Win32,60.24096386,91dcabf4-5f42-4e20-b4e4-3b6d15959a78,6,222.2254,224.2243,space,1,0,8,8,14,1,O,space,0.5112,,,,,,,,,,,
,,,,,R_2vji8lS5AfMnwLr,001,2025-09-11_10h50.02.678,continuous_performance_test,2024.2.4,Win32,60.24096386,91dcabf4-5f42-4e20-b4e4-3b6d15959a78,6,224.2256,225.7743,space,1,0,9,9,15,1,P,space,0.3847,,,,,,,,,,,
,,,,,R_2vji8lS5AfMnwLr,001,2025-09-11_10h50.02.678,continuous_performance_test,2024.2.4,Win32,60.24096386,91dcabf4-5f42-4e20-b4e4-3b6d15959a78,6,225.7757,227.3242,space,1,0,10,10,2,1,C,space,0.4076,,,,,,,,,,,
,,,,,R_2vji8lS5AfMnwLr,001,2025-09-11_10h50.02.678,continuous_performance_test,2024.2.4,Win32,60.24096386,91dcabf4-5f42-4e20-b4e4-3b6d15959a78,6,227.3253,229.3241,space,1,0,11,11,17,1,R,space,0.45,,,,,,,,,,,
,,,,,R_2vji8lS5AfMnwLr,001,2025-09-11_10h50.02.678,continuous_performance_test,2024.2.4,Win32,60.24096386,91dcabf4-5f42-4e20-b4e4-3b6d15959a78,6,229.3253,231.0746,space,1,0,12,12,11,1,L,space,0.3673,,,,,,,,,,,
,,,,,R_2vji8lS5AfMnwLr,001,2025-09-11_10h50.02.678,continuous_performance_test,2024.2.4,Win32,60.24096386,91dcabf4-5f42-4e20-b4e4-3b6d15959a78,6,231.0761,232.8238,space,1,0,13,13,5,1,F,space,0.3461,,,,,,,,,,,
,,,,,R_2vji8lS5AfMnwLr,001,2025-09-11_10h50.02.678,continuous_performance_test,2024.2.4,Win32,60.24096386,91dcabf4-5f42-4e20-b4e4-3b6d15959a78,6,232.825,234.6238,,1,0,14,14,27,1,X,,,,,,,,,,,,,
,,,,,R_2vji8lS5AfMnwLr,001,2025-09-11_10h50.02.678,continuous_performance_test,2024.2.4,Win32,60.24096386,91dcabf4-5f42-4e20-b4e4-3b6d15959a78,6,234.6253,236.2739,space,1,0,15,15,3,1,D,space,0.4673,,,,,,,,,,,
,,,,,R_2vji8lS5AfMnwLr,001,2025-09-11_10h50.02.678,continuous_performance_test,2024.2.4,Win32,60.24096386,91dcabf4-5f42-4e20-b4e4-3b6d15959a78,6,236.2755,237.8741,,1,0,16,16,25,1,X,,,,,,,,,,,,,
,,,,,R_2vji8lS5AfMnwLr,001,2025-09-11_10h50.02.678,continuous_performance_test,2024.2.4,Win32,60.24096386,91dcabf4-5f42-4e20-b4e4-3b6d15959a78,6,237.8751,239.4736,space,0,0,17,17,29,1,X,,0.3349,,,,,,,,,,,
,,,,,R_2vji8lS5AfMnwLr,001,2025-09-11_10h50.02.678,continuous_performance_test,2024.2.4,Win32,60.24096386,91dcabf4-5f42-4e20-b4e4-3b6d15959a78,6,239.4748,241.0737,space,1,0,18,18,20,1,U,space,0.3342,,,,,,,,,,,
,,,,,R_2vji8lS5AfMnwLr,001,2025-09-11_10h50.02.678,continuous_performance_test,2024.2.4,Win32,60.24096386,91dcabf4-5f42-4e20-b4e4-3b6d15959a78,6,241.0752,242.8745,space,1,0,19,19,12,1,M,space,0.4532,,,,,,,,,,,
,,,,,R_2vji8lS5AfMnwLr,001,2025-09-11_10h50.02.678,continuous_performance_test,2024.2.4,Win32,60.24096386,91dcabf4-5f42-4e20-b4e4-3b6d15959a78,6,242.8753,244.4784,,1,0,20,20,26,1,X,,,,,,,,,,,,,
,,,,,R_2vji8lS5AfMnwLr,001,2025-09-11_10h50.02.678,continuous_performance_test,2024.2.4,Win32,60.24096386,91dcabf4-5f42-4e20-b4e4-3b6d15959a78,6,244.479,246.0739,space,1,0,21,21,9,1,J,space,0.5606,,,,,,,,,,,
,,,,,R_2vji8lS5AfMnwLr,001,2025-09-11_10h50.02.678,continuous_performance_test,2024.2.4,Win32,60.24096386,91dcabf4-5f42-4e20-b4e4-3b6d15959a78,6,246.075,248.0236,space,1,0,22,22,10,1,K,space,0.4348,,,,,,,,,,,
,,,,,R_2vji8lS5AfMnwLr,001,2025-09-11_10h50.02.678,continuous_performance_test,2024.2.4,Win32,60.24096386,91dcabf4-5f42-4e20-b4e4-3b6d15959a78,6,248.025,249.7266,space,1,0,23,23,4,1,E,space,0.5063,,,,,,,,,,,
,,,,,R_2vji8lS5AfMnwLr,001,2025-09-11_10h50.02.678,continuous_performance_test,2024.2.4,Win32,60.24096386,91dcabf4-5f42-4e20-b4e4-3b6d15959a78,6,249.7272,251.4736,space,1,0,24,24,1,1,B,space,0.3409,,,,,,,,,,,
,,,,,R_2vji8lS5AfMnwLr,001,2025-09-11_10h50.02.678,continuous_performance_test,2024.2.4,Win32,60.24096386,91dcabf4-5f42-4e20-b4e4-3b6d15959a78,6,251.4747,253.3233,space,1,0,25,25,24,1,Z,space,0.3569,,,,,,,,,,,
,,,,,R_2vji8lS5AfMnwLr,001,2025-09-11_10h50.02.678,continuous_performance_test,2024.2.4,Win32,60.24096386,91dcabf4-5f42-4e20-b4e4-3b6d15959a78,6,253.3243,254.9623,space,1,0,26,26,19,1,T,space,0.3842,,,,,,,,,,,
,,,,,R_2vji8lS5AfMnwLr,001,2025-09-11_10h50.02.678,continuous_performance_test,2024.2.4,Win32,60.24096386,91dcabf4-5f42-4e20-b4e4-3b6d15959a78,6,254.9634,256.8117,space,1,0,27,27,16,1,Q,space,0.4885,,,,,,,,,,,
,,,,,R_2vji8lS5AfMnwLr,001,2025-09-11_10h50.02.678,continuous_performance_test,2024.2.4,Win32,60.24096386,91dcabf4-5f42-4e20-b4e4-3b6d15959a78,6,256.8128,258.5568,space,1,0,28,28,22,1,W,space,0.4847,,,,,,,,,,,
,,,,,R_2vji8lS5AfMnwLr,001,2025-09-11_10h50.02.678,continuous_performance_test,2024.2.4,Win32,60.24096386,91dcabf4-5f42-4e20-b4e4-3b6d15959a78,6,258.5582,260.3568,space,1,0,29,29,0,1,A,space,0.3926,,,,,,,,,,,
,,,,,R_2vji8lS5AfMnwLr,001,2025-09-11_10h50.02.678,continuous_performance_test,2024.2.4,Win32,60.24096386,91dcabf4-5f42-4e20-b4e4-3b6d15959a78,6,275.3634,277.306,space,1,0,0,0,5,1,F,space,0.4597,,260.3577,275.358,,,,,,,,
,,,,,R_2vji8lS5AfMnwLr,001,2025-09-11_10h50.02.678,continuous_performance_test,2024.2.4,Win32,60.24096386,91dcabf4-5f42-4e20-b4e4-3b6d15959a78,6,277.3072,279.1564,space,1,0,1,1,9,1,J,space,0.335,,,,,,,,,,,
,,,,,R_2vji8lS5AfMnwLr,001,2025-09-11_10h50.02.678,continuous_performance_test,2024.2.4,Win32,60.24096386,91dcabf4-5f42-4e20-b4e4-3b6d15959a78,6,279.1579,280.856,space,1,0,2,2,11,1,L,space,0.4496,,,,,,,,,,,
,,,,,R_2vji8lS5AfMnwLr,001,2025-09-11_10h50.02.678,continuous_performance_test,2024.2.4,Win32,60.24096386,91dcabf4-5f42-4e20-b4e4-3b6d15959a78,6,280.8577,282.6611,space,1,0,3,3,1,1,B,space,0.5524,,,,,,,,,,,
,,,,,R_2vji8lS5AfMnwLr,001,2025-09-11_10h50.02.678,continuous_performance_test,2024.2.4,Win32,60.24096386,91dcabf4-5f42-4e20-b4e4-3b6d15959a78,6,282.6623,284.4613,,1,0,4,4,28,1,X,,,,,,,,,,,,,
,,,,,R_2vji8lS5AfMnwLr,001,2025-09-11_10h50.02.678,continuous_performance_test,2024.2.4,Win32,60.24096386,91dcabf4-5f42-4e20-b4e4-3b6d15959a78,6,284.4624,286.3112,,1,0,5,5,25,1,X,,,,,,,,,,,,,
,,,,,R_2vji8lS5AfMnwLr,001,2025-09-11_10h50.02.678,continuous_performance_test,2024.2.4,Win32,60.24096386,91dcabf4-5f42-4e20-b4e4-3b6d15959a78,6,286.3123,288.3058,space,1,0,6,6,20,1,U,space,0.5044,,,,,,,,,,,
,,,,,R_2vji8lS5AfMnwLr,001,2025-09-11_10h50.02.678,continuous_performance_test,2024.2.4,Win32,60.24096386,91dcabf4-5f42-4e20-b4e4-3b6d15959a78,6,288.3071,290.2944,,1,0,7,7,26,1,X,,,,,,,,,,,,,
,,,,,R_2vji8lS5AfMnwLr,001,2025-09-11_10h50.02.678,continuous_performance_test,2024.2.4,Win32,60.24096386,91dcabf4-5f42-4e20-b4e4-3b6d15959a78,6,290.2957,291.839,space,1,0,8,8,8,1,I,space,0.4501,,,,,,,,,,,
,,,,,R_2vji8lS5AfMnwLr,001,2025-09-11_10h50.02.678,continuous_performance_test,2024.2.4,Win32,60.24096386,91dcabf4-5f42-4e20-b4e4-3b6d15959a78,6,291.8403,293.4387,space,1,0,9,9,19,1,T,space,0.5332,,,,,,,,,,,
,,,,,R_2vji8lS5AfMnwLr,001,2025-09-11_10h50.02.678,continuous_performance_test,2024.2.4,Win32,60.24096386,91dcabf4-5f42-4e20-b4e4-3b6d15959a78,6,293.4402,295.1391,space,1,0,10,10,22,1,W,space,0.4437,,,,,,,,,,,
,,,,,R_2vji8lS5AfMnwLr,001,2025-09-11_10h50.02.678,continuous_performance_test,2024.2.4,Win32,60.24096386,91dcabf4-5f42-4e20-b4e4-3b6d15959a78,6,295.1401,296.8394,space,1,0,11,11,24,1,Z,space,0.5677,,,,,,,,,,,
,,,,,R_2vji8lS5AfMnwLr,001,2025-09-11_10h50.02.678,continuous_performance_test,2024.2.4,Win32,60.24096386,91dcabf4-5f42-4e20-b4e4-3b6d15959a78,6,296.8406,298.6436,space,1,0,12,12,6,1,G,space,0.4501,,,,,,,,,,,
,,,,,R_2vji8lS5AfMnwLr,001,2025-09-11_10h50.02.678,continuous_performance_test,2024.2.4,Win32,60.24096386,91dcabf4-5f42-4e20-b4e4-3b6d15959a78,6,298.6448,300.588,space,1,0,13,13,14,1,O,space,0.5245,,,,,,,,,,,
,,,,,R_2vji8lS5AfMnwLr,001,2025-09-11_10h50.02.678,continuous_performance_test,2024.2.4,Win32,60.24096386,91dcabf4-5f42-4e20-b4e4-3b6d15959a78,6,300.5896,302.1942,,1,0,14,14,29,1,X,,,,,,,,,,,,,
,,,,,R_2vji8lS5AfMnwLr,001,2025-09-11_10h50.02.678,continuous_performance_test,2024.2.4,Win32,60.24096386,91dcabf4-5f42-4e20-b4e4-3b6d15959a78,6,302.1949,304.0393,space,1,0,15,15,7,1,H,space,0.4241,,,,,,,,,,,
,,,,,R_2vji8lS5AfMnwLr,001,2025-09-11_10h50.02.678,continuous_performance_test,2024.2.4,Win32,60.24096386,91dcabf4-5f42-4e20-b4e4-3b6d15959a78,6,304.0401,305.5886,space,1,0,16,16,16,1,Q,space,0.5464,,,,,,,,,,,
,,,,,R_2vji8lS5AfMnwLr,001,2025-09-11_10h50.02.678,continuous_performance_test,2024.2.4,Win32,60.24096386,91dcabf4-5f42-4e20-b4e4-3b6d15959a78,6,305.5897,307.4885,space,1,0,17,17,17,1,R,space,0.4172,,,,,,,,,,,
,,,,,R_2vji8lS5AfMnwLr,001,2025-09-11_10h50.02.678,continuous_performance_test,2024.2.4,Win32,60.24096386,91dcabf4-5f42-4e20-b4e4-3b6d15959a78,6,307.4899,309.4384,space,1,0,18,18,21,1,V,space,0.37,,,,,,,,,,,
,,,,,R_2vji8lS5AfMnwLr,001,2025-09-11_10h50.02.678,continuous_performance_test,2024.2.4,Win32,60.24096386,91dcabf4-5f42-4e20-b4e4-3b6d15959a78,6,309.4397,311.4384,space,1,0,19,19,4,1,E,space,0.4335,,,,,,,,,,,
,,,,,R_2vji8lS5AfMnwLr,001,2025-09-11_10h50.02.678,continuous_performance_test,2024.2.4,Win32,60.24096386,91dcabf4-5f42-4e20-b4e4-3b6d15959a78,6,311.4399,313.1887,space,1,0,20,20,13,1,N,space,0.5334,,,,,,,,,,,
,,,,,R_2vji8lS5AfMnwLr,001,2025-09-11_10h50.02.678,continuous_performance_test,2024.2.4,Win32,60.24096386,91dcabf4-5f42-4e20-b4e4-3b6d15959a78,6,313.1902,315.0429,,1,0,21,21,27,1,X,,,,,,,,,,,,,
,,,,,R_2vji8lS5AfMnwLr,001,2025-09-11_10h50.02.678,continuous_performance_test,2024.2.4,Win32,60.24096386,91dcabf4-5f42-4e20-b4e4-3b6d15959a78,6,315.0443,316.7384,space,1,0,22,22,15,1,P,space,0.4069,,,,,,,,,,,
,,,,,R_2vji8lS5AfMnwLr,001,2025-09-11_10h50.02.678,continuous_performance_test,2024.2.4,Win32,60.24096386,91dcabf4-5f42-4e20-b4e4-3b6d15959a78,6,316.7396,318.5384,space,1,0,23,23,3,1,D,space,0.502,,,,,,,,,,,
,,,,,R_2vji8lS5AfMnwLr,001,2025-09-11_10h50.02.678,continuous_performance_test,2024.2.4,Win32,60.24096386,91dcabf4-5f42-4e20-b4e4-3b6d15959a78,6,318.5399,320.2386,space,1,0,24,24,0,1,A,space,0.4651,,,,,,,,,,,
,,,,,R_2vji8lS5AfMnwLr,001,2025-09-11_10h50.02.678,continuous_performance_test,2024.2.4,Win32,60.24096386,91dcabf4-5f42-4e20-b4e4-3b6d15959a78,6,320.24,322.1884,space,1,0,25,25,18,1,S,space,0.3703,,,,,,,,,,,
,,,,,R_2vji8lS5AfMnwLr,001,2025-09-11_10h50.02.678,continuous_performance_test,2024.2.4,Win32,60.24096386,91dcabf4-5f42-4e20-b4e4-3b6d15959a78,6,322.1901,323.8383,space,1,0,26,26,12,1,M,space,0.4566,,,,,,,,,,,
,,,,,R_2vji8lS5AfMnwLr,001,2025-09-11_10h50.02.678,continuous_performance_test,2024.2.4,Win32,60.24096386,91dcabf4-5f42-4e20-b4e4-3b6d15959a78,6,323.8396,325.3884,space,1,0,27,27,2,1,C,space,0.357,,,,,,,,,,,
,,,,,R_2vji8lS5AfMnwLr,001,2025-09-11_10h50.02.678,continuous_performance_test,2024.2.4,Win32,60.24096386,91dcabf4-5f42-4e20-b4e4-3b6d15959a78,6,325.3897,327.1935,space,1,0,28,28,10,1,K,space,0.4406,,,,,,,,,,,
,,,,,R_2vji8lS5AfMnwLr,001,2025-09-11_10h50.02.678,continuous_performance_test,2024.2.4,Win32,60.24096386,91dcabf4-5f42-4e20-b4e4-3b6d15959a78,6,327.1946,328.988,space,1,0,29,29,23,1,Y,space,0.418,,,,,,,,,,,
,,,,,R_2vji8lS5AfMnwLr,001,2025-09-11_10h50.02.678,continuous_performance_test,2024.2.4,Win32,60.24096386,91dcabf4-5f42-4e20-b4e4-3b6d15959a78,6,343.9923,345.7376,,1,0,0,0,27,1,X,,,,328.989,343.988,,,,,,,,
,,,,,R_2vji8lS5AfMnwLr,001,2025-09-11_10h50.02.678,continuous_performance_test,2024.2.4,Win32,60.24096386,91dcabf4-5f42-4e20-b4e4-3b6d15959a78,6,345.7389,347.5375,space,1,0,1,1,12,1,M,space,0.4525,,,,,,,,,,,
,,,,,R_2vji8lS5AfMnwLr,001,2025-09-11_10h50.02.678,continuous_performance_test,2024.2.4,Win32,60.24096386,91dcabf4-5f42-4e20-b4e4-3b6d15959a78,6,347.5391,349.4377,,1,0,2,2,26,1,X,,,,,,,,,,,,,
,,,,,R_2vji8lS5AfMnwLr,001,2025-09-11_10h50.02.678,continuous_performance_test,2024.2.4,Win32,60.24096386,91dcabf4-5f42-4e20-b4e4-3b6d15959a78,6,349.4393,351.0392,space,1,0,3,3,21,1,V,space,0.3995,,,,,,,,,,,
,,,,,R_2vji8lS5AfMnwLr,001,2025-09-11_10h50.02.678,continuous_performance_test,2024.2.4,Win32,60.24096386,91dcabf4-5f42-4e20-b4e4-3b6d15959a78,6,351.0402,352.8376,,1,0,4,4,29,1,X,,,,,,,,,,,,,
,,,,,R_2vji8lS5AfMnwLr,001,2025-09-11_10h50.02.678,continuous_performance_test,2024.2.4,Win32,60.24096386,91dcabf4-5f42-4e20-b4e4-3b6d15959a78,6,352.8391,354.4373,space,1,0,5,5,11,1,L,space,0.3501,,,,,,,,,,,
,,,,,R_2vji8lS5AfMnwLr,001,2025-09-11_10h50.02.678,continuous_performance_test,2024.2.4,Win32,60.24096386,91dcabf4-5f42-4e20-b4e4-3b6d15959a78,6,354.4385,356.2877,space,1,0,6,6,10,1,K,space,0.5227,,,,,,,,,,,
,,,,,R_2vji8lS5AfMnwLr,001,2025-09-11_10h50.02.678,continuous_performance_test,2024.2.4,Win32,60.24096386,91dcabf4-5f42-4e20-b4e4-3b6d15959a78,6,356.2892,358.2374,space,1,0,7,7,0,1,A,space,0.4843,,,,,,,,,,,
,,,,,R_2vji8lS5AfMnwLr,001,2025-09-11_10h50.02.678,continuous_performance_test,2024.2.4,Win32,60.24096386,91dcabf4-5f42-4e20-b4e4-3b6d15959a78,6,358.2388,360.0376,space,1,0,8,8,4,1,E,space,0.6012,,,,,,,,,,,
,,,,,R_2vji8lS5AfMnwLr,001,2025-09-11_10h50.02.678,continuous_performance_test,2024.2.4,Win32,60.24096386,91dcabf4-5f42-4e20-b4e4-3b6d15959a78,6,360.0388,361.9925,space,1,0,9,9,5,1,F,space,0.4001,,,,,,,,,,,
,,,,,R_2vji8lS5AfMnwLr,001,2025-09-11_10h50.02.678,continuous_performance_test,2024.2.4,Win32,60.24096386,91dcabf4-5f42-4e20-b4e4-3b6d15959a78,6,361.9934,363.7423,space,1,0,10,10,17,1,R,space,0.5873,,,,,,,,,,,
,,,,,R_2vji8lS5AfMnwLr,001,2025-09-11_10h50.02.678,continuous_performance_test,2024.2.4,Win32,60.24096386,91dcabf4-5f42-4e20-b4e4-3b6d15959a78,6,363.7429,365.4922,space,1,0,11,11,24,1,Z,space,0.5734,,,,,,,,,,,
,,,,,R_2vji8lS5AfMnwLr,001,2025-09-11_10h50.02.678,continuous_performance_test,2024.2.4,Win32,60.24096386,91dcabf4-5f42-4e20-b4e4-3b6d15959a78,6,365.4933,367.0373,space,1,0,12,12,2,1,C,space,0.4098,,,,,,,,,,,
,,,,,R_2vji8lS5AfMnwLr,001,2025-09-11_10h50.02.678,continuous_performance_test,2024.2.4,Win32,60.24096386,91dcabf4-5f42-4e20-b4e4-3b6d15959a78,6,367.0387,368.6874,space,1,0,13,13,9,1,J,space,0.3681,,,,,,,,,,,
,,,,,R_2vji8lS5AfMnwLr,001,2025-09-11_10h50.02.678,continuous_performance_test,2024.2.4,Win32,60.24096386,91dcabf4-5f42-4e20-b4e4-3b6d15959a78,6,368.6881,370.6424,space,1,0,14,14,15,1,P,space,0.5397,,,,,,,,,,,
,,,,,R_2vji8lS5AfMnwLr,001,2025-09-11_10h50.02.678,continuous_performance_test,2024.2.4,Win32,60.24096386,91dcabf4-5f42-4e20-b4e4-3b6d15959a78,6,370.6436,372.3869,space,1,0,15,15,19,1,T,space,0.367,,,,,,,,,,,
,,,,,R_2vji8lS5AfMnwLr,001,2025-09-11_10h50.02.678,continuous_performance_test,2024.2.4,Win32,60.24096386,91dcabf4-5f42-4e20-b4e4-3b6d15959a78,6,372.3884,374.1754,space,1,0,16,16,20,1,U,space,0.3684,,,,,,,,,,,
,,,,,R_2vji8lS5AfMnwLr,001,2025-09-11_10h50.02.678,continuous_performance_test,2024.2.4,Win32,60.24096386,91dcabf4-5f42-4e20-b4e4-3b6d15959a78,6,374.1765,375.9255,space,1,0,17,17,16,1,Q,space,0.3677,,,,,,,,,,,
,,,,,R_2vji8lS5AfMnwLr,001,2025-09-11_10h50.02.678,continuous_performance_test,2024.2.4,Win32,60.24096386,91dcabf4-5f42-4e20-b4e4-3b6d15959a78,6,375.927,377.57,space,1,0,18,18,13,1,N,space,0.3019,,,,,,,,,,,
,,,,,R_2vji8lS5AfMnwLr,001,2025-09-11_10h50.02.678,continuous_performance_test,2024.2.4,Win32,60.24096386,91dcabf4-5f42-4e20-b4e4-3b6d15959a78,6,377.5714,379.1588,space,1,0,19,19,22,1,W,space,0.2747,,,,,,,,,,,
,,,,,R_2vji8lS5AfMnwLr,001,2025-09-11_10h50.02.678,continuous_performance_test,2024.2.4,Win32,60.24096386,91dcabf4-5f42-4e20-b4e4-3b6d15959a78,6,379.1602,381.1536,space,1,0,20,20,1,1,B,space,0.3178,,,,,,,,,,,
,,,,,R_2vji8lS5AfMnwLr,001,2025-09-11_10h50.02.678,continuous_performance_test,2024.2.4,Win32,60.24096386,91dcabf4-5f42-4e20-b4e4-3b6d15959a78,6,381.1547,382.8417,space,1,0,21,21,18,1,S,space,0.3798,,,,,,,,,,,
,,,,,R_2vji8lS5AfMnwLr,001,2025-09-11_10h50.02.678,continuous_performance_test,2024.2.4,Win32,60.24096386,91dcabf4-5f42-4e20-b4e4-3b6d15959a78,6,382.8428,384.5858,space,1,0,22,22,3,1,D,space,0.2764,,,,,,,,,,,
,,,,,R_2vji8lS5AfMnwLr,001,2025-09-11_10h50.02.678,continuous_performance_test,2024.2.4,Win32,60.24096386,91dcabf4-5f42-4e20-b4e4-3b6d15959a78,6,384.5876,386.2362,,0,0,23,23,7,1,H,space,,,,,,,,,,,,
,,,,,R_2vji8lS5AfMnwLr,001,2025-09-11_10h50.02.678,continuous_performance_test,2024.2.4,Win32,60.24096386,91dcabf4-5f42-4e20-b4e4-3b6d15959a78,6,386.2379,387.9868,space,1,0,24,24,6,1,G,space,0.3889,,,,,,,,,,,
,,,,,R_2vji8lS5AfMnwLr,001,2025-09-11_10h50.02.678,continuous_performance_test,2024.2.4,Win32,60.24096386,91dcabf4-5f42-4e20-b4e4-3b6d15959a78,6,387.9877,389.9912,space,1,0,25,25,14,1,O,space,0.3196,,,,,,,,,,,
,,,,,R_2vji8lS5AfMnwLr,001,2025-09-11_10h50.02.678,continuous_performance_test,2024.2.4,Win32,60.24096386,91dcabf4-5f42-4e20-b4e4-3b6d15959a78,6,389.9917,391.5867,space,0,0,26,26,28,1,X,,0.387,,,,,,,,,,,
,,,,,R_2vji8lS5AfMnwLr,001,2025-09-11_10h50.02.678,continuous_performance_test,2024.2.4,Win32,60.24096386,91dcabf4-5f42-4e20-b4e4-3b6d15959a78,6,391.5877,393.3869,space,1,0,27,27,23,1,Y,space,0.3521,,,,,,,,,,,
,,,,,R_2vji8lS5AfMnwLr,001,2025-09-11_10h50.02.678,continuous_performance_test,2024.2.4,Win32,60.24096386,91dcabf4-5f42-4e20-b4e4-3b6d15959a78,6,393.3876,395.3866,space,1,0,28,28,8,1,I,space,0.5054,,,,,,,,,,,
,,,,,R_2vji8lS5AfMnwLr,001,2025-09-11_10h50.02.678,continuous_performance_test,2024.2.4,Win32,60.24096386,91dcabf4-5f42-4e20-b4e4-3b6d15959a78,6,395.3876,397.0866,,1,0,29,29,25,1,X,,,,,,,,,,,,,
,,,,,R_2vji8lS5AfMnwLr,001,2025-09-11_10h50.02.678,continuous_performance_test,2024.2.4,Win32,60.24096386,91dcabf4-5f42-4e20-b4e4-3b6d15959a78,6,412.0912,414.0358,space,1,0,0,0,0,1,A,space,0.4683,,397.0878,412.086,,,,,,,,
,,,,,R_2vji8lS5AfMnwLr,001,2025-09-11_10h50.02.678,continuous_performance_test,2024.2.4,Win32,60.24096386,91dcabf4-5f42-4e20-b4e4-3b6d15959a78,6,414.0374,416.0376,space,1,0,1,1,21,1,V,space,0.402,,,,,,,,,,,
,,,,,R_2vji8lS5AfMnwLr,001,2025-09-11_10h50.02.678,continuous_performance_test,2024.2.4,Win32,60.24096386,91dcabf4-5f42-4e20-b4e4-3b6d15959a78,6,416.0385,417.6861,space,1,0,2,2,19,1,T,space,0.4003,,,,,,,,,,,
,,,,,R_2vji8lS5AfMnwLr,001,2025-09-11_10h50.02.678,continuous_performance_test,2024.2.4,Win32,60.24096386,91dcabf4-5f42-4e20-b4e4-3b6d15959a78,6,417.6875,419.4356,,1,0,3,3,26,1,X,,,,,,,,,,,,,
,,,,,R_2vji8lS5AfMnwLr,001,2025-09-11_10h50.02.678,continuous_performance_test,2024.2.4,Win32,60.24096386,91dcabf4-5f42-4e20-b4e4-3b6d15959a78,6,419.4369,420.991,,1,0,4,4,25,1,X,,,,,,,,,,,,,
,,,,,R_2vji8lS5AfMnwLr,001,2025-09-11_10h50.02.678,continuous_performance_test,2024.2.4,Win32,60.24096386,91dcabf4-5f42-4e20-b4e4-3b6d15959a78,6,420.9922,422.6857,space,1,0,5,5,4,1,E,space,0.3679,,,,,,,,,,,
,,,,,R_2vji8lS5AfMnwLr,001,2025-09-11_10h50.02.678,continuous_performance_test,2024.2.4,Win32,60.24096386,91dcabf4-5f42-4e20-b4e4-3b6d15959a78,6,422.6869,424.2857,space,1,0,6,6,1,1,B,space,0.6895,,,,,,,,,,,
,,,,,R_2vji8lS5AfMnwLr,001,2025-09-11_10h50.02.678,continuous_performance_test,2024.2.4,Win32,60.24096386,91dcabf4-5f42-4e20-b4e4-3b6d15959a78,6,424.2872,426.1244,space,1,0,7,7,22,1,W,space,0.4511,,,,,,,,,,,
,,,,,R_2vji8lS5AfMnwLr,001,2025-09-11_10h50.02.678,continuous_performance_test,2024.2.4,Win32,60.24096386,91dcabf4-5f42-4e20-b4e4-3b6d15959a78,6,426.1259,427.869,,1,0,8,8,27,1,X,,,,,,,,,,,,,
,,,,,R_2vji8lS5AfMnwLr,001,2025-09-11_10h50.02.678,continuous_performance_test,2024.2.4,Win32,60.24096386,91dcabf4-5f42-4e20-b4e4-3b6d15959a78,6,427.87,429.4574,space,1,0,9,9,18,1,S,space,0.4001,,,,,,,,,,,
,,,,,R_2vji8lS5AfMnwLr,001,2025-09-11_10h50.02.678,continuous_performance_test,2024.2.4,Win32,60.24096386,91dcabf4-5f42-4e20-b4e4-3b6d15959a78,6,429.4584,431.4569,space,1,0,10,10,9,1,J,space,0.4203,,,,,,,,,,,
,,,,,R_2vji8lS5AfMnwLr,001,2025-09-11_10h50.02.678,continuous_performance_test,2024.2.4,Win32,60.24096386,91dcabf4-5f42-4e20-b4e4-3b6d15959a78,6,431.4582,433.1515,space,1,0,11,11,16,1,Q,space,0.4002,,,,,,,,,,,
,,,,,R_2vji8lS5AfMnwLr,001,2025-09-11_10h50.02.678,continuous_performance_test,2024.2.4,Win32,60.24096386,91dcabf4-5f42-4e20-b4e4-3b6d15959a78,6,433.1533,435.0523,space,1,0,12,12,24,1,Z,space,0.7237,,,,,,,,,,,
,,,,,R_2vji8lS5AfMnwLr,001,2025-09-11_10h50.02.678,continuous_performance_test,2024.2.4,Win32,60.24096386,91dcabf4-5f42-4e20-b4e4-3b6d15959a78,6,435.0535,436.6573,,1,0,13,13,29,1,X,,,,,,,,,,,,,
,,,,,R_2vji8lS5AfMnwLr,001,2025-09-11_10h50.02.678,continuous_performance_test,2024.2.4,Win32,60.24096386,91dcabf4-5f42-4e20-b4e4-3b6d15959a78,6,436.6585,438.2521,space,1,0,14,14,13,1,N,space,0.4018,,,,,,,,,,,
,,,,,R_2vji8lS5AfMnwLr,001,2025-09-11_10h50.02.678,continuous_performance_test,2024.2.4,Win32,60.24096386,91dcabf4-5f42-4e20-b4e4-3b6d15959a78,6,438.2534,440.0017,space,0,0,15,15,28,1,X,,0.3237,,,,,,,,,,,
,,,,,R_2vji8lS5AfMnwLr,001,2025-09-11_10h50.02.678,continuous_performance_test,2024.2.4,Win32,60.24096386,91dcabf4-5f42-4e20-b4e4-3b6d15959a78,6,440.0034,441.6517,space,1,0,16,16,11,1,L,space,0.3339,,,,,,,,,,,
,,,,,R_2vji8lS5AfMnwLr,001,2025-09-11_10h50.02.678,continuous_performance_test,2024.2.4,Win32,60.24096386,91dcabf4-5f42-4e20-b4e4-3b6d15959a78,6,441.653,443.4062,space,1,0,17,17,20,1,U,space,0.3893,,,,,,,,,,,
,,,,,R_2vji8lS5AfMnwLr,001,2025-09-11_10h50.02.678,continuous_performance_test,2024.2.4,Win32,60.24096386,91dcabf4-5f42-4e20-b4e4-3b6d15959a78,6,443.4075,445.1033,space,1,0,18,18,6,1,G,space,0.4741,,,,,,,,,,,
,,,,,R_2vji8lS5AfMnwLr,001,2025-09-11_10h50.02.678,continuous_performance_test,2024.2.4,Win32,60.24096386,91dcabf4-5f42-4e20-b4e4-3b6d15959a78,6,445.104,447.0019,space,1,0,19,19,7,1,H,space,0.4171,,,,,,,,,,,
,,,,,R_2vji8lS5AfMnwLr,001,2025-09-11_10h50.02.678,continuous_performance_test,2024.2.4,Win32,60.24096386,91dcabf4-5f42-4e20-b4e4-3b6d15959a78,6,447.0029,449.0019,space,1,0,20,20,8,1,I,space,0.3905,,,,,,,,,,,
,,,,,R_2vji8lS5AfMnwLr,001,2025-09-11_10h50.02.678,continuous_performance_test,2024.2.4,Win32,60.24096386,91dcabf4-5f42-4e20-b4e4-3b6d15959a78,6,449.0031,450.5517,space,1,0,21,21,5,1,F,space,0.6263,,,,,,,,,,,
,,,,,R_2vji8lS5AfMnwLr,001,2025-09-11_10h50.02.678,continuous_performance_test,2024.2.4,Win32,60.24096386,91dcabf4-5f42-4e20-b4e4-3b6d15959a78,6,450.5527,452.2516,,0,0,22,22,17,1,R,space,,,,,,,,,,,,
,,,,,R_2vji8lS5AfMnwLr,001,2025-09-11_10h50.02.678,continuous_performance_test,2024.2.4,Win32,60.24096386,91dcabf4-5f42-4e20-b4e4-3b6d15959a78,6,452.253,453.8065,space,1,0,23,23,10,1,K,space,0.4344,,,,,,,,,,,
,,,,,R_2vji8lS5AfMnwLr,001,2025-09-11_10h50.02.678,continuous_performance_test,2024.2.4,Win32,60.24096386,91dcabf4-5f42-4e20-b4e4-3b6d15959a78,6,453.8074,455.5064,space,1,0,24,24,15,1,P,space,0.5012,,,,,,,,,,,
,,,,,R_2vji8lS5AfMnwLr,001,2025-09-11_10h50.02.678,continuous_performance_test,2024.2.4,Win32,60.24096386,91dcabf4-5f42-4e20-b4e4-3b6d15959a78,6,455.5076,457.3521,space,1,0,25,25,23,1,Y,space,0.6205,,,,,,,,,,,
,,,,,R_2vji8lS5AfMnwLr,001,2025-09-11_10h50.02.678,continuous_performance_test,2024.2.4,Win32,60.24096386,91dcabf4-5f42-4e20-b4e4-3b6d15959a78,6,457.3531,458.9516,space,1,0,26,26,12,1,M,space,0.4692,,,,,,,,,,,
,,,,,R_2vji8lS5AfMnwLr,001,2025-09-11_10h50.02.678,continuous_performance_test,2024.2.4,Win32,60.24096386,91dcabf4-5f42-4e20-b4e4-3b6d15959a78,6,458.9527,460.6538,space,1,0,27,27,2,1,C,space,0.4039,,,,,,,,,,,
,,,,,R_2vji8lS5AfMnwLr,001,2025-09-11_10h50.02.678,continuous_performance_test,2024.2.4,Win32,60.24096386,91dcabf4-5f42-4e20-b4e4-3b6d15959a78,6,460.6546,462.4504,space,1,0,28,28,3,1,D,space,0.367,,,,,,,,,,,
,,,,,R_2vji8lS5AfMnwLr,001,2025-09-11_10h50.02.678,continuous_performance_test,2024.2.4,Win32,60.24096386,91dcabf4-5f42-4e20-b4e4-3b6d15959a78,6,462.4526,464.3514,space,1,0,29,29,14,1,O,space,0.468,,,,,,,,,,,
,,,,,R_2vji8lS5AfMnwLr,001,2025-09-11_10h50.02.678,continuous_performance_test,2024.2.4,Win32,60.24096386,91dcabf4-5f42-4e20-b4e4-3b6d15959a78,6,479.3556,481.0501,space,1,0,0,0,20,1,U,space,0.5302,,464.3528,479.351,,,,,,,,
,,,,,R_2vji8lS5AfMnwLr,001,2025-09-11_10h50.02.678,continuous_performance_test,2024.2.4,Win32,60.24096386,91dcabf4-5f42-4e20-b4e4-3b6d15959a78,6,481.0516,483.0004,,1,0,1,1,29,1,X,,,,,,,,,,,,,
,,,,,R_2vji8lS5AfMnwLr,001,2025-09-11_10h50.02.678,continuous_performance_test,2024.2.4,Win32,60.24096386,91dcabf4-5f42-4e20-b4e4-3b6d15959a78,6,483.0018,484.9007,,1,0,2,2,26,1,X,,,,,,,,,,,,,
,,,,,R_2vji8lS5AfMnwLr,001,2025-09-11_10h50.02.678,continuous_performance_test,2024.2.4,Win32,60.24096386,91dcabf4-5f42-4e20-b4e4-3b6d15959a78,6,484.9021,486.5004,space,1,0,3,3,6,1,G,space,0.4677,,,,,,,,,,,
,,,,,R_2vji8lS5AfMnwLr,001,2025-09-11_10h50.02.678,continuous_performance_test,2024.2.4,Win32,60.24096386,91dcabf4-5f42-4e20-b4e4-3b6d15959a78,6,486.502,488.0504,,1,0,4,4,27,1,X,,,,,,,,,,,,,
,,,,,R_2vji8lS5AfMnwLr,001,2025-09-11_10h50.02.678,continuous_performance_test,2024.2.4,Win32,60.24096386,91dcabf4-5f42-4e20-b4e4-3b6d15959a78,6,488.0521,489.6001,space,1,0,5,5,14,1,O,space,0.4072,,,,,,,,,,,
,,,,,R_2vji8lS5AfMnwLr,001,2025-09-11_10h50.02.678,continuous_performance_test,2024.2.4,Win32,60.24096386,91dcabf4-5f42-4e20-b4e4-3b6d15959a78,6,489.6017,491.1998,space,1,0,6,6,7,1,H,space,0.5504,,,,,,,,,,,
,,,,,R_2vji8lS5AfMnwLr,001,2025-09-11_10h50.02.678,continuous_performance_test,2024.2.4,Win32,60.24096386,91dcabf4-5f42-4e20-b4e4-3b6d15959a78,6,491.2015,493.0391,space,1,0,7,7,24,1,Z,space,0.6505,,,,,,,,,,,
,,,,,R_2vji8lS5AfMnwLr,001,2025-09-11_10h50.02.678,continuous_performance_test,2024.2.4,Win32,60.24096386,91dcabf4-5f42-4e20-b4e4-3b6d15959a78,6,493.0404,494.6353,space,1,0,8,8,18,1,S,space,0.5862,,,,,,,,,,,
,,,,,R_2vji8lS5AfMnwLr,001,2025-09-11_10h50.02.678,continuous_performance_test,2024.2.4,Win32,60.24096386,91dcabf4-5f42-4e20-b4e4-3b6d15959a78,6,494.6361,496.5339,space,1,0,9,9,8,1,I,space,0.5411,,,,,,,,,,,
,,,,,R_2vji8lS5AfMnwLr,001,2025-09-11_10h50.02.678,continuous_performance_test,2024.2.4,Win32,60.24096386,91dcabf4-5f42-4e20-b4e4-3b6d15959a78,6,496.535,498.5342,space,1,0,10,10,9,1,J,space,0.4859,,,,,,,,,,,
,,,,,R_2vji8lS5AfMnwLr,001,2025-09-11_10h50.02.678,continuous_performance_test,2024.2.4,Win32,60.24096386,91dcabf4-5f42-4e20-b4e4-3b6d15959a78,6,498.5352,500.1342,,0,0,11,11,17,1,R,space,,,,,,,,,,,,
,,,,,R_2vji8lS5AfMnwLr,001,2025-09-11_10h50.02.678,continuous_performance_test,2024.2.4,Win32,60.24096386,91dcabf4-5f42-4e20-b4e4-3b6d15959a78,6,500.1351,501.9832,space,1,0,12,12,16,1,Q,space,0.925,,,,,,,,,,,
,,,,,R_2vji8lS5AfMnwLr,001,2025-09-11_10h50.02.678,continuous_performance_test,2024.2.4,Win32,60.24096386,91dcabf4-5f42-4e20-b4e4-3b6d15959a78,6,501.9848,503.7834,,0,0,13,13,3,1,D,space,,,,,,,,,,,,
,,,,,R_2vji8lS5AfMnwLr,001,2025-09-11_10h50.02.678,continuous_performance_test,2024.2.4,Win32,60.24096386,91dcabf4-5f42-4e20-b4e4-3b6d15959a78,6,503.7845,505.4387,space,0,0,14,14,28,1,X,,0.0672,,,,,,,,,,,
,,,,,R_2vji8lS5AfMnwLr,001,2025-09-11_10h50.02.678,continuous_performance_test,2024.2.4,Win32,60.24096386,91dcabf4-5f42-4e20-b4e4-3b6d15959a78,6,505.4397,507.239,space,1,0,15,15,0,1,A,space,0.4677,,,,,,,,,,,
,,,,,R_2vji8lS5AfMnwLr,001,2025-09-11_10h50.02.678,continuous_performance_test,2024.2.4,Win32,60.24096386,91dcabf4-5f42-4e20-b4e4-3b6d15959a78,6,507.2404,508.7826,space,1,0,16,16,10,1,K,space,0.5412,,,,,,,,,,,
,,,,,R_2vji8lS5AfMnwLr,001,2025-09-11_10h50.02.678,continuous_performance_test,2024.2.4,Win32,60.24096386,91dcabf4-5f42-4e20-b4e4-3b6d15959a78,6,508.7843,510.6835,space,1,0,17,17,2,1,C,space,0.4407,,,,,,,,,,,
,,,,,R_2vji8lS5AfMnwLr,001,2025-09-11_10h50.02.678,continuous_performance_test,2024.2.4,Win32,60.24096386,91dcabf4-5f42-4e20-b4e4-3b6d15959a78,6,510.6847,512.6836,space,1,0,18,18,13,1,N,space,0.6581,,,,,,,,,,,
,,,,,R_2vji8lS5AfMnwLr,001,2025-09-11_10h50.02.678,continuous_performance_test,2024.2.4,Win32,60.24096386,91dcabf4-5f42-4e20-b4e4-3b6d15959a78,6,512.6847,514.5833,space,1,0,19,19,4,1,E,space,0.5889,,,,,,,,,,,
,,,,,R_2vji8lS5AfMnwLr,001,2025-09-11_10h50.02.678,continuous_performance_test,2024.2.4,Win32,60.24096386,91dcabf4-5f42-4e20-b4e4-3b6d15959a78,6,514.5843,516.1329,space,1,0,20,20,11,1,L,space,0.4677,,,,,,,,,,,
,,,,,R_2vji8lS5AfMnwLr,001,2025-09-11_10h50.02.678,continuous_performance_test,2024.2.4,Win32,60.24096386,91dcabf4-5f42-4e20-b4e4-3b6d15959a78,6,516.1345,518.0331,space,1,0,21,21,21,1,V,space,0.577,,,,,,,,,,,
,,,,,R_2vji8lS5AfMnwLr,001,2025-09-11_10h50.02.678,continuous_performance_test,2024.2.4,Win32,60.24096386,91dcabf4-5f42-4e20-b4e4-3b6d15959a78,6,518.0343,519.9882,space,1,0,22,22,5,1,F,space,0.4249,,,,,,,,,,,
,,,,,R_2vji8lS5AfMnwLr,001,2025-09-11_10h50.02.678,continuous_performance_test,2024.2.4,Win32,60.24096386,91dcabf4-5f42-4e20-b4e4-3b6d15959a78,6,519.9892,521.6334,space,1,0,23,23,19,1,T,space,0.4863,,,,,,,,,,,
,,,,,R_2vji8lS5AfMnwLr,001,2025-09-11_10h50.02.678,continuous_performance_test,2024.2.4,Win32,60.24096386,91dcabf4-5f42-4e20-b4e4-3b6d15959a78,6,521.6347,523.2716,space,1,0,24,24,15,1,P,space,0.4072,,,,,,,,,,,
,,,,,R_2vji8lS5AfMnwLr,001,2025-09-11_10h50.02.678,continuous_performance_test,2024.2.4,Win32,60.24096386,91dcabf4-5f42-4e20-b4e4-3b6d15959a78,6,523.2732,524.9665,space,1,0,25,25,23,1,Y,space,0.5833,,,,,,,,,,,
,,,,,R_2vji8lS5AfMnwLr,001,2025-09-11_10h50.02.678,continuous_performance_test,2024.2.4,Win32,60.24096386,91dcabf4-5f42-4e20-b4e4-3b6d15959a78,6,524.9677,526.6161,,1,0,26,26,25,1,X,,,,,,,,,,,,,
,,,,,R_2vji8lS5AfMnwLr,001,2025-09-11_10h50.02.678,continuous_performance_test,2024.2.4,Win32,60.24096386,91dcabf4-5f42-4e20-b4e4-3b6d15959a78,6,526.6177,528.5168,space,1,0,27,27,1,1,B,space,0.6337,,,,,,,,,,,
,,,,,R_2vji8lS5AfMnwLr,001,2025-09-11_10h50.02.678,continuous_performance_test,2024.2.4,Win32,60.24096386,91dcabf4-5f42-4e20-b4e4-3b6d15959a78,6,528.5182,530.4193,space,1,0,28,28,12,1,M,space,0.6499,,,,,,,,,,,
,,,,,R_2vji8lS5AfMnwLr,001,2025-09-11_10h50.02.678,continuous_performance_test,2024.2.4,Win32,60.24096386,91dcabf4-5f42-4e20-b4e4-3b6d15959a78,6,530.4203,532.3715,,0,0,29,29,22,1,W,space,,,,,,,,,,,,
,,,,,R_2vji8lS5AfMnwLr,001,2025-09-11_10h50.02.678,continuous_performance_test,2024.2.4,Win32,60.24096386,91dcabf4-5f42-4e20-b4e4-3b6d15959a78,6,547.3724,549.019,space,0,0,0,0,27,1,X,,0.5501,,532.3727,547.3662,,,,,,,,
,,,,,R_2vji8lS5AfMnwLr,001,2025-09-11_10h50.02.678,continuous_performance_test,2024.2.4,Win32,60.24096386,91dcabf4-5f42-4e20-b4e4-3b6d15959a78,6,549.0204,550.7161,space,1,0,1,1,1,1,B,space,0.4339,,,,,,,,,,,
,,,,,R_2vji8lS5AfMnwLr,001,2025-09-11_10h50.02.678,continuous_performance_test,2024.2.4,Win32,60.24096386,91dcabf4-5f42-4e20-b4e4-3b6d15959a78,6,550.7172,552.6195,space,1,0,2,2,5,1,F,space,0.6563,,,,,,,,,,,
,,,,,R_2vji8lS5AfMnwLr,001,2025-09-11_10h50.02.678,continuous_performance_test,2024.2.4,Win32,60.24096386,91dcabf4-5f42-4e20-b4e4-3b6d15959a78,6,552.6204,554.4653,,1,0,3,3,28,1,X,,,,,,,,,,,,,
,,,,,R_2vji8lS5AfMnwLr,001,2025-09-11_10h50.02.678,continuous_performance_test,2024.2.4,Win32,60.24096386,91dcabf4-5f42-4e20-b4e4-3b6d15959a78,6,554.4665,556.0656,,1,0,4,4,29,1,X,,,,,,,,,,,,,
,,,,,R_2vji8lS5AfMnwLr,001,2025-09-11_10h50.02.678,continuous_performance_test,2024.2.4,Win32,60.24096386,91dcabf4-5f42-4e20-b4e4-3b6d15959a78,6,556.0666,557.7654,space,1,0,5,5,21,1,V,space,0.5835,,,,,,,,,,,
,,,,,R_2vji8lS5AfMnwLr,001,2025-09-11_10h50.02.678,continuous_performance_test,2024.2.4,Win32,60.24096386,91dcabf4-5f42-4e20-b4e4-3b6d15959a78,6,557.7666,559.7654,space,1,0,6,6,19,1,T,space,0.6223,,,,,,,,,,,
,,,,,R_2vji8lS5AfMnwLr,001,2025-09-11_10h50.02.678,continuous_performance_test,2024.2.4,Win32,60.24096386,91dcabf4-5f42-4e20-b4e4-3b6d15959a78,6,559.7668,561.6705,space,1,0,7,7,15,1,P,space,0.7834,,,,,,,,,,,
,,,,,R_2vji8lS5AfMnwLr,001,2025-09-11_10h50.02.678,continuous_performance_test,2024.2.4,Win32,60.24096386,91dcabf4-5f42-4e20-b4e4-3b6d15959a78,6,561.6719,563.468,space,1,0,8,8,16,1,Q,space,0.5514,,,,,,,,,,,
,,,,,R_2vji8lS5AfMnwLr,001,2025-09-11_10h50.02.678,continuous_performance_test,2024.2.4,Win32,60.24096386,91dcabf4-5f42-4e20-b4e4-3b6d15959a78,6,563.4685,565.315,space,1,0,9,9,4,1,E,space,0.493,,,,,,,,,,,
,,,,,R_2vji8lS5AfMnwLr,001,2025-09-11_10h50.02.678,continuous_performance_test,2024.2.4,Win32,60.24096386,91dcabf4-5f42-4e20-b4e4-3b6d15959a78,6,565.3163,567.2152,space,1,0,10,10,24,1,Z,space,0.4049,,,,,,,,,,,
,,,,,R_2vji8lS5AfMnwLr,001,2025-09-11_10h50.02.678,continuous_performance_test,2024.2.4,Win32,60.24096386,91dcabf4-5f42-4e20-b4e4-3b6d15959a78,6,567.2165,569.0699,space,1,0,11,11,7,1,H,space,0.6186,,,,,,,,,,,
,,,,,R_2vji8lS5AfMnwLr,001,2025-09-11_10h50.02.678,continuous_performance_test,2024.2.4,Win32,60.24096386,91dcabf4-5f42-4e20-b4e4-3b6d15959a78,6,569.0709,570.8691,,1,0,12,12,25,1,X,,,,,,,,,,,,,
,,,,,R_2vji8lS5AfMnwLr,001,2025-09-11_10h50.02.678,continuous_performance_test,2024.2.4,Win32,60.24096386,91dcabf4-5f42-4e20-b4e4-3b6d15959a78,6,570.8703,572.7652,space,1,0,13,13,13,1,N,space,0.5363,,,,,,,,,,,
,,,,,R_2vji8lS5AfMnwLr,001,2025-09-11_10h50.02.678,continuous_performance_test,2024.2.4,Win32,60.24096386,91dcabf4-5f42-4e20-b4e4-3b6d15959a78,6,572.7666,574.7648,space,1,0,14,14,14,1,O,space,0.5835,,,,,,,,,,,
,,,,,R_2vji8lS5AfMnwLr,001,2025-09-11_10h50.02.678,continuous_performance_test,2024.2.4,Win32,60.24096386,91dcabf4-5f42-4e20-b4e4-3b6d15959a78,6,574.7661,576.4648,space,1,0,15,15,8,1,I,space,0.6169,,,,,,,,,,,
,,,,,R_2vji8lS5AfMnwLr,001,2025-09-11_10h50.02.678,continuous_performance_test,2024.2.4,Win32,60.24096386,91dcabf4-5f42-4e20-b4e4-3b6d15959a78,6,576.4661,578.3648,space,1,0,16,16,6,1,G,space,0.4383,,,,,,,,,,,
,,,,,R_2vji8lS5AfMnwLr,001,2025-09-11_10h50.02.678,continuous_performance_test,2024.2.4,Win32,60.24096386,91dcabf4-5f42-4e20-b4e4-3b6d15959a78,6,578.3661,580.2653,space,1,0,17,17,2,1,C,space,0.4829,,,,,,,,,,,
,,,,,R_2vji8lS5AfMnwLr,001,2025-09-11_10h50.02.678,continuous_performance_test,2024.2.4,Win32,60.24096386,91dcabf4-5f42-4e20-b4e4-3b6d15959a78,6,580.2659,581.9201,space,1,0,18,18,20,1,U,space,0.4941,,,,,,,,,,,
,,,,,R_2vji8lS5AfMnwLr,001,2025-09-11_10h50.02.678,continuous_performance_test,2024.2.4,Win32,60.24096386,91dcabf4-5f42-4e20-b4e4-3b6d15959a78,6,581.9215,583.5645,space,1,0,19,19,18,1,S,space,0.5411,,,,,,,,,,,
,,,,,R_2vji8lS5AfMnwLr,001,2025-09-11_10h50.02.678,continuous_performance_test,2024.2.4,Win32,60.24096386,91dcabf4-5f42-4e20-b4e4-3b6d15959a78,6,583.5662,585.4702,space,1,0,20,20,11,1,L,space,0.5065,,,,,,,,,,,
,,,,,R_2vji8lS5AfMnwLr,001,2025-09-11_10h50.02.678,continuous_performance_test,2024.2.4,Win32,60.24096386,91dcabf4-5f42-4e20-b4e4-3b6d15959a78,6,585.4714,587.1146,,1,0,21,21,26,1,X,,,,,,,,,,,,,
,,,,,R_2vji8lS5AfMnwLr,001,2025-09-11_10h50.02.678,continuous_performance_test,2024.2.4,Win32,60.24096386,91dcabf4-5f42-4e20-b4e4-3b6d15959a78,6,587.1158,588.7188,space,1,0,22,22,12,1,M,space,0.7397,,,,,,,,,,,
,,,,,R_2vji8lS5AfMnwLr,001,2025-09-11_10h50.02.678,continuous_performance_test,2024.2.4,Win32,60.24096386,91dcabf4-5f42-4e20-b4e4-3b6d15959a78,6,588.7198,590.4162,space,1,0,23,23,0,1,A,space,0.6764,,,,,,,,,,,
,,,,,R_2vji8lS5AfMnwLr,001,2025-09-11_10h50.02.678,continuous_performance_test,2024.2.4,Win32,60.24096386,91dcabf4-5f42-4e20-b4e4-3b6d15959a78,6,590.417,592.2143,space,1,0,24,24,3,1,D,space,0.7058,,,,,,,,,,,
,,,,,R_2vji8lS5AfMnwLr,001,2025-09-11_10h50.02.678,continuous_performance_test,2024.2.4,Win32,60.24096386,91dcabf4-5f42-4e20-b4e4-3b6d15959a78,6,592.2157,593.9641,,0,0,25,25,23,1,Y,space,,,,,,,,,,,,
,,,,,R_2vji8lS5AfMnwLr,001,2025-09-11_10h50.02.678,continuous_performance_test,2024.2.4,Win32,60.24096386,91dcabf4-5f42-4e20-b4e4-3b6d15959a78,6,593.9656,595.664,space,1,0,26,26,17,1,R,space,0.3887,,,,,,,,,,,
,,,,,R_2vji8lS5AfMnwLr,001,2025-09-11_10h50.02.678,continuous_performance_test,2024.2.4,Win32,60.24096386,91dcabf4-5f42-4e20-b4e4-3b6d15959a78,6,595.6652,597.6649,,0,0,27,27,9,1,J,space,,,,,,,,,,,,
,,,,,R_2vji8lS5AfMnwLr,001,2025-09-11_10h50.02.678,continuous_performance_test,2024.2.4,Win32,60.24096386,91dcabf4-5f42-4e20-b4e4-3b6d15959a78,6,597.666,599.3644,space,1,0,28,28,22,1,W,space,0.8106,,,,,,,,,,,
,,,,,R_2vji8lS5AfMnwLr,001,2025-09-11_10h50.02.678,continuous_performance_test,2024.2.4,Win32,60.24096386,91dcabf4-5f42-4e20-b4e4-3b6d15959a78,6,599.3652,601.2645,space,1,0,29,29,10,1,K,space,0.7965,,,,,,,,,,,
,,,,,R_2vji8lS5AfMnwLr,001,2025-09-11_10h50.02.678,continuous_performance_test,2024.2.4,Win32,60.24096386,91dcabf4-5f42-4e20-b4e4-3b6d15959a78,6,616.2739,618.264,space,1,0,0,0,7,1,H,space,0.4908,,601.2655,616.2683,,,,,,,,
,,,,,R_2vji8lS5AfMnwLr,001,2025-09-11_10h50.02.678,continuous_performance_test,2024.2.4,Win32,60.24096386,91dcabf4-5f42-4e20-b4e4-3b6d15959a78,6,618.2647,620.1638,space,1,0,1,1,19,1,T,space,0.6556,,,,,,,,,,,
,,,,,R_2vji8lS5AfMnwLr,001,2025-09-11_10h50.02.678,continuous_performance_test,2024.2.4,Win32,60.24096386,91dcabf4-5f42-4e20-b4e4-3b6d15959a78,6,620.1649,621.8132,space,1,0,2,2,9,1,J,space,0.5568,,,,,,,,,,,
,,,,,R_2vji8lS5AfMnwLr,001,2025-09-11_10h50.02.678,continuous_performance_test,2024.2.4,Win32,60.24096386,91dcabf4-5f42-4e20-b4e4-3b6d15959a78,6,621.8147,623.4526,space,1,0,3,3,12,1,M,space,0.4709,,,,,,,,,,,
,,,,,R_2vji8lS5AfMnwLr,001,2025-09-11_10h50.02.678,continuous_performance_test,2024.2.4,Win32,60.24096386,91dcabf4-5f42-4e20-b4e4-3b6d15959a78,6,623.4535,625.3467,space,1,0,4,4,15,1,P,space,0.5835,,,,,,,,,,,
,,,,,R_2vji8lS5AfMnwLr,001,2025-09-11_10h50.02.678,continuous_performance_test,2024.2.4,Win32,60.24096386,91dcabf4-5f42-4e20-b4e4-3b6d15959a78,6,625.3483,626.8856,space,1,0,5,5,20,1,U,space,0.6816,,,,,,,,,,,
,,,,,R_2vji8lS5AfMnwLr,001,2025-09-11_10h50.02.678,continuous_performance_test,2024.2.4,Win32,60.24096386,91dcabf4-5f42-4e20-b4e4-3b6d15959a78,6,626.887,628.43,space,1,0,6,6,24,1,Z,space,0.9172,,,,,,,,,,,
,,,,,R_2vji8lS5AfMnwLr,001,2025-09-11_10h50.02.678,continuous_performance_test,2024.2.4,Win32,60.24096386,91dcabf4-5f42-4e20-b4e4-3b6d15959a78,6,628.4312,630.0298,,1,0,7,7,27,1,X,,,,,,,,,,,,,
,,,,,R_2vji8lS5AfMnwLr,001,2025-09-11_10h50.02.678,continuous_performance_test,2024.2.4,Win32,60.24096386,91dcabf4-5f42-4e20-b4e4-3b6d15959a78,6,630.0316,631.6801,space,1,0,8,8,11,1,L,space,0.4988,,,,,,,,,,,
,,,,,R_2vji8lS5AfMnwLr,001,2025-09-11_10h50.02.678,continuous_performance_test,2024.2.4,Win32,60.24096386,91dcabf4-5f42-4e20-b4e4-3b6d15959a78,6,631.6815,633.4798,space,1,0,9,9,8,1,I,space,0.6567,,,,,,,,,,,
,,,,,R_2vji8lS5AfMnwLr,001,2025-09-11_10h50.02.678,continuous_performance_test,2024.2.4,Win32,60.24096386,91dcabf4-5f42-4e20-b4e4-3b6d15959a78,6,633.4812,635.28,space,1,0,10,10,10,1,K,space,0.6339,,,,,,,,,,,
,,,,,R_2vji8lS5AfMnwLr,001,2025-09-11_10h50.02.678,continuous_performance_test,2024.2.4,Win32,60.24096386,91dcabf4-5f42-4e20-b4e4-3b6d15959a78,6,635.2813,637.2802,,1,0,11,11,29,1,X,,,,,,,,,,,,,
,,,,,R_2vji8lS5AfMnwLr,001,2025-09-11_10h50.02.678,continuous_performance_test,2024.2.4,Win32,60.24096386,91dcabf4-5f42-4e20-b4e4-3b6d15959a78,6,637.2812,638.9298,space,1,0,12,12,17,1,R,space,0.4832,,,,,,,,,,,
,,,,,R_2vji8lS5AfMnwLr,001,2025-09-11_10h50.02.678,continuous_performance_test,2024.2.4,Win32,60.24096386,91dcabf4-5f42-4e20-b4e4-3b6d15959a78,6,638.931,640.8298,space,1,0,13,13,4,1,E,space,0.5994,,,,,,,,,,,
,,,,,R_2vji8lS5AfMnwLr,001,2025-09-11_10h50.02.678,continuous_performance_test,2024.2.4,Win32,60.24096386,91dcabf4-5f42-4e20-b4e4-3b6d15959a78,6,640.8312,642.6301,space,1,0,14,14,22,1,W,space,0.808,,,,,,,,,,,
,,,,,R_2vji8lS5AfMnwLr,001,2025-09-11_10h50.02.678,continuous_performance_test,2024.2.4,Win32,60.24096386,91dcabf4-5f42-4e20-b4e4-3b6d15959a78,6,642.6309,644.2296,space,1,0,15,15,21,1,V,space,0.4764,,,,,,,,,,,
,,,,,R_2vji8lS5AfMnwLr,001,2025-09-11_10h50.02.678,continuous_performance_test,2024.2.4,Win32,60.24096386,91dcabf4-5f42-4e20-b4e4-3b6d15959a78,6,644.231,646.0799,space,1,0,16,16,6,1,G,space,0.4564,,,,,,,,,,,
,,,,,R_2vji8lS5AfMnwLr,001,2025-09-11_10h50.02.678,continuous_performance_test,2024.2.4,Win32,60.24096386,91dcabf4-5f42-4e20-b4e4-3b6d15959a78,6,646.081,647.8295,space,1,0,17,17,16,1,Q,space,0.519,,,,,,,,,,,
,,,,,R_2vji8lS5AfMnwLr,001,2025-09-11_10h50.02.678,continuous_performance_test,2024.2.4,Win32,60.24096386,91dcabf4-5f42-4e20-b4e4-3b6d15959a78,6,647.8308,649.4796,,1,0,18,18,26,1,X,,,,,,,,,,,,,
,,,,,R_2vji8lS5AfMnwLr,001,2025-09-11_10h50.02.678,continuous_performance_test,2024.2.4,Win32,60.24096386,91dcabf4-5f42-4e20-b4e4-3b6d15959a78,6,649.4809,651.4181,space,1,0,19,19,18,1,S,space,0.6349,,,,,,,,,,,
,,,,,R_2vji8lS5AfMnwLr,001,2025-09-11_10h50.02.678,continuous_performance_test,2024.2.4,Win32,60.24096386,91dcabf4-5f42-4e20-b4e4-3b6d15959a78,6,651.4193,653.2126,space,1,0,20,20,3,1,D,space,0.6213,,,,,,,,,,,
,,,,,R_2vji8lS5AfMnwLr,001,2025-09-11_10h50.02.678,continuous_performance_test,2024.2.4,Win32,60.24096386,91dcabf4-5f42-4e20-b4e4-3b6d15959a78,6,653.214,654.9186,space,1,0,21,21,5,1,F,space,0.7612,,,,,,,,,,,
,,,,,R_2vji8lS5AfMnwLr,001,2025-09-11_10h50.02.678,continuous_performance_test,2024.2.4,Win32,60.24096386,91dcabf4-5f42-4e20-b4e4-3b6d15959a78,6,654.9199,656.6127,,1,0,22,22,28,1,X,,,,,,,,,,,,,
,,,,,R_2vji8lS5AfMnwLr,001,2025-09-11_10h50.02.678,continuous_performance_test,2024.2.4,Win32,60.24096386,91dcabf4-5f42-4e20-b4e4-3b6d15959a78,6,656.614,658.3132,space,1,0,23,23,2,1,C,space,0.6093,,,,,,,,,,,
,,,,,R_2vji8lS5AfMnwLr,001,2025-09-11_10h50.02.678,continuous_performance_test,2024.2.4,Win32,60.24096386,91dcabf4-5f42-4e20-b4e4-3b6d15959a78,6,658.3141,660.163,space,1,0,24,24,1,1,B,space,0.5342,,,,,,,,,,,
,,,,,R_2vji8lS5AfMnwLr,001,2025-09-11_10h50.02.678,continuous_performance_test,2024.2.4,Win32,60.24096386,91dcabf4-5f42-4e20-b4e4-3b6d15959a78,6,660.1641,661.9125,,1,0,25,25,25,1,X,,,,,,,,,,,,,
,,,,,R_2vji8lS5AfMnwLr,001,2025-09-11_10h50.02.678,continuous_performance_test,2024.2.4,Win32,60.24096386,91dcabf4-5f42-4e20-b4e4-3b6d15959a78,6,661.9138,663.4663,space,1,0,26,26,13,1,N,space,0.6839,,,,,,,,,,,
,,,,,R_2vji8lS5AfMnwLr,001,2025-09-11_10h50.02.678,continuous_performance_test,2024.2.4,Win32,60.24096386,91dcabf4-5f42-4e20-b4e4-3b6d15959a78,6,663.4669,665.3627,space,1,0,27,27,0,1,A,space,0.0187,,,,,,,,,,,
,,,,,R_2vji8lS5AfMnwLr,001,2025-09-11_10h50.02.678,continuous_performance_test,2024.2.4,Win32,60.24096386,91dcabf4-5f42-4e20-b4e4-3b6d15959a78,6,665.3639,667.3626,space,1,0,28,28,14,1,O,space,0.6835,,,,,,,,,,,
,,,,,R_2vji8lS5AfMnwLr,001,2025-09-11_10h50.02.678,continuous_performance_test,2024.2.4,Win32,60.24096386,91dcabf4-5f42-4e20-b4e4-3b6d15959a78,6,667.3641,668.9514,space,1,0,29,29,23,1,Y,space,0.5633,,,,,,,,,,,
,,,,,R_2vji8lS5AfMnwLr,001,2025-09-11_10h50.02.678,continuous_performance_test,2024.2.4,Win32,60.24096386,91dcabf4-5f42-4e20-b4e4-3b6d15959a78,6,,,,,,,,,,,,,,668.9524,668.9533,,,,668.9538,676.7463,space,7.7672,
