Instructions.started,Instructions.stopped,key_resp.keys,key_resp.rt,key_resp.duration,participant,session,date,expName,psychopyVersion,OS,frameRate,realeye-tester-id,realeye-tester-quality_grade,Trial_noX.started,Trial_noX.stopped,response.keys,response.corr,trials_noX.thisRepN,trials_noX.thisTrialN,trials_noX.thisN,trials_noX.thisIndex,trials_noX.ran,letter,corrAns,response.rt,response.duration,BlockBreak.started,BlockBreak.stopped,key_instruct.keys,key_instruct.rt,key_instruct.duration,End_NoX.started,End_NoX.stopped,key_resp_end_noX.keys,key_resp_end_noX.rt,key_resp_end_noX.duration
0.0002,18.4566,space,18.4185,,R_3yX8C7jDLuZOKS5,001,2025-09-15_15h41.43.480,continuous_performance_test,2024.2.4,Win32,59.52380952,21d35f91-28b9-4bc5-9adb-7195fb09dad6,2,,,,,,,,,,,,,,,,,,,,,,,
,,,,,R_3yX8C7jDLuZOKS5,001,2025-09-15_15h41.43.480,continuous_performance_test,2024.2.4,Win32,59.52380952,21d35f91-28b9-4bc5-9adb-7195fb09dad6,2,18.4787,20.2212,,0,0,0,0,14,1,O,space,,,,,,,,,,,,
,,,,,R_3yX8C7jDLuZOKS5,001,2025-09-15_15h41.43.480,continuous_performance_test,2024.2.4,Win32,59.52380952,21d35f91-28b9-4bc5-9adb-7195fb09dad6,2,20.2227,21.9216,space,1,0,1,1,13,1,N,space,0.2753,,,,,,,,,,,
,,,,,R_3yX8C7jDLuZOKS5,001,2025-09-15_15h41.43.480,continuous_performance_test,2024.2.4,Win32,59.52380952,21d35f91-28b9-4bc5-9adb-7195fb09dad6,2,21.9238,23.571,space,1,0,2,2,23,1,Y,space,0.2437,,,,,,,,,,,
,,,,,R_3yX8C7jDLuZOKS5,001,2025-09-15_15h41.43.480,continuous_performance_test,2024.2.4,Win32,59.52380952,21d35f91-28b9-4bc5-9adb-7195fb09dad6,2,23.5732,25.57,space,0,0,3,3,26,1,X,,0.269,,,,,,,,,,,
,,,,,R_3yX8C7jDLuZOKS5,001,2025-09-15_15h41.43.480,continuous_performance_test,2024.2.4,Win32,59.52380952,21d35f91-28b9-4bc5-9adb-7195fb09dad6,2,25.5722,27.2733,space,1,0,4,4,21,1,V,space,0.2848,,,,,,,,,,,
,,,,,R_3yX8C7jDLuZOKS5,001,2025-09-15_15h41.43.480,continuous_performance_test,2024.2.4,Win32,59.52380952,21d35f91-28b9-4bc5-9adb-7195fb09dad6,2,27.277,28.9728,space,1,0,5,5,16,1,Q,space,0.3849,,,,,,,,,,,
,,,,,R_3yX8C7jDLuZOKS5,001,2025-09-15_15h41.43.480,continuous_performance_test,2024.2.4,Win32,59.52380952,21d35f91-28b9-4bc5-9adb-7195fb09dad6,2,28.9758,30.5184,space,1,0,6,6,22,1,W,space,0.4036,,,,,,,,,,,
,,,,,R_3yX8C7jDLuZOKS5,001,2025-09-15_15h41.43.480,continuous_performance_test,2024.2.4,Win32,59.52380952,21d35f91-28b9-4bc5-9adb-7195fb09dad6,2,30.5198,32.3175,space,1,0,7,7,18,1,S,space,0.307,,,,,,,,,,,
,,,,,R_3yX8C7jDLuZOKS5,001,2025-09-15_15h41.43.480,continuous_performance_test,2024.2.4,Win32,59.52380952,21d35f91-28b9-4bc5-9adb-7195fb09dad6,2,32.3192,34.3163,space,1,0,8,8,11,1,L,space,0.4527,,,,,,,,,,,
,,,,,R_3yX8C7jDLuZOKS5,001,2025-09-15_15h41.43.480,continuous_performance_test,2024.2.4,Win32,59.52380952,21d35f91-28b9-4bc5-9adb-7195fb09dad6,2,34.3179,36.1159,space,1,0,9,9,5,1,F,space,0.5011,,,,,,,,,,,
,,,,,R_3yX8C7jDLuZOKS5,001,2025-09-15_15h41.43.480,continuous_performance_test,2024.2.4,Win32,59.52380952,21d35f91-28b9-4bc5-9adb-7195fb09dad6,2,36.1177,38.0655,space,1,0,10,10,8,1,I,space,0.4999,,,,,,,,,,,
,,,,,R_3yX8C7jDLuZOKS5,001,2025-09-15_15h41.43.480,continuous_performance_test,2024.2.4,Win32,59.52380952,21d35f91-28b9-4bc5-9adb-7195fb09dad6,2,38.0667,39.6646,space,1,0,11,11,6,1,G,space,0.3859,,,,,,,,,,,
,,,,,R_3yX8C7jDLuZOKS5,001,2025-09-15_15h41.43.480,continuous_performance_test,2024.2.4,Win32,59.52380952,21d35f91-28b9-4bc5-9adb-7195fb09dad6,2,39.6666,41.2645,space,1,0,12,12,20,1,U,space,0.3388,,,,,,,,,,,
,,,,,R_3yX8C7jDLuZOKS5,001,2025-09-15_15h41.43.480,continuous_performance_test,2024.2.4,Win32,59.52380952,21d35f91-28b9-4bc5-9adb-7195fb09dad6,2,41.2655,43.0141,,1,0,13,13,29,1,X,,,,,,,,,,,,,
,,,,,R_3yX8C7jDLuZOKS5,001,2025-09-15_15h41.43.480,continuous_performance_test,2024.2.4,Win32,59.52380952,21d35f91-28b9-4bc5-9adb-7195fb09dad6,2,43.0155,44.6636,space,1,0,14,14,15,1,P,space,0.3084,,,,,,,,,,,
,,,,,R_3yX8C7jDLuZOKS5,001,2025-09-15_15h41.43.480,continuous_performance_test,2024.2.4,Win32,59.52380952,21d35f91-28b9-4bc5-9adb-7195fb09dad6,2,44.6646,46.513,space,1,0,15,15,12,1,M,space,0.3013,,,,,,,,,,,
,,,,,R_3yX8C7jDLuZOKS5,001,2025-09-15_15h41.43.480,continuous_performance_test,2024.2.4,Win32,59.52380952,21d35f91-28b9-4bc5-9adb-7195fb09dad6,2,46.5149,48.4145,space,1,0,16,16,4,1,E,space,0.3087,,,,,,,,,,,
,,,,,R_3yX8C7jDLuZOKS5,001,2025-09-15_15h41.43.480,continuous_performance_test,2024.2.4,Win32,59.52380952,21d35f91-28b9-4bc5-9adb-7195fb09dad6,2,48.4159,49.961,space,1,0,17,17,17,1,R,space,0.3195,,,,,,,,,,,
,,,,,R_3yX8C7jDLuZOKS5,001,2025-09-15_15h41.43.480,continuous_performance_test,2024.2.4,Win32,59.52380952,21d35f91-28b9-4bc5-9adb-7195fb09dad6,2,49.9626,51.7609,space,0,0,18,18,27,1,X,,0.3176,,,,,,,,,,,
,,,,,R_3yX8C7jDLuZOKS5,001,2025-09-15_15h41.43.480,continuous_performance_test,2024.2.4,Win32,59.52380952,21d35f91-28b9-4bc5-9adb-7195fb09dad6,2,51.7626,53.7143,space,1,0,19,19,0,1,A,space,0.2984,,,,,,,,,,,
,,,,,R_3yX8C7jDLuZOKS5,001,2025-09-15_15h41.43.480,continuous_performance_test,2024.2.4,Win32,59.52380952,21d35f91-28b9-4bc5-9adb-7195fb09dad6,2,53.716,55.2631,space,0,0,20,20,25,1,X,,0.3344,,,,,,,,,,,
,,,,,R_3yX8C7jDLuZOKS5,001,2025-09-15_15h41.43.480,continuous_performance_test,2024.2.4,Win32,59.52380952,21d35f91-28b9-4bc5-9adb-7195fb09dad6,2,55.2639,56.8593,space,1,0,21,21,3,1,D,space,0.2671,,,,,,,,,,,
,,,,,R_3yX8C7jDLuZOKS5,001,2025-09-15_15h41.43.480,continuous_performance_test,2024.2.4,Win32,59.52380952,21d35f91-28b9-4bc5-9adb-7195fb09dad6,2,56.8607,58.7584,space,1,0,22,22,19,1,T,space,0.3346,,,,,,,,,,,
,,,,,R_3yX8C7jDLuZOKS5,001,2025-09-15_15h41.43.480,continuous_performance_test,2024.2.4,Win32,59.52380952,21d35f91-28b9-4bc5-9adb-7195fb09dad6,2,58.7596,60.6079,space,0,0,23,23,28,1,X,,0.337,,,,,,,,,,,
,,,,,R_3yX8C7jDLuZOKS5,001,2025-09-15_15h41.43.480,continuous_performance_test,2024.2.4,Win32,59.52380952,21d35f91-28b9-4bc5-9adb-7195fb09dad6,2,60.6095,62.3075,space,1,0,24,24,24,1,Z,space,0.3009,,,,,,,,,,,
,,,,,R_3yX8C7jDLuZOKS5,001,2025-09-15_15h41.43.480,continuous_performance_test,2024.2.4,Win32,59.52380952,21d35f91-28b9-4bc5-9adb-7195fb09dad6,2,62.309,64.107,space,1,0,25,25,1,1,B,space,0.3979,,,,,,,,,,,
,,,,,R_3yX8C7jDLuZOKS5,001,2025-09-15_15h41.43.480,continuous_performance_test,2024.2.4,Win32,59.52380952,21d35f91-28b9-4bc5-9adb-7195fb09dad6,2,64.1091,66.056,space,1,0,26,26,2,1,C,space,0.3459,,,,,,,,,,,
,,,,,R_3yX8C7jDLuZOKS5,001,2025-09-15_15h41.43.480,continuous_performance_test,2024.2.4,Win32,59.52380952,21d35f91-28b9-4bc5-9adb-7195fb09dad6,2,66.0576,67.9057,space,1,0,27,27,10,1,K,space,0.55,,,,,,,,,,,
,,,,,R_3yX8C7jDLuZOKS5,001,2025-09-15_15h41.43.480,continuous_performance_test,2024.2.4,Win32,59.52380952,21d35f91-28b9-4bc5-9adb-7195fb09dad6,2,67.9074,69.4547,space,1,0,28,28,7,1,H,space,0.3744,,,,,,,,,,,
,,,,,R_3yX8C7jDLuZOKS5,001,2025-09-15_15h41.43.480,continuous_performance_test,2024.2.4,Win32,59.52380952,21d35f91-28b9-4bc5-9adb-7195fb09dad6,2,69.4566,71.3541,space,1,0,29,29,9,1,J,space,0.3684,,,,,,,,,,,
,,,,,R_3yX8C7jDLuZOKS5,001,2025-09-15_15h41.43.480,continuous_performance_test,2024.2.4,Win32,59.52380952,21d35f91-28b9-4bc5-9adb-7195fb09dad6,2,74.7588,76.5518,space,1,0,0,0,5,1,F,space,0.3848,,71.3552,74.7535,space,3.3742,,,,,,
,,,,,R_3yX8C7jDLuZOKS5,001,2025-09-15_15h41.43.480,continuous_performance_test,2024.2.4,Win32,59.52380952,21d35f91-28b9-4bc5-9adb-7195fb09dad6,2,76.5534,78.2018,space,1,0,1,1,9,1,J,space,0.3007,,,,,,,,,,,
,,,,,R_3yX8C7jDLuZOKS5,001,2025-09-15_15h41.43.480,continuous_performance_test,2024.2.4,Win32,59.52380952,21d35f91-28b9-4bc5-9adb-7195fb09dad6,2,78.2032,80.001,space,1,0,2,2,10,1,K,space,0.419,,,,,,,,,,,
,,,,,R_3yX8C7jDLuZOKS5,001,2025-09-15_15h41.43.480,continuous_performance_test,2024.2.4,Win32,59.52380952,21d35f91-28b9-4bc5-9adb-7195fb09dad6,2,80.0023,81.7546,space,1,0,3,3,11,1,L,space,0.5102,,,,,,,,,,,
,,,,,R_3yX8C7jDLuZOKS5,001,2025-09-15_15h41.43.480,continuous_performance_test,2024.2.4,Win32,59.52380952,21d35f91-28b9-4bc5-9adb-7195fb09dad6,2,81.7558,83.5499,space,1,0,4,4,1,1,B,space,0.5023,,,,,,,,,,,
,,,,,R_3yX8C7jDLuZOKS5,001,2025-09-15_15h41.43.480,continuous_performance_test,2024.2.4,Win32,59.52380952,21d35f91-28b9-4bc5-9adb-7195fb09dad6,2,83.5509,85.1494,space,1,0,5,5,8,1,I,space,0.4175,,,,,,,,,,,
,,,,,R_3yX8C7jDLuZOKS5,001,2025-09-15_15h41.43.480,continuous_performance_test,2024.2.4,Win32,59.52380952,21d35f91-28b9-4bc5-9adb-7195fb09dad6,2,85.1504,87.0987,space,1,0,6,6,7,1,H,space,0.3334,,,,,,,,,,,
,,,,,R_3yX8C7jDLuZOKS5,001,2025-09-15_15h41.43.480,continuous_performance_test,2024.2.4,Win32,59.52380952,21d35f91-28b9-4bc5-9adb-7195fb09dad6,2,87.1,88.6981,space,1,0,7,7,22,1,W,space,0.3859,,,,,,,,,,,
,,,,,R_3yX8C7jDLuZOKS5,001,2025-09-15_15h41.43.480,continuous_performance_test,2024.2.4,Win32,59.52380952,21d35f91-28b9-4bc5-9adb-7195fb09dad6,2,88.6996,90.5978,space,1,0,8,8,19,1,T,space,0.301,,,,,,,,,,,
,,,,,R_3yX8C7jDLuZOKS5,001,2025-09-15_15h41.43.480,continuous_performance_test,2024.2.4,Win32,59.52380952,21d35f91-28b9-4bc5-9adb-7195fb09dad6,2,90.599,92.5967,space,1,0,9,9,0,1,A,space,0.3167,,,,,,,,,,,
,,,,,R_3yX8C7jDLuZOKS5,001,2025-09-15_15h41.43.480,continuous_performance_test,2024.2.4,Win32,59.52380952,21d35f91-28b9-4bc5-9adb-7195fb09dad6,2,92.5981,94.4968,space,0,0,10,10,26,1,X,,0.3219,,,,,,,,,,,
,,,,,R_3yX8C7jDLuZOKS5,001,2025-09-15_15h41.43.480,continuous_performance_test,2024.2.4,Win32,59.52380952,21d35f91-28b9-4bc5-9adb-7195fb09dad6,2,94.4981,96.4955,space,1,0,11,11,4,1,E,space,0.355,,,,,,,,,,,
,,,,,R_3yX8C7jDLuZOKS5,001,2025-09-15_15h41.43.480,continuous_performance_test,2024.2.4,Win32,59.52380952,21d35f91-28b9-4bc5-9adb-7195fb09dad6,2,96.4969,98.2951,,1,0,12,12,28,1,X,,,,,,,,,,,,,
,,,,,R_3yX8C7jDLuZOKS5,001,2025-09-15_15h41.43.480,continuous_performance_test,2024.2.4,Win32,59.52380952,21d35f91-28b9-4bc5-9adb-7195fb09dad6,2,98.2962,100.1945,space,1,0,13,13,3,1,D,space,0.3513,,,,,,,,,,,
,,,,,R_3yX8C7jDLuZOKS5,001,2025-09-15_15h41.43.480,continuous_performance_test,2024.2.4,Win32,59.52380952,21d35f91-28b9-4bc5-9adb-7195fb09dad6,2,100.1959,102.0943,,1,0,14,14,25,1,X,,,,,,,,,,,,,
,,,,,R_3yX8C7jDLuZOKS5,001,2025-09-15_15h41.43.480,continuous_performance_test,2024.2.4,Win32,59.52380952,21d35f91-28b9-4bc5-9adb-7195fb09dad6,2,102.095,103.9435,space,0,0,15,15,27,1,X,,0.2995,,,,,,,,,,,
,,,,,R_3yX8C7jDLuZOKS5,001,2025-09-15_15h41.43.480,continuous_performance_test,2024.2.4,Win32,59.52380952,21d35f91-28b9-4bc5-9adb-7195fb09dad6,2,103.9446,105.4925,space,1,0,16,16,23,1,Y,space,0.4,,,,,,,,,,,
,,,,,R_3yX8C7jDLuZOKS5,001,2025-09-15_15h41.43.480,continuous_performance_test,2024.2.4,Win32,59.52380952,21d35f91-28b9-4bc5-9adb-7195fb09dad6,2,105.4936,107.1922,space,1,0,17,17,17,1,R,space,0.3674,,,,,,,,,,,
,,,,,R_3yX8C7jDLuZOKS5,001,2025-09-15_15h41.43.480,continuous_performance_test,2024.2.4,Win32,59.52380952,21d35f91-28b9-4bc5-9adb-7195fb09dad6,2,107.1937,109.1913,space,1,0,18,18,13,1,N,space,0.3645,,,,,,,,,,,
,,,,,R_3yX8C7jDLuZOKS5,001,2025-09-15_15h41.43.480,continuous_performance_test,2024.2.4,Win32,59.52380952,21d35f91-28b9-4bc5-9adb-7195fb09dad6,2,109.1928,110.7409,space,1,0,19,19,21,1,V,space,0.3759,,,,,,,,,,,
,,,,,R_3yX8C7jDLuZOKS5,001,2025-09-15_15h41.43.480,continuous_performance_test,2024.2.4,Win32,59.52380952,21d35f91-28b9-4bc5-9adb-7195fb09dad6,2,110.7421,112.6404,space,1,0,20,20,6,1,G,space,0.3546,,,,,,,,,,,
,,,,,R_3yX8C7jDLuZOKS5,001,2025-09-15_15h41.43.480,continuous_performance_test,2024.2.4,Win32,59.52380952,21d35f91-28b9-4bc5-9adb-7195fb09dad6,2,112.6417,114.2902,space,1,0,21,21,15,1,P,space,0.3124,,,,,,,,,,,
,,,,,R_3yX8C7jDLuZOKS5,001,2025-09-15_15h41.43.480,continuous_performance_test,2024.2.4,Win32,59.52380952,21d35f91-28b9-4bc5-9adb-7195fb09dad6,2,114.2911,115.8892,space,1,0,22,22,24,1,Z,space,0.3848,,,,,,,,,,,
,,,,,R_3yX8C7jDLuZOKS5,001,2025-09-15_15h41.43.480,continuous_performance_test,2024.2.4,Win32,59.52380952,21d35f91-28b9-4bc5-9adb-7195fb09dad6,2,115.8902,117.7386,,1,0,23,23,29,1,X,,,,,,,,,,,,,
,,,,,R_3yX8C7jDLuZOKS5,001,2025-09-15_15h41.43.480,continuous_performance_test,2024.2.4,Win32,59.52380952,21d35f91-28b9-4bc5-9adb-7195fb09dad6,2,117.7397,119.4383,space,1,0,24,24,14,1,O,space,0.4149,,,,,,,,,,,
,,,,,R_3yX8C7jDLuZOKS5,001,2025-09-15_15h41.43.480,continuous_performance_test,2024.2.4,Win32,59.52380952,21d35f91-28b9-4bc5-9adb-7195fb09dad6,2,119.4393,121.3875,space,1,0,25,25,16,1,Q,space,0.3218,,,,,,,,,,,
,,,,,R_3yX8C7jDLuZOKS5,001,2025-09-15_15h41.43.480,continuous_performance_test,2024.2.4,Win32,59.52380952,21d35f91-28b9-4bc5-9adb-7195fb09dad6,2,121.3888,123.087,space,1,0,26,26,12,1,M,space,0.405,,,,,,,,,,,
,,,,,R_3yX8C7jDLuZOKS5,001,2025-09-15_15h41.43.480,continuous_performance_test,2024.2.4,Win32,59.52380952,21d35f91-28b9-4bc5-9adb-7195fb09dad6,2,123.0882,124.9358,space,1,0,27,27,18,1,S,space,0.4686,,,,,,,,,,,
,,,,,R_3yX8C7jDLuZOKS5,001,2025-09-15_15h41.43.480,continuous_performance_test,2024.2.4,Win32,59.52380952,21d35f91-28b9-4bc5-9adb-7195fb09dad6,2,124.9369,126.7355,space,1,0,28,28,20,1,U,space,0.5668,,,,,,,,,,,
,,,,,R_3yX8C7jDLuZOKS5,001,2025-09-15_15h41.43.480,continuous_performance_test,2024.2.4,Win32,59.52380952,21d35f91-28b9-4bc5-9adb-7195fb09dad6,2,126.7372,128.4348,space,1,0,29,29,2,1,C,space,0.3608,,,,,,,,,,,
,,,,,R_3yX8C7jDLuZOKS5,001,2025-09-15_15h41.43.480,continuous_performance_test,2024.2.4,Win32,59.52380952,21d35f91-28b9-4bc5-9adb-7195fb09dad6,2,136.4026,138.2486,space,1,0,0,0,6,1,G,space,0.3864,,128.4357,136.3991,space,7.9372,,,,,,
,,,,,R_3yX8C7jDLuZOKS5,001,2025-09-15_15h41.43.480,continuous_performance_test,2024.2.4,Win32,59.52380952,21d35f91-28b9-4bc5-9adb-7195fb09dad6,2,138.2495,140.0979,space,0,0,1,1,26,1,X,,0.3173,,,,,,,,,,,
,,,,,R_3yX8C7jDLuZOKS5,001,2025-09-15_15h41.43.480,continuous_performance_test,2024.2.4,Win32,59.52380952,21d35f91-28b9-4bc5-9adb-7195fb09dad6,2,140.0987,141.7505,space,1,0,2,2,14,1,O,space,0.4662,,,,,,,,,,,
,,,,,R_3yX8C7jDLuZOKS5,001,2025-09-15_15h41.43.480,continuous_performance_test,2024.2.4,Win32,59.52380952,21d35f91-28b9-4bc5-9adb-7195fb09dad6,2,141.7516,143.7503,space,1,0,3,3,15,1,P,space,0.4164,,,,,,,,,,,
,,,,,R_3yX8C7jDLuZOKS5,001,2025-09-15_15h41.43.480,continuous_performance_test,2024.2.4,Win32,59.52380952,21d35f91-28b9-4bc5-9adb-7195fb09dad6,2,143.7518,145.5954,space,1,0,4,4,3,1,D,space,0.3502,,,,,,,,,,,
,,,,,R_3yX8C7jDLuZOKS5,001,2025-09-15_15h41.43.480,continuous_performance_test,2024.2.4,Win32,59.52380952,21d35f91-28b9-4bc5-9adb-7195fb09dad6,2,145.5967,147.4448,space,1,0,5,5,2,1,C,space,0.3274,,,,,,,,,,,
,,,,,R_3yX8C7jDLuZOKS5,001,2025-09-15_15h41.43.480,continuous_performance_test,2024.2.4,Win32,59.52380952,21d35f91-28b9-4bc5-9adb-7195fb09dad6,2,147.4466,149.2946,space,1,0,6,6,20,1,U,space,0.4415,,,,,,,,,,,
,,,,,R_3yX8C7jDLuZOKS5,001,2025-09-15_15h41.43.480,continuous_performance_test,2024.2.4,Win32,59.52380952,21d35f91-28b9-4bc5-9adb-7195fb09dad6,2,149.2957,150.8475,,1,0,7,7,29,1,X,,,,,,,,,,,,,
,,,,,R_3yX8C7jDLuZOKS5,001,2025-09-15_15h41.43.480,continuous_performance_test,2024.2.4,Win32,59.52380952,21d35f91-28b9-4bc5-9adb-7195fb09dad6,2,150.8485,152.5936,space,1,0,8,8,7,1,H,space,0.4084,,,,,,,,,,,
,,,,,R_3yX8C7jDLuZOKS5,001,2025-09-15_15h41.43.480,continuous_performance_test,2024.2.4,Win32,59.52380952,21d35f91-28b9-4bc5-9adb-7195fb09dad6,2,152.5948,154.1925,space,1,0,9,9,8,1,I,space,0.4211,,,,,,,,,,,
,,,,,R_3yX8C7jDLuZOKS5,001,2025-09-15_15h41.43.480,continuous_performance_test,2024.2.4,Win32,59.52380952,21d35f91-28b9-4bc5-9adb-7195fb09dad6,2,154.1941,156.1449,space,1,0,10,10,10,1,K,space,0.3187,,,,,,,,,,,
,,,,,R_3yX8C7jDLuZOKS5,001,2025-09-15_15h41.43.480,continuous_performance_test,2024.2.4,Win32,59.52380952,21d35f91-28b9-4bc5-9adb-7195fb09dad6,2,156.1459,158.0917,space,1,0,11,11,23,1,Y,space,0.4734,,,,,,,,,,,
,,,,,R_3yX8C7jDLuZOKS5,001,2025-09-15_15h41.43.480,continuous_performance_test,2024.2.4,Win32,59.52380952,21d35f91-28b9-4bc5-9adb-7195fb09dad6,2,158.0928,159.8403,space,1,0,12,12,21,1,V,space,0.3388,,,,,,,,,,,
,,,,,R_3yX8C7jDLuZOKS5,001,2025-09-15_15h41.43.480,continuous_performance_test,2024.2.4,Win32,59.52380952,21d35f91-28b9-4bc5-9adb-7195fb09dad6,2,159.8416,161.5405,space,1,0,13,13,9,1,J,space,0.387,,,,,,,,,,,
,,,,,R_3yX8C7jDLuZOKS5,001,2025-09-15_15h41.43.480,continuous_performance_test,2024.2.4,Win32,59.52380952,21d35f91-28b9-4bc5-9adb-7195fb09dad6,2,161.5412,163.2916,space,1,0,14,14,5,1,F,space,0.3834,,,,,,,,,,,
,,,,,R_3yX8C7jDLuZOKS5,001,2025-09-15_15h41.43.480,continuous_performance_test,2024.2.4,Win32,59.52380952,21d35f91-28b9-4bc5-9adb-7195fb09dad6,2,163.2931,165.2392,space,1,0,15,15,17,1,R,space,0.3898,,,,,,,,,,,
,,,,,R_3yX8C7jDLuZOKS5,001,2025-09-15_15h41.43.480,continuous_performance_test,2024.2.4,Win32,59.52380952,21d35f91-28b9-4bc5-9adb-7195fb09dad6,2,165.2406,166.7889,space,1,0,16,16,4,1,E,space,0.5608,,,,,,,,,,,
,,,,,R_3yX8C7jDLuZOKS5,001,2025-09-15_15h41.43.480,continuous_performance_test,2024.2.4,Win32,59.52380952,21d35f91-28b9-4bc5-9adb-7195fb09dad6,2,166.7902,168.6382,space,1,0,17,17,12,1,M,space,0.3629,,,,,,,,,,,
,,,,,R_3yX8C7jDLuZOKS5,001,2025-09-15_15h41.43.480,continuous_performance_test,2024.2.4,Win32,59.52380952,21d35f91-28b9-4bc5-9adb-7195fb09dad6,2,168.6391,170.2874,space,1,0,18,18,13,1,N,space,0.4665,,,,,,,,,,,
,,,,,R_3yX8C7jDLuZOKS5,001,2025-09-15_15h41.43.480,continuous_performance_test,2024.2.4,Win32,59.52380952,21d35f91-28b9-4bc5-9adb-7195fb09dad6,2,170.2886,172.0368,space,1,0,19,19,11,1,L,space,0.4264,,,,,,,,,,,
,,,,,R_3yX8C7jDLuZOKS5,001,2025-09-15_15h41.43.480,continuous_performance_test,2024.2.4,Win32,59.52380952,21d35f91-28b9-4bc5-9adb-7195fb09dad6,2,172.0379,173.7394,space,1,0,20,20,18,1,S,space,0.4193,,,,,,,,,,,
,,,,,R_3yX8C7jDLuZOKS5,001,2025-09-15_15h41.43.480,continuous_performance_test,2024.2.4,Win32,59.52380952,21d35f91-28b9-4bc5-9adb-7195fb09dad6,2,173.7404,175.3355,,1,0,21,21,27,1,X,,,,,,,,,,,,,
,,,,,R_3yX8C7jDLuZOKS5,001,2025-09-15_15h41.43.480,continuous_performance_test,2024.2.4,Win32,59.52380952,21d35f91-28b9-4bc5-9adb-7195fb09dad6,2,175.3371,177.2849,space,1,0,22,22,24,1,Z,space,0.4448,,,,,,,,,,,
,,,,,R_3yX8C7jDLuZOKS5,001,2025-09-15_15h41.43.480,continuous_performance_test,2024.2.4,Win32,59.52380952,21d35f91-28b9-4bc5-9adb-7195fb09dad6,2,177.2858,179.2343,space,1,0,23,23,19,1,T,space,0.4012,,,,,,,,,,,
,,,,,R_3yX8C7jDLuZOKS5,001,2025-09-15_15h41.43.480,continuous_performance_test,2024.2.4,Win32,59.52380952,21d35f91-28b9-4bc5-9adb-7195fb09dad6,2,179.2355,180.8343,space,1,0,24,24,0,1,A,space,0.4056,,,,,,,,,,,
,,,,,R_3yX8C7jDLuZOKS5,001,2025-09-15_15h41.43.480,continuous_performance_test,2024.2.4,Win32,59.52380952,21d35f91-28b9-4bc5-9adb-7195fb09dad6,2,180.8351,182.3831,,1,0,25,25,25,1,X,,,,,,,,,,,,,
,,,,,R_3yX8C7jDLuZOKS5,001,2025-09-15_15h41.43.480,continuous_performance_test,2024.2.4,Win32,59.52380952,21d35f91-28b9-4bc5-9adb-7195fb09dad6,2,182.3843,184.0331,,1,0,26,26,28,1,X,,,,,,,,,,,,,
,,,,,R_3yX8C7jDLuZOKS5,001,2025-09-15_15h41.43.480,continuous_performance_test,2024.2.4,Win32,59.52380952,21d35f91-28b9-4bc5-9adb-7195fb09dad6,2,184.0345,185.8821,space,1,0,27,27,16,1,Q,space,0.3258,,,,,,,,,,,
,,,,,R_3yX8C7jDLuZOKS5,001,2025-09-15_15h41.43.480,continuous_performance_test,2024.2.4,Win32,59.52380952,21d35f91-28b9-4bc5-9adb-7195fb09dad6,2,185.8831,187.4818,space,1,0,28,28,22,1,W,space,0.3014,,,,,,,,,,,
,,,,,R_3yX8C7jDLuZOKS5,001,2025-09-15_15h41.43.480,continuous_performance_test,2024.2.4,Win32,59.52380952,21d35f91-28b9-4bc5-9adb-7195fb09dad6,2,187.4827,189.3309,space,1,0,29,29,1,1,B,space,0.2903,,,,,,,,,,,
,,,,,R_3yX8C7jDLuZOKS5,001,2025-09-15_15h41.43.480,continuous_performance_test,2024.2.4,Win32,59.52380952,21d35f91-28b9-4bc5-9adb-7195fb09dad6,2,198.0497,199.6944,space,0,0,0,0,27,1,X,,0.3389,,189.332,198.0444,space,8.6922,,,,,,
,,,,,R_3yX8C7jDLuZOKS5,001,2025-09-15_15h41.43.480,continuous_performance_test,2024.2.4,Win32,59.52380952,21d35f91-28b9-4bc5-9adb-7195fb09dad6,2,199.6958,201.4974,space,1,0,1,1,16,1,Q,space,0.3115,,,,,,,,,,,
,,,,,R_3yX8C7jDLuZOKS5,001,2025-09-15_15h41.43.480,continuous_performance_test,2024.2.4,Win32,59.52380952,21d35f91-28b9-4bc5-9adb-7195fb09dad6,2,201.4983,203.2934,space,1,0,2,2,10,1,K,space,0.3809,,,,,,,,,,,
,,,,,R_3yX8C7jDLuZOKS5,001,2025-09-15_15h41.43.480,continuous_performance_test,2024.2.4,Win32,59.52380952,21d35f91-28b9-4bc5-9adb-7195fb09dad6,2,203.2947,204.8418,space,1,0,3,3,11,1,L,space,0.3855,,,,,,,,,,,
,,,,,R_3yX8C7jDLuZOKS5,001,2025-09-15_15h41.43.480,continuous_performance_test,2024.2.4,Win32,59.52380952,21d35f91-28b9-4bc5-9adb-7195fb09dad6,2,204.8431,206.542,space,1,0,4,4,4,1,E,space,0.3945,,,,,,,,,,,
,,,,,R_3yX8C7jDLuZOKS5,001,2025-09-15_15h41.43.480,continuous_performance_test,2024.2.4,Win32,59.52380952,21d35f91-28b9-4bc5-9adb-7195fb09dad6,2,206.5431,208.295,space,1,0,5,5,22,1,W,space,0.3884,,,,,,,,,,,
,,,,,R_3yX8C7jDLuZOKS5,001,2025-09-15_15h41.43.480,continuous_performance_test,2024.2.4,Win32,59.52380952,21d35f91-28b9-4bc5-9adb-7195fb09dad6,2,208.2963,210.2402,space,0,0,6,6,28,1,X,,0.3524,,,,,,,,,,,
,,,,,R_3yX8C7jDLuZOKS5,001,2025-09-15_15h41.43.480,continuous_performance_test,2024.2.4,Win32,59.52380952,21d35f91-28b9-4bc5-9adb-7195fb09dad6,2,210.2413,211.8894,space,1,0,7,7,13,1,N,space,0.3952,,,,,,,,,,,
,,,,,R_3yX8C7jDLuZOKS5,001,2025-09-15_15h41.43.480,continuous_performance_test,2024.2.4,Win32,59.52380952,21d35f91-28b9-4bc5-9adb-7195fb09dad6,2,211.8906,213.5896,,1,0,8,8,29,1,X,,,,,,,,,,,,,
,,,,,R_3yX8C7jDLuZOKS5,001,2025-09-15_15h41.43.480,continuous_performance_test,2024.2.4,Win32,59.52380952,21d35f91-28b9-4bc5-9adb-7195fb09dad6,2,213.5907,215.3388,space,1,0,9,9,2,1,C,space,0.3683,,,,,,,,,,,
,,,,,R_3yX8C7jDLuZOKS5,001,2025-09-15_15h41.43.480,continuous_performance_test,2024.2.4,Win32,59.52380952,21d35f91-28b9-4bc5-9adb-7195fb09dad6,2,215.3402,217.2385,space,1,0,10,10,21,1,V,space,0.4425,,,,,,,,,,,
,,,,,R_3yX8C7jDLuZOKS5,001,2025-09-15_15h41.43.480,continuous_performance_test,2024.2.4,Win32,59.52380952,21d35f91-28b9-4bc5-9adb-7195fb09dad6,2,217.2394,219.0376,space,1,0,11,11,3,1,D,space,0.3247,,,,,,,,,,,
,,,,,R_3yX8C7jDLuZOKS5,001,2025-09-15_15h41.43.480,continuous_performance_test,2024.2.4,Win32,59.52380952,21d35f91-28b9-4bc5-9adb-7195fb09dad6,2,219.039,221.0369,space,1,0,12,12,9,1,J,space,0.3776,,,,,,,,,,,
,,,,,R_3yX8C7jDLuZOKS5,001,2025-09-15_15h41.43.480,continuous_performance_test,2024.2.4,Win32,59.52380952,21d35f91-28b9-4bc5-9adb-7195fb09dad6,2,221.0379,222.7865,space,1,0,13,13,23,1,Y,space,0.4098,,,,,,,,,,,
,,,,,R_3yX8C7jDLuZOKS5,001,2025-09-15_15h41.43.480,continuous_performance_test,2024.2.4,Win32,59.52380952,21d35f91-28b9-4bc5-9adb-7195fb09dad6,2,222.7877,224.7855,space,1,0,14,14,5,1,F,space,0.3773,,,,,,,,,,,
,,,,,R_3yX8C7jDLuZOKS5,001,2025-09-15_15h41.43.480,continuous_performance_test,2024.2.4,Win32,59.52380952,21d35f91-28b9-4bc5-9adb-7195fb09dad6,2,224.7869,226.6887,space,1,0,15,15,1,1,B,space,0.3757,,,,,,,,,,,
,,,,,R_3yX8C7jDLuZOKS5,001,2025-09-15_15h41.43.480,continuous_performance_test,2024.2.4,Win32,59.52380952,21d35f91-28b9-4bc5-9adb-7195fb09dad6,2,226.6898,228.584,space,1,0,16,16,14,1,O,space,0.4893,,,,,,,,,,,
,,,,,R_3yX8C7jDLuZOKS5,001,2025-09-15_15h41.43.480,continuous_performance_test,2024.2.4,Win32,59.52380952,21d35f91-28b9-4bc5-9adb-7195fb09dad6,2,228.5851,230.4834,space,1,0,17,17,17,1,R,space,0.4208,,,,,,,,,,,
,,,,,R_3yX8C7jDLuZOKS5,001,2025-09-15_15h41.43.480,continuous_performance_test,2024.2.4,Win32,59.52380952,21d35f91-28b9-4bc5-9adb-7195fb09dad6,2,230.4849,232.187,space,1,0,18,18,20,1,U,space,0.3587,,,,,,,,,,,
,,,,,R_3yX8C7jDLuZOKS5,001,2025-09-15_15h41.43.480,continuous_performance_test,2024.2.4,Win32,59.52380952,21d35f91-28b9-4bc5-9adb-7195fb09dad6,2,232.188,233.8363,space,1,0,19,19,18,1,S,space,0.3768,,,,,,,,,,,
,,,,,R_3yX8C7jDLuZOKS5,001,2025-09-15_15h41.43.480,continuous_performance_test,2024.2.4,Win32,59.52380952,21d35f91-28b9-4bc5-9adb-7195fb09dad6,2,233.8373,235.6319,,1,0,20,20,26,1,X,,,,,,,,,,,,,
,,,,,R_3yX8C7jDLuZOKS5,001,2025-09-15_15h41.43.480,continuous_performance_test,2024.2.4,Win32,59.52380952,21d35f91-28b9-4bc5-9adb-7195fb09dad6,2,235.633,237.6313,space,1,0,21,21,6,1,G,space,0.3562,,,,,,,,,,,
,,,,,R_3yX8C7jDLuZOKS5,001,2025-09-15_15h41.43.480,continuous_performance_test,2024.2.4,Win32,59.52380952,21d35f91-28b9-4bc5-9adb-7195fb09dad6,2,237.6323,239.2811,space,1,0,22,22,15,1,P,space,0.4236,,,,,,,,,,,
,,,,,R_3yX8C7jDLuZOKS5,001,2025-09-15_15h41.43.480,continuous_performance_test,2024.2.4,Win32,59.52380952,21d35f91-28b9-4bc5-9adb-7195fb09dad6,2,239.282,241.1302,space,1,0,23,23,0,1,A,space,0.4112,,,,,,,,,,,
,,,,,R_3yX8C7jDLuZOKS5,001,2025-09-15_15h41.43.480,continuous_performance_test,2024.2.4,Win32,59.52380952,21d35f91-28b9-4bc5-9adb-7195fb09dad6,2,241.1311,242.9802,space,1,0,24,24,12,1,M,space,0.3251,,,,,,,,,,,
,,,,,R_3yX8C7jDLuZOKS5,001,2025-09-15_15h41.43.480,continuous_performance_test,2024.2.4,Win32,59.52380952,21d35f91-28b9-4bc5-9adb-7195fb09dad6,2,242.9812,244.6795,space,1,0,25,25,24,1,Z,space,0.361,,,,,,,,,,,
,,,,,R_3yX8C7jDLuZOKS5,001,2025-09-15_15h41.43.480,continuous_performance_test,2024.2.4,Win32,59.52380952,21d35f91-28b9-4bc5-9adb-7195fb09dad6,2,244.6805,246.4783,,1,0,26,26,25,1,X,,,,,,,,,,,,,
,,,,,R_3yX8C7jDLuZOKS5,001,2025-09-15_15h41.43.480,continuous_performance_test,2024.2.4,Win32,59.52380952,21d35f91-28b9-4bc5-9adb-7195fb09dad6,2,246.4798,248.3278,space,1,0,27,27,8,1,I,space,0.5174,,,,,,,,,,,
,,,,,R_3yX8C7jDLuZOKS5,001,2025-09-15_15h41.43.480,continuous_performance_test,2024.2.4,Win32,59.52380952,21d35f91-28b9-4bc5-9adb-7195fb09dad6,2,248.3291,250.2771,space,1,0,28,28,19,1,T,space,0.3645,,,,,,,,,,,
,,,,,R_3yX8C7jDLuZOKS5,001,2025-09-15_15h41.43.480,continuous_performance_test,2024.2.4,Win32,59.52380952,21d35f91-28b9-4bc5-9adb-7195fb09dad6,2,250.2784,252.0764,space,1,0,29,29,7,1,H,space,0.3669,,,,,,,,,,,
,,,,,R_3yX8C7jDLuZOKS5,001,2025-09-15_15h41.43.480,continuous_performance_test,2024.2.4,Win32,59.52380952,21d35f91-28b9-4bc5-9adb-7195fb09dad6,2,267.0784,268.821,,0,0,0,0,23,1,Y,space,,,252.0774,267.0714,,,,,,,,
,,,,,R_3yX8C7jDLuZOKS5,001,2025-09-15_15h41.43.480,continuous_performance_test,2024.2.4,Win32,59.52380952,21d35f91-28b9-4bc5-9adb-7195fb09dad6,2,268.822,270.4738,space,1,0,1,1,20,1,U,space,0.7168,,,,,,,,,,,
,,,,,R_3yX8C7jDLuZOKS5,001,2025-09-15_15h41.43.480,continuous_performance_test,2024.2.4,Win32,59.52380952,21d35f91-28b9-4bc5-9adb-7195fb09dad6,2,270.4748,272.0702,space,0,0,2,2,27,1,X,,0.3669,,,,,,,,,,,
,,,,,R_3yX8C7jDLuZOKS5,001,2025-09-15_15h41.43.480,continuous_performance_test,2024.2.4,Win32,59.52380952,21d35f91-28b9-4bc5-9adb-7195fb09dad6,2,272.0714,273.7694,space,1,0,3,3,8,1,I,space,0.3478,,,,,,,,,,,
,,,,,R_3yX8C7jDLuZOKS5,001,2025-09-15_15h41.43.480,continuous_performance_test,2024.2.4,Win32,59.52380952,21d35f91-28b9-4bc5-9adb-7195fb09dad6,2,273.7707,275.7186,space,1,0,4,4,1,1,B,space,0.3482,,,,,,,,,,,
,,,,,R_3yX8C7jDLuZOKS5,001,2025-09-15_15h41.43.480,continuous_performance_test,2024.2.4,Win32,59.52380952,21d35f91-28b9-4bc5-9adb-7195fb09dad6,2,275.7196,277.4179,space,1,0,5,5,24,1,Z,space,0.3021,,,,,,,,,,,
,,,,,R_3yX8C7jDLuZOKS5,001,2025-09-15_15h41.43.480,continuous_performance_test,2024.2.4,Win32,59.52380952,21d35f91-28b9-4bc5-9adb-7195fb09dad6,2,277.4191,279.2712,space,1,0,6,6,3,1,D,space,0.3201,,,,,,,,,,,
,,,,,R_3yX8C7jDLuZOKS5,001,2025-09-15_15h41.43.480,continuous_performance_test,2024.2.4,Win32,59.52380952,21d35f91-28b9-4bc5-9adb-7195fb09dad6,2,279.2722,280.8169,space,1,0,7,7,15,1,P,space,0.4001,,,,,,,,,,,
,,,,,R_3yX8C7jDLuZOKS5,001,2025-09-15_15h41.43.480,continuous_performance_test,2024.2.4,Win32,59.52380952,21d35f91-28b9-4bc5-9adb-7195fb09dad6,2,280.8178,282.4161,space,1,0,8,8,16,1,Q,space,0.3481,,,,,,,,,,,
,,,,,R_3yX8C7jDLuZOKS5,001,2025-09-15_15h41.43.480,continuous_performance_test,2024.2.4,Win32,59.52380952,21d35f91-28b9-4bc5-9adb-7195fb09dad6,2,282.4172,284.2654,space,1,0,9,9,19,1,T,space,0.3506,,,,,,,,,,,
,,,,,R_3yX8C7jDLuZOKS5,001,2025-09-15_15h41.43.480,continuous_performance_test,2024.2.4,Win32,59.52380952,21d35f91-28b9-4bc5-9adb-7195fb09dad6,2,284.2667,286.1645,,1,0,10,10,28,1,X,,,,,,,,,,,,,
,,,,,R_3yX8C7jDLuZOKS5,001,2025-09-15_15h41.43.480,continuous_performance_test,2024.2.4,Win32,59.52380952,21d35f91-28b9-4bc5-9adb-7195fb09dad6,2,286.1661,287.9642,space,1,0,11,11,14,1,O,space,0.5225,,,,,,,,,,,
,,,,,R_3yX8C7jDLuZOKS5,001,2025-09-15_15h41.43.480,continuous_performance_test,2024.2.4,Win32,59.52380952,21d35f91-28b9-4bc5-9adb-7195fb09dad6,2,287.9652,289.5646,space,1,0,12,12,7,1,H,space,0.4309,,,,,,,,,,,
,,,,,R_3yX8C7jDLuZOKS5,001,2025-09-15_15h41.43.480,continuous_performance_test,2024.2.4,Win32,59.52380952,21d35f91-28b9-4bc5-9adb-7195fb09dad6,2,289.5653,291.3132,space,1,0,13,13,17,1,R,space,0.3878,,,,,,,,,,,
,,,,,R_3yX8C7jDLuZOKS5,001,2025-09-15_15h41.43.480,continuous_performance_test,2024.2.4,Win32,59.52380952,21d35f91-28b9-4bc5-9adb-7195fb09dad6,2,291.3148,292.9129,space,1,0,14,14,13,1,N,space,0.3838,,,,,,,,,,,
,,,,,R_3yX8C7jDLuZOKS5,001,2025-09-15_15h41.43.480,continuous_performance_test,2024.2.4,Win32,59.52380952,21d35f91-28b9-4bc5-9adb-7195fb09dad6,2,292.9137,294.9118,space,1,0,15,15,12,1,M,space,0.4181,,,,,,,,,,,
,,,,,R_3yX8C7jDLuZOKS5,001,2025-09-15_15h41.43.480,continuous_performance_test,2024.2.4,Win32,59.52380952,21d35f91-28b9-4bc5-9adb-7195fb09dad6,2,294.9133,296.6115,space,1,0,16,16,21,1,V,space,0.4855,,,,,,,,,,,
,,,,,R_3yX8C7jDLuZOKS5,001,2025-09-15_15h41.43.480,continuous_performance_test,2024.2.4,Win32,59.52380952,21d35f91-28b9-4bc5-9adb-7195fb09dad6,2,296.6125,298.411,space,1,0,17,17,9,1,J,space,0.4533,,,,,,,,,,,
,,,,,R_3yX8C7jDLuZOKS5,001,2025-09-15_15h41.43.480,continuous_performance_test,2024.2.4,Win32,59.52380952,21d35f91-28b9-4bc5-9adb-7195fb09dad6,2,298.4123,300.1638,space,1,0,18,18,22,1,W,space,0.3661,,,,,,,,,,,
,,,,,R_3yX8C7jDLuZOKS5,001,2025-09-15_15h41.43.480,continuous_performance_test,2024.2.4,Win32,59.52380952,21d35f91-28b9-4bc5-9adb-7195fb09dad6,2,300.1647,302.1632,space,1,0,19,19,2,1,C,space,0.3219,,,,,,,,,,,
,,,,,R_3yX8C7jDLuZOKS5,001,2025-09-15_15h41.43.480,continuous_performance_test,2024.2.4,Win32,59.52380952,21d35f91-28b9-4bc5-9adb-7195fb09dad6,2,302.1642,303.8093,space,1,0,20,20,0,1,A,space,0.3176,,,,,,,,,,,
,,,,,R_3yX8C7jDLuZOKS5,001,2025-09-15_15h41.43.480,continuous_performance_test,2024.2.4,Win32,59.52380952,21d35f91-28b9-4bc5-9adb-7195fb09dad6,2,303.8105,305.7087,space,0,0,21,21,26,1,X,,0.2936,,,,,,,,,,,
,,,,,R_3yX8C7jDLuZOKS5,001,2025-09-15_15h41.43.480,continuous_performance_test,2024.2.4,Win32,59.52380952,21d35f91-28b9-4bc5-9adb-7195fb09dad6,2,305.7099,307.2576,space,1,0,22,22,6,1,G,space,0.4354,,,,,,,,,,,
,,,,,R_3yX8C7jDLuZOKS5,001,2025-09-15_15h41.43.480,continuous_performance_test,2024.2.4,Win32,59.52380952,21d35f91-28b9-4bc5-9adb-7195fb09dad6,2,307.2591,308.9098,space,1,0,23,23,11,1,L,space,0.4133,,,,,,,,,,,
,,,,,R_3yX8C7jDLuZOKS5,001,2025-09-15_15h41.43.480,continuous_performance_test,2024.2.4,Win32,59.52380952,21d35f91-28b9-4bc5-9adb-7195fb09dad6,2,308.9111,310.5067,space,1,0,24,24,4,1,E,space,0.4377,,,,,,,,,,,
,,,,,R_3yX8C7jDLuZOKS5,001,2025-09-15_15h41.43.480,continuous_performance_test,2024.2.4,Win32,59.52380952,21d35f91-28b9-4bc5-9adb-7195fb09dad6,2,310.5082,312.4065,,1,0,25,25,29,1,X,,,,,,,,,,,,,
,,,,,R_3yX8C7jDLuZOKS5,001,2025-09-15_15h41.43.480,continuous_performance_test,2024.2.4,Win32,59.52380952,21d35f91-28b9-4bc5-9adb-7195fb09dad6,2,312.4075,314.2554,space,1,0,26,26,18,1,S,space,0.3663,,,,,,,,,,,
,,,,,R_3yX8C7jDLuZOKS5,001,2025-09-15_15h41.43.480,continuous_performance_test,2024.2.4,Win32,59.52380952,21d35f91-28b9-4bc5-9adb-7195fb09dad6,2,314.2569,315.9549,,1,0,27,27,25,1,X,,,,,,,,,,,,,
,,,,,R_3yX8C7jDLuZOKS5,001,2025-09-15_15h41.43.480,continuous_performance_test,2024.2.4,Win32,59.52380952,21d35f91-28b9-4bc5-9adb-7195fb09dad6,2,315.9564,317.8547,space,1,0,28,28,5,1,F,space,0.35,,,,,,,,,,,
,,,,,R_3yX8C7jDLuZOKS5,001,2025-09-15_15h41.43.480,continuous_performance_test,2024.2.4,Win32,59.52380952,21d35f91-28b9-4bc5-9adb-7195fb09dad6,2,317.8561,319.6576,space,1,0,29,29,10,1,K,space,0.4003,,,,,,,,,,,
,,,,,R_3yX8C7jDLuZOKS5,001,2025-09-15_15h41.43.480,continuous_performance_test,2024.2.4,Win32,59.52380952,21d35f91-28b9-4bc5-9adb-7195fb09dad6,2,334.655,336.4978,,1,0,0,0,27,1,X,,,,319.6583,334.6487,,,,,,,,
,,,,,R_3yX8C7jDLuZOKS5,001,2025-09-15_15h41.43.480,continuous_performance_test,2024.2.4,Win32,59.52380952,21d35f91-28b9-4bc5-9adb-7195fb09dad6,2,336.4988,338.2476,space,1,0,1,1,11,1,L,space,0.4446,,,,,,,,,,,
,,,,,R_3yX8C7jDLuZOKS5,001,2025-09-15_15h41.43.480,continuous_performance_test,2024.2.4,Win32,59.52380952,21d35f91-28b9-4bc5-9adb-7195fb09dad6,2,338.2485,339.7966,space,1,0,2,2,1,1,B,space,0.3884,,,,,,,,,,,
,,,,,R_3yX8C7jDLuZOKS5,001,2025-09-15_15h41.43.480,continuous_performance_test,2024.2.4,Win32,59.52380952,21d35f91-28b9-4bc5-9adb-7195fb09dad6,2,339.798,341.6963,space,1,0,3,3,15,1,P,space,0.3242,,,,,,,,,,,
,,,,,R_3yX8C7jDLuZOKS5,001,2025-09-15_15h41.43.480,continuous_performance_test,2024.2.4,Win32,59.52380952,21d35f91-28b9-4bc5-9adb-7195fb09dad6,2,341.6974,343.2456,space,1,0,4,4,9,1,J,space,0.4017,,,,,,,,,,,
,,,,,R_3yX8C7jDLuZOKS5,001,2025-09-15_15h41.43.480,continuous_performance_test,2024.2.4,Win32,59.52380952,21d35f91-28b9-4bc5-9adb-7195fb09dad6,2,343.2467,345.145,space,1,0,5,5,3,1,D,space,0.3344,,,,,,,,,,,
,,,,,R_3yX8C7jDLuZOKS5,001,2025-09-15_15h41.43.480,continuous_performance_test,2024.2.4,Win32,59.52380952,21d35f91-28b9-4bc5-9adb-7195fb09dad6,2,345.1461,346.847,space,1,0,6,6,13,1,N,space,0.3767,,,,,,,,,,,
,,,,,R_3yX8C7jDLuZOKS5,001,2025-09-15_15h41.43.480,continuous_performance_test,2024.2.4,Win32,59.52380952,21d35f91-28b9-4bc5-9adb-7195fb09dad6,2,346.8481,348.7939,space,1,0,7,7,7,1,H,space,0.385,,,,,,,,,,,
,,,,,R_3yX8C7jDLuZOKS5,001,2025-09-15_15h41.43.480,continuous_performance_test,2024.2.4,Win32,59.52380952,21d35f91-28b9-4bc5-9adb-7195fb09dad6,2,348.795,350.6932,space,1,0,8,8,22,1,W,space,0.3179,,,,,,,,,,,
,,,,,R_3yX8C7jDLuZOKS5,001,2025-09-15_15h41.43.480,continuous_performance_test,2024.2.4,Win32,59.52380952,21d35f91-28b9-4bc5-9adb-7195fb09dad6,2,350.6948,352.2924,space,1,0,9,9,24,1,Z,space,0.3899,,,,,,,,,,,
,,,,,R_3yX8C7jDLuZOKS5,001,2025-09-15_15h41.43.480,continuous_performance_test,2024.2.4,Win32,59.52380952,21d35f91-28b9-4bc5-9adb-7195fb09dad6,2,352.2937,354.043,space,1,0,10,10,5,1,F,space,0.4339,,,,,,,,,,,
,,,,,R_3yX8C7jDLuZOKS5,001,2025-09-15_15h41.43.480,continuous_performance_test,2024.2.4,Win32,59.52380952,21d35f91-28b9-4bc5-9adb-7195fb09dad6,2,354.0441,355.6413,,1,0,11,11,26,1,X,,,,,,,,,,,,,
,,,,,R_3yX8C7jDLuZOKS5,001,2025-09-15_15h41.43.480,continuous_performance_test,2024.2.4,Win32,59.52380952,21d35f91-28b9-4bc5-9adb-7195fb09dad6,2,355.6424,357.4449,space,1,0,12,12,20,1,U,space,0.4159,,,,,,,,,,,
,,,,,R_3yX8C7jDLuZOKS5,001,2025-09-15_15h41.43.480,continuous_performance_test,2024.2.4,Win32,59.52380952,21d35f91-28b9-4bc5-9adb-7195fb09dad6,2,357.4465,359.1405,space,0,0,13,13,29,1,X,,0.3092,,,,,,,,,,,
,,,,,R_3yX8C7jDLuZOKS5,001,2025-09-15_15h41.43.480,continuous_performance_test,2024.2.4,Win32,59.52380952,21d35f91-28b9-4bc5-9adb-7195fb09dad6,2,359.1417,361.142,space,1,0,14,14,18,1,S,space,0.352,,,,,,,,,,,
,,,,,R_3yX8C7jDLuZOKS5,001,2025-09-15_15h41.43.480,continuous_performance_test,2024.2.4,Win32,59.52380952,21d35f91-28b9-4bc5-9adb-7195fb09dad6,2,361.1429,363.0887,space,1,0,15,15,12,1,M,space,0.3345,,,,,,,,,,,
,,,,,R_3yX8C7jDLuZOKS5,001,2025-09-15_15h41.43.480,continuous_performance_test,2024.2.4,Win32,59.52380952,21d35f91-28b9-4bc5-9adb-7195fb09dad6,2,363.0899,365.0386,,1,0,16,16,28,1,X,,,,,,,,,,,,,
,,,,,R_3yX8C7jDLuZOKS5,001,2025-09-15_15h41.43.480,continuous_performance_test,2024.2.4,Win32,59.52380952,21d35f91-28b9-4bc5-9adb-7195fb09dad6,2,365.0396,366.5912,space,1,0,17,17,8,1,I,space,0.4509,,,,,,,,,,,
,,,,,R_3yX8C7jDLuZOKS5,001,2025-09-15_15h41.43.480,continuous_performance_test,2024.2.4,Win32,59.52380952,21d35f91-28b9-4bc5-9adb-7195fb09dad6,2,366.5919,368.2871,,1,0,18,18,25,1,X,,,,,,,,,,,,,
,,,,,R_3yX8C7jDLuZOKS5,001,2025-09-15_15h41.43.480,continuous_performance_test,2024.2.4,Win32,59.52380952,21d35f91-28b9-4bc5-9adb-7195fb09dad6,2,368.288,370.2868,space,1,0,19,19,2,1,C,space,0.3395,,,,,,,,,,,
,,,,,R_3yX8C7jDLuZOKS5,001,2025-09-15_15h41.43.480,continuous_performance_test,2024.2.4,Win32,59.52380952,21d35f91-28b9-4bc5-9adb-7195fb09dad6,2,370.2878,372.2393,space,1,0,20,20,4,1,E,space,0.3873,,,,,,,,,,,
,,,,,R_3yX8C7jDLuZOKS5,001,2025-09-15_15h41.43.480,continuous_performance_test,2024.2.4,Win32,59.52380952,21d35f91-28b9-4bc5-9adb-7195fb09dad6,2,372.2404,374.1852,space,1,0,21,21,6,1,G,space,0.4175,,,,,,,,,,,
,,,,,R_3yX8C7jDLuZOKS5,001,2025-09-15_15h41.43.480,continuous_performance_test,2024.2.4,Win32,59.52380952,21d35f91-28b9-4bc5-9adb-7195fb09dad6,2,374.1863,375.8847,space,1,0,22,22,10,1,K,space,0.4877,,,,,,,,,,,
,,,,,R_3yX8C7jDLuZOKS5,001,2025-09-15_15h41.43.480,continuous_performance_test,2024.2.4,Win32,59.52380952,21d35f91-28b9-4bc5-9adb-7195fb09dad6,2,375.8859,377.8344,space,1,0,23,23,17,1,R,space,0.3506,,,,,,,,,,,
,,,,,R_3yX8C7jDLuZOKS5,001,2025-09-15_15h41.43.480,continuous_performance_test,2024.2.4,Win32,59.52380952,21d35f91-28b9-4bc5-9adb-7195fb09dad6,2,377.8356,379.384,space,1,0,24,24,0,1,A,space,0.4669,,,,,,,,,,,
,,,,,R_3yX8C7jDLuZOKS5,001,2025-09-15_15h41.43.480,continuous_performance_test,2024.2.4,Win32,59.52380952,21d35f91-28b9-4bc5-9adb-7195fb09dad6,2,379.3848,380.934,space,1,0,25,25,23,1,Y,space,0.5264,,,,,,,,,,,
,,,,,R_3yX8C7jDLuZOKS5,001,2025-09-15_15h41.43.480,continuous_performance_test,2024.2.4,Win32,59.52380952,21d35f91-28b9-4bc5-9adb-7195fb09dad6,2,380.9351,382.5324,space,1,0,26,26,14,1,O,space,0.4275,,,,,,,,,,,
,,,,,R_3yX8C7jDLuZOKS5,001,2025-09-15_15h41.43.480,continuous_performance_test,2024.2.4,Win32,59.52380952,21d35f91-28b9-4bc5-9adb-7195fb09dad6,2,382.5334,384.082,space,1,0,27,27,19,1,T,space,0.4737,,,,,,,,,,,
,,,,,R_3yX8C7jDLuZOKS5,001,2025-09-15_15h41.43.480,continuous_performance_test,2024.2.4,Win32,59.52380952,21d35f91-28b9-4bc5-9adb-7195fb09dad6,2,384.0828,385.7313,space,1,0,28,28,21,1,V,space,0.5858,,,,,,,,,,,
,,,,,R_3yX8C7jDLuZOKS5,001,2025-09-15_15h41.43.480,continuous_performance_test,2024.2.4,Win32,59.52380952,21d35f91-28b9-4bc5-9adb-7195fb09dad6,2,385.7324,387.4342,space,1,0,29,29,16,1,Q,space,0.4079,,,,,,,,,,,
,,,,,R_3yX8C7jDLuZOKS5,001,2025-09-15_15h41.43.480,continuous_performance_test,2024.2.4,Win32,59.52380952,21d35f91-28b9-4bc5-9adb-7195fb09dad6,2,402.4318,404.0249,,0,0,0,0,13,1,N,space,,,387.4349,402.4259,,,,,,,,
,,,,,R_3yX8C7jDLuZOKS5,001,2025-09-15_15h41.43.480,continuous_performance_test,2024.2.4,Win32,59.52380952,21d35f91-28b9-4bc5-9adb-7195fb09dad6,2,404.0261,405.9244,space,1,0,1,1,22,1,W,space,0.4005,,,,,,,,,,,
,,,,,R_3yX8C7jDLuZOKS5,001,2025-09-15_15h41.43.480,continuous_performance_test,2024.2.4,Win32,59.52380952,21d35f91-28b9-4bc5-9adb-7195fb09dad6,2,405.9253,407.8241,,1,0,2,2,26,1,X,,,,,,,,,,,,,
,,,,,R_3yX8C7jDLuZOKS5,001,2025-09-15_15h41.43.480,continuous_performance_test,2024.2.4,Win32,59.52380952,21d35f91-28b9-4bc5-9adb-7195fb09dad6,2,407.8253,409.8231,space,1,0,3,3,8,1,I,space,0.4511,,,,,,,,,,,
,,,,,R_3yX8C7jDLuZOKS5,001,2025-09-15_15h41.43.480,continuous_performance_test,2024.2.4,Win32,59.52380952,21d35f91-28b9-4bc5-9adb-7195fb09dad6,2,409.8242,411.8228,space,0,0,4,4,29,1,X,,0.3361,,,,,,,,,,,
,,,,,R_3yX8C7jDLuZOKS5,001,2025-09-15_15h41.43.480,continuous_performance_test,2024.2.4,Win32,59.52380952,21d35f91-28b9-4bc5-9adb-7195fb09dad6,2,411.8241,413.4218,space,1,0,5,5,9,1,J,space,0.4039,,,,,,,,,,,
,,,,,R_3yX8C7jDLuZOKS5,001,2025-09-15_15h41.43.480,continuous_performance_test,2024.2.4,Win32,59.52380952,21d35f91-28b9-4bc5-9adb-7195fb09dad6,2,413.4227,415.2208,,1,0,6,6,25,1,X,,,,,,,,,,,,,
,,,,,R_3yX8C7jDLuZOKS5,001,2025-09-15_15h41.43.480,continuous_performance_test,2024.2.4,Win32,59.52380952,21d35f91-28b9-4bc5-9adb-7195fb09dad6,2,415.2222,417.0202,space,1,0,7,7,7,1,H,space,0.344,,,,,,,,,,,
,,,,,R_3yX8C7jDLuZOKS5,001,2025-09-15_15h41.43.480,continuous_performance_test,2024.2.4,Win32,59.52380952,21d35f91-28b9-4bc5-9adb-7195fb09dad6,2,417.0215,418.5701,space,1,0,8,8,20,1,U,space,0.4182,,,,,,,,,,,
,,,,,R_3yX8C7jDLuZOKS5,001,2025-09-15_15h41.43.480,continuous_performance_test,2024.2.4,Win32,59.52380952,21d35f91-28b9-4bc5-9adb-7195fb09dad6,2,418.571,420.2738,space,1,0,9,9,23,1,Y,space,0.3512,,,,,,,,,,,
,,,,,R_3yX8C7jDLuZOKS5,001,2025-09-15_15h41.43.480,continuous_performance_test,2024.2.4,Win32,59.52380952,21d35f91-28b9-4bc5-9adb-7195fb09dad6,2,420.2751,422.1192,,1,0,10,10,27,1,X,,,,,,,,,,,,,
,,,,,R_3yX8C7jDLuZOKS5,001,2025-09-15_15h41.43.480,continuous_performance_test,2024.2.4,Win32,59.52380952,21d35f91-28b9-4bc5-9adb-7195fb09dad6,2,422.1203,423.7687,space,1,0,11,11,3,1,D,space,0.4284,,,,,,,,,,,
,,,,,R_3yX8C7jDLuZOKS5,001,2025-09-15_15h41.43.480,continuous_performance_test,2024.2.4,Win32,59.52380952,21d35f91-28b9-4bc5-9adb-7195fb09dad6,2,423.7697,425.5196,space,1,0,12,12,16,1,Q,space,0.4002,,,,,,,,,,,
,,,,,R_3yX8C7jDLuZOKS5,001,2025-09-15_15h41.43.480,continuous_performance_test,2024.2.4,Win32,59.52380952,21d35f91-28b9-4bc5-9adb-7195fb09dad6,2,425.5206,427.1671,space,1,0,13,13,10,1,K,space,0.3674,,,,,,,,,,,
,,,,,R_3yX8C7jDLuZOKS5,001,2025-09-15_15h41.43.480,continuous_performance_test,2024.2.4,Win32,59.52380952,21d35f91-28b9-4bc5-9adb-7195fb09dad6,2,427.1682,428.7668,,1,0,14,14,28,1,X,,,,,,,,,,,,,
,,,,,R_3yX8C7jDLuZOKS5,001,2025-09-15_15h41.43.480,continuous_performance_test,2024.2.4,Win32,59.52380952,21d35f91-28b9-4bc5-9adb-7195fb09dad6,2,428.7681,430.4664,space,1,0,15,15,12,1,M,space,0.4181,,,,,,,,,,,
,,,,,R_3yX8C7jDLuZOKS5,001,2025-09-15_15h41.43.480,continuous_performance_test,2024.2.4,Win32,59.52380952,21d35f91-28b9-4bc5-9adb-7195fb09dad6,2,430.4677,432.3152,space,1,0,16,16,5,1,F,space,0.3905,,,,,,,,,,,
,,,,,R_3yX8C7jDLuZOKS5,001,2025-09-15_15h41.43.480,continuous_performance_test,2024.2.4,Win32,59.52380952,21d35f91-28b9-4bc5-9adb-7195fb09dad6,2,432.3166,433.9151,space,1,0,17,17,15,1,P,space,0.3525,,,,,,,,,,,
,,,,,R_3yX8C7jDLuZOKS5,001,2025-09-15_15h41.43.480,continuous_performance_test,2024.2.4,Win32,59.52380952,21d35f91-28b9-4bc5-9adb-7195fb09dad6,2,433.9164,435.7646,space,1,0,18,18,2,1,C,space,0.3174,,,,,,,,,,,
,,,,,R_3yX8C7jDLuZOKS5,001,2025-09-15_15h41.43.480,continuous_performance_test,2024.2.4,Win32,59.52380952,21d35f91-28b9-4bc5-9adb-7195fb09dad6,2,435.7657,437.5141,space,1,0,19,19,1,1,B,space,0.3671,,,,,,,,,,,
,,,,,R_3yX8C7jDLuZOKS5,001,2025-09-15_15h41.43.480,continuous_performance_test,2024.2.4,Win32,59.52380952,21d35f91-28b9-4bc5-9adb-7195fb09dad6,2,437.5152,439.4162,space,1,0,20,20,21,1,V,space,0.4334,,,,,,,,,,,
,,,,,R_3yX8C7jDLuZOKS5,001,2025-09-15_15h41.43.480,continuous_performance_test,2024.2.4,Win32,59.52380952,21d35f91-28b9-4bc5-9adb-7195fb09dad6,2,439.4169,441.0625,space,1,0,21,21,4,1,E,space,0.4572,,,,,,,,,,,
,,,,,R_3yX8C7jDLuZOKS5,001,2025-09-15_15h41.43.480,continuous_performance_test,2024.2.4,Win32,59.52380952,21d35f91-28b9-4bc5-9adb-7195fb09dad6,2,441.0635,443.012,space,1,0,22,22,0,1,A,space,0.355,,,,,,,,,,,
,,,,,R_3yX8C7jDLuZOKS5,001,2025-09-15_15h41.43.480,continuous_performance_test,2024.2.4,Win32,59.52380952,21d35f91-28b9-4bc5-9adb-7195fb09dad6,2,443.0128,444.7115,space,1,0,23,23,14,1,O,space,0.439,,,,,,,,,,,
,,,,,R_3yX8C7jDLuZOKS5,001,2025-09-15_15h41.43.480,continuous_performance_test,2024.2.4,Win32,59.52380952,21d35f91-28b9-4bc5-9adb-7195fb09dad6,2,444.7129,446.7111,space,1,0,24,24,19,1,T,space,0.4001,,,,,,,,,,,
,,,,,R_3yX8C7jDLuZOKS5,001,2025-09-15_15h41.43.480,continuous_performance_test,2024.2.4,Win32,59.52380952,21d35f91-28b9-4bc5-9adb-7195fb09dad6,2,446.7124,448.6599,space,1,0,25,25,24,1,Z,space,0.494,,,,,,,,,,,
,,,,,R_3yX8C7jDLuZOKS5,001,2025-09-15_15h41.43.480,continuous_performance_test,2024.2.4,Win32,59.52380952,21d35f91-28b9-4bc5-9adb-7195fb09dad6,2,448.6611,450.6096,space,1,0,26,26,18,1,S,space,0.4914,,,,,,,,,,,
,,,,,R_3yX8C7jDLuZOKS5,001,2025-09-15_15h41.43.480,continuous_performance_test,2024.2.4,Win32,59.52380952,21d35f91-28b9-4bc5-9adb-7195fb09dad6,2,450.6107,452.4089,space,1,0,27,27,17,1,R,space,0.4735,,,,,,,,,,,
,,,,,R_3yX8C7jDLuZOKS5,001,2025-09-15_15h41.43.480,continuous_performance_test,2024.2.4,Win32,59.52380952,21d35f91-28b9-4bc5-9adb-7195fb09dad6,2,452.4097,454.1084,space,1,0,28,28,11,1,L,space,0.4336,,,,,,,,,,,
,,,,,R_3yX8C7jDLuZOKS5,001,2025-09-15_15h41.43.480,continuous_performance_test,2024.2.4,Win32,59.52380952,21d35f91-28b9-4bc5-9adb-7195fb09dad6,2,454.1095,455.8078,space,1,0,29,29,6,1,G,space,0.4013,,,,,,,,,,,
,,,,,R_3yX8C7jDLuZOKS5,001,2025-09-15_15h41.43.480,continuous_performance_test,2024.2.4,Win32,59.52380952,21d35f91-28b9-4bc5-9adb-7195fb09dad6,2,470.8076,472.3522,space,1,0,0,0,18,1,S,space,0.4862,,455.8087,470.8025,,,,,,,,
,,,,,R_3yX8C7jDLuZOKS5,001,2025-09-15_15h41.43.480,continuous_performance_test,2024.2.4,Win32,59.52380952,21d35f91-28b9-4bc5-9adb-7195fb09dad6,2,472.3535,474.0514,space,1,0,1,1,8,1,I,space,0.4509,,,,,,,,,,,
,,,,,R_3yX8C7jDLuZOKS5,001,2025-09-15_15h41.43.480,continuous_performance_test,2024.2.4,Win32,59.52380952,21d35f91-28b9-4bc5-9adb-7195fb09dad6,2,474.0527,475.7546,space,1,0,2,2,0,1,A,space,0.3561,,,,,,,,,,,
,,,,,R_3yX8C7jDLuZOKS5,001,2025-09-15_15h41.43.480,continuous_performance_test,2024.2.4,Win32,59.52380952,21d35f91-28b9-4bc5-9adb-7195fb09dad6,2,475.7557,477.6003,space,1,0,3,3,24,1,Z,space,0.3229,,,,,,,,,,,
,,,,,R_3yX8C7jDLuZOKS5,001,2025-09-15_15h41.43.480,continuous_performance_test,2024.2.4,Win32,59.52380952,21d35f91-28b9-4bc5-9adb-7195fb09dad6,2,477.6009,479.6029,,1,0,4,4,28,1,X,,,,,,,,,,,,,
,,,,,R_3yX8C7jDLuZOKS5,001,2025-09-15_15h41.43.480,continuous_performance_test,2024.2.4,Win32,59.52380952,21d35f91-28b9-4bc5-9adb-7195fb09dad6,2,479.6038,481.4992,space,1,0,5,5,14,1,O,space,0.3384,,,,,,,,,,,
,,,,,R_3yX8C7jDLuZOKS5,001,2025-09-15_15h41.43.480,continuous_performance_test,2024.2.4,Win32,59.52380952,21d35f91-28b9-4bc5-9adb-7195fb09dad6,2,481.5003,483.2482,space,1,0,6,6,22,1,W,space,0.442,,,,,,,,,,,
,,,,,R_3yX8C7jDLuZOKS5,001,2025-09-15_15h41.43.480,continuous_performance_test,2024.2.4,Win32,59.52380952,21d35f91-28b9-4bc5-9adb-7195fb09dad6,2,483.2493,485.198,space,1,0,7,7,6,1,G,space,0.3499,,,,,,,,,,,
,,,,,R_3yX8C7jDLuZOKS5,001,2025-09-15_15h41.43.480,continuous_performance_test,2024.2.4,Win32,59.52380952,21d35f91-28b9-4bc5-9adb-7195fb09dad6,2,485.1989,486.7472,space,1,0,8,8,2,1,C,space,0.3666,,,,,,,,,,,
,,,,,R_3yX8C7jDLuZOKS5,001,2025-09-15_15h41.43.480,continuous_performance_test,2024.2.4,Win32,59.52380952,21d35f91-28b9-4bc5-9adb-7195fb09dad6,2,486.748,488.4467,space,0,0,9,9,29,1,X,,0.4078,,,,,,,,,,,
,,,,,R_3yX8C7jDLuZOKS5,001,2025-09-15_15h41.43.480,continuous_performance_test,2024.2.4,Win32,59.52380952,21d35f91-28b9-4bc5-9adb-7195fb09dad6,2,488.4477,490.0454,space,1,0,10,10,21,1,V,space,0.3455,,,,,,,,,,,
,,,,,R_3yX8C7jDLuZOKS5,001,2025-09-15_15h41.43.480,continuous_performance_test,2024.2.4,Win32,59.52380952,21d35f91-28b9-4bc5-9adb-7195fb09dad6,2,490.0466,491.595,space,1,0,11,11,5,1,F,space,0.4351,,,,,,,,,,,
,,,,,R_3yX8C7jDLuZOKS5,001,2025-09-15_15h41.43.480,continuous_performance_test,2024.2.4,Win32,59.52380952,21d35f91-28b9-4bc5-9adb-7195fb09dad6,2,491.5961,493.195,space,1,0,12,12,12,1,M,space,0.4692,,,,,,,,,,,
,,,,,R_3yX8C7jDLuZOKS5,001,2025-09-15_15h41.43.480,continuous_performance_test,2024.2.4,Win32,59.52380952,21d35f91-28b9-4bc5-9adb-7195fb09dad6,2,493.196,494.7946,space,1,0,13,13,3,1,D,space,0.421,,,,,,,,,,,
,,,,,R_3yX8C7jDLuZOKS5,001,2025-09-15_15h41.43.480,continuous_performance_test,2024.2.4,Win32,59.52380952,21d35f91-28b9-4bc5-9adb-7195fb09dad6,2,494.7956,496.6432,space,1,0,14,14,23,1,Y,space,0.4544,,,,,,,,,,,
,,,,,R_3yX8C7jDLuZOKS5,001,2025-09-15_15h41.43.480,continuous_performance_test,2024.2.4,Win32,59.52380952,21d35f91-28b9-4bc5-9adb-7195fb09dad6,2,496.6444,498.2936,space,1,0,15,15,1,1,B,space,0.4233,,,,,,,,,,,
,,,,,R_3yX8C7jDLuZOKS5,001,2025-09-15_15h41.43.480,continuous_performance_test,2024.2.4,Win32,59.52380952,21d35f91-28b9-4bc5-9adb-7195fb09dad6,2,498.2949,499.893,space,1,0,16,16,7,1,H,space,0.4352,,,,,,,,,,,
,,,,,R_3yX8C7jDLuZOKS5,001,2025-09-15_15h41.43.480,continuous_performance_test,2024.2.4,Win32,59.52380952,21d35f91-28b9-4bc5-9adb-7195fb09dad6,2,499.8944,501.4421,space,1,0,17,17,10,1,K,space,0.4407,,,,,,,,,,,
,,,,,R_3yX8C7jDLuZOKS5,001,2025-09-15_15h41.43.480,continuous_performance_test,2024.2.4,Win32,59.52380952,21d35f91-28b9-4bc5-9adb-7195fb09dad6,2,501.4435,503.395,,1,0,18,18,25,1,X,,,,,,,,,,,,,
,,,,,R_3yX8C7jDLuZOKS5,001,2025-09-15_15h41.43.480,continuous_performance_test,2024.2.4,Win32,59.52380952,21d35f91-28b9-4bc5-9adb-7195fb09dad6,2,503.3957,505.0906,,1,0,19,19,26,1,X,,,,,,,,,,,,,
,,,,,R_3yX8C7jDLuZOKS5,001,2025-09-15_15h41.43.480,continuous_performance_test,2024.2.4,Win32,59.52380952,21d35f91-28b9-4bc5-9adb-7195fb09dad6,2,505.0918,506.7907,space,1,0,20,20,16,1,Q,space,0.4162,,,,,,,,,,,
,,,,,R_3yX8C7jDLuZOKS5,001,2025-09-15_15h41.43.480,continuous_performance_test,2024.2.4,Win32,59.52380952,21d35f91-28b9-4bc5-9adb-7195fb09dad6,2,506.7917,508.6935,space,1,0,21,21,17,1,R,space,0.4066,,,,,,,,,,,
,,,,,R_3yX8C7jDLuZOKS5,001,2025-09-15_15h41.43.480,continuous_performance_test,2024.2.4,Win32,59.52380952,21d35f91-28b9-4bc5-9adb-7195fb09dad6,2,508.6949,510.4391,space,1,0,22,22,20,1,U,space,0.4379,,,,,,,,,,,
,,,,,R_3yX8C7jDLuZOKS5,001,2025-09-15_15h41.43.480,continuous_performance_test,2024.2.4,Win32,59.52380952,21d35f91-28b9-4bc5-9adb-7195fb09dad6,2,510.4402,512.0386,space,1,0,23,23,4,1,E,space,0.3698,,,,,,,,,,,
,,,,,R_3yX8C7jDLuZOKS5,001,2025-09-15_15h41.43.480,continuous_performance_test,2024.2.4,Win32,59.52380952,21d35f91-28b9-4bc5-9adb-7195fb09dad6,2,512.0398,514.0382,space,1,0,24,24,13,1,N,space,0.3183,,,,,,,,,,,
,,,,,R_3yX8C7jDLuZOKS5,001,2025-09-15_15h41.43.480,continuous_performance_test,2024.2.4,Win32,59.52380952,21d35f91-28b9-4bc5-9adb-7195fb09dad6,2,514.039,515.6375,space,1,0,25,25,9,1,J,space,0.3665,,,,,,,,,,,
,,,,,R_3yX8C7jDLuZOKS5,001,2025-09-15_15h41.43.480,continuous_performance_test,2024.2.4,Win32,59.52380952,21d35f91-28b9-4bc5-9adb-7195fb09dad6,2,515.6386,517.6367,space,1,0,26,26,15,1,P,space,0.3062,,,,,,,,,,,
,,,,,R_3yX8C7jDLuZOKS5,001,2025-09-15_15h41.43.480,continuous_performance_test,2024.2.4,Win32,59.52380952,21d35f91-28b9-4bc5-9adb-7195fb09dad6,2,517.6379,519.2867,,1,0,27,27,27,1,X,,,,,,,,,,,,,
,,,,,R_3yX8C7jDLuZOKS5,001,2025-09-15_15h41.43.480,continuous_performance_test,2024.2.4,Win32,59.52380952,21d35f91-28b9-4bc5-9adb-7195fb09dad6,2,519.2879,520.9856,space,1,0,28,28,19,1,T,space,0.4011,,,,,,,,,,,
,,,,,R_3yX8C7jDLuZOKS5,001,2025-09-15_15h41.43.480,continuous_performance_test,2024.2.4,Win32,59.52380952,21d35f91-28b9-4bc5-9adb-7195fb09dad6,2,520.9868,522.835,space,1,0,29,29,11,1,L,space,0.4904,,,,,,,,,,,
,,,,,R_3yX8C7jDLuZOKS5,001,2025-09-15_15h41.43.480,continuous_performance_test,2024.2.4,Win32,59.52380952,21d35f91-28b9-4bc5-9adb-7195fb09dad6,2,537.8367,539.4329,space,1,0,0,0,20,1,U,space,0.4672,,522.8361,537.8301,,,,,,,,
,,,,,R_3yX8C7jDLuZOKS5,001,2025-09-15_15h41.43.480,continuous_performance_test,2024.2.4,Win32,59.52380952,21d35f91-28b9-4bc5-9adb-7195fb09dad6,2,539.4343,540.9789,space,1,0,1,1,24,1,Z,space,0.4329,,,,,,,,,,,
,,,,,R_3yX8C7jDLuZOKS5,001,2025-09-15_15h41.43.480,continuous_performance_test,2024.2.4,Win32,59.52380952,21d35f91-28b9-4bc5-9adb-7195fb09dad6,2,540.9799,542.8285,space,1,0,2,2,8,1,I,space,0.4134,,,,,,,,,,,
,,,,,R_3yX8C7jDLuZOKS5,001,2025-09-15_15h41.43.480,continuous_performance_test,2024.2.4,Win32,59.52380952,21d35f91-28b9-4bc5-9adb-7195fb09dad6,2,542.8296,544.4277,space,1,0,3,3,2,1,C,space,0.3729,,,,,,,,,,,
,,,,,R_3yX8C7jDLuZOKS5,001,2025-09-15_15h41.43.480,continuous_performance_test,2024.2.4,Win32,59.52380952,21d35f91-28b9-4bc5-9adb-7195fb09dad6,2,544.429,546.3272,space,1,0,4,4,21,1,V,space,0.4509,,,,,,,,,,,
,,,,,R_3yX8C7jDLuZOKS5,001,2025-09-15_15h41.43.480,continuous_performance_test,2024.2.4,Win32,59.52380952,21d35f91-28b9-4bc5-9adb-7195fb09dad6,2,546.3283,548.2765,space,1,0,5,5,11,1,L,space,0.5501,,,,,,,,,,,
,,,,,R_3yX8C7jDLuZOKS5,001,2025-09-15_15h41.43.480,continuous_performance_test,2024.2.4,Win32,59.52380952,21d35f91-28b9-4bc5-9adb-7195fb09dad6,2,548.2777,549.9254,space,1,0,6,6,13,1,N,space,0.4873,,,,,,,,,,,
,,,,,R_3yX8C7jDLuZOKS5,001,2025-09-15_15h41.43.480,continuous_performance_test,2024.2.4,Win32,59.52380952,21d35f91-28b9-4bc5-9adb-7195fb09dad6,2,549.9267,551.675,space,1,0,7,7,5,1,F,space,0.4336,,,,,,,,,,,
,,,,,R_3yX8C7jDLuZOKS5,001,2025-09-15_15h41.43.480,continuous_performance_test,2024.2.4,Win32,59.52380952,21d35f91-28b9-4bc5-9adb-7195fb09dad6,2,551.6763,553.3745,space,1,0,8,8,17,1,R,space,0.4181,,,,,,,,,,,
,,,,,R_3yX8C7jDLuZOKS5,001,2025-09-15_15h41.43.480,continuous_performance_test,2024.2.4,Win32,59.52380952,21d35f91-28b9-4bc5-9adb-7195fb09dad6,2,553.3761,555.2763,,1,0,9,9,27,1,X,,,,,,,,,,,,,
,,,,,R_3yX8C7jDLuZOKS5,001,2025-09-15_15h41.43.480,continuous_performance_test,2024.2.4,Win32,59.52380952,21d35f91-28b9-4bc5-9adb-7195fb09dad6,2,555.2775,557.1738,space,1,0,10,10,22,1,W,space,0.4894,,,,,,,,,,,
,,,,,R_3yX8C7jDLuZOKS5,001,2025-09-15_15h41.43.480,continuous_performance_test,2024.2.4,Win32,59.52380952,21d35f91-28b9-4bc5-9adb-7195fb09dad6,2,557.1746,558.9721,space,1,0,11,11,1,1,B,space,0.4458,,,,,,,,,,,
,,,,,R_3yX8C7jDLuZOKS5,001,2025-09-15_15h41.43.480,continuous_performance_test,2024.2.4,Win32,59.52380952,21d35f91-28b9-4bc5-9adb-7195fb09dad6,2,558.9737,560.5732,space,1,0,12,12,15,1,P,space,0.4001,,,,,,,,,,,
,,,,,R_3yX8C7jDLuZOKS5,001,2025-09-15_15h41.43.480,continuous_performance_test,2024.2.4,Win32,59.52380952,21d35f91-28b9-4bc5-9adb-7195fb09dad6,2,560.574,562.472,space,1,0,13,13,7,1,H,space,0.3244,,,,,,,,,,,
,,,,,R_3yX8C7jDLuZOKS5,001,2025-09-15_15h41.43.480,continuous_performance_test,2024.2.4,Win32,59.52380952,21d35f91-28b9-4bc5-9adb-7195fb09dad6,2,562.4729,564.0715,,1,0,14,14,26,1,X,,,,,,,,,,,,,
,,,,,R_3yX8C7jDLuZOKS5,001,2025-09-15_15h41.43.480,continuous_performance_test,2024.2.4,Win32,59.52380952,21d35f91-28b9-4bc5-9adb-7195fb09dad6,2,564.0726,565.6206,space,1,0,15,15,14,1,O,space,0.3689,,,,,,,,,,,
,,,,,R_3yX8C7jDLuZOKS5,001,2025-09-15_15h41.43.480,continuous_performance_test,2024.2.4,Win32,59.52380952,21d35f91-28b9-4bc5-9adb-7195fb09dad6,2,565.6217,567.2703,space,0,0,16,16,29,1,X,,0.3174,,,,,,,,,,,
,,,,,R_3yX8C7jDLuZOKS5,001,2025-09-15_15h41.43.480,continuous_performance_test,2024.2.4,Win32,59.52380952,21d35f91-28b9-4bc5-9adb-7195fb09dad6,2,567.2714,569.2211,space,1,0,17,17,0,1,A,space,0.433,,,,,,,,,,,
,,,,,R_3yX8C7jDLuZOKS5,001,2025-09-15_15h41.43.480,continuous_performance_test,2024.2.4,Win32,59.52380952,21d35f91-28b9-4bc5-9adb-7195fb09dad6,2,569.2219,571.1687,space,1,0,18,18,19,1,T,space,0.3579,,,,,,,,,,,
,,,,,R_3yX8C7jDLuZOKS5,001,2025-09-15_15h41.43.480,continuous_performance_test,2024.2.4,Win32,59.52380952,21d35f91-28b9-4bc5-9adb-7195fb09dad6,2,571.1696,573.0683,,1,0,19,19,28,1,X,,,,,,,,,,,,,
,,,,,R_3yX8C7jDLuZOKS5,001,2025-09-15_15h41.43.480,continuous_performance_test,2024.2.4,Win32,59.52380952,21d35f91-28b9-4bc5-9adb-7195fb09dad6,2,573.0693,574.7677,space,1,0,20,20,6,1,G,space,0.4143,,,,,,,,,,,
,,,,,R_3yX8C7jDLuZOKS5,001,2025-09-15_15h41.43.480,continuous_performance_test,2024.2.4,Win32,59.52380952,21d35f91-28b9-4bc5-9adb-7195fb09dad6,2,574.7687,576.5168,space,1,0,21,21,18,1,S,space,0.3364,,,,,,,,,,,
,,,,,R_3yX8C7jDLuZOKS5,001,2025-09-15_15h41.43.480,continuous_performance_test,2024.2.4,Win32,59.52380952,21d35f91-28b9-4bc5-9adb-7195fb09dad6,2,576.5177,578.3661,space,1,0,22,22,23,1,Y,space,0.3225,,,,,,,,,,,
,,,,,R_3yX8C7jDLuZOKS5,001,2025-09-15_15h41.43.480,continuous_performance_test,2024.2.4,Win32,59.52380952,21d35f91-28b9-4bc5-9adb-7195fb09dad6,2,578.3673,579.9194,space,1,0,23,23,12,1,M,space,0.3946,,,,,,,,,,,
,,,,,R_3yX8C7jDLuZOKS5,001,2025-09-15_15h41.43.480,continuous_performance_test,2024.2.4,Win32,59.52380952,21d35f91-28b9-4bc5-9adb-7195fb09dad6,2,579.9205,581.8651,space,0,0,24,24,25,1,X,,0.3827,,,,,,,,,,,
,,,,,R_3yX8C7jDLuZOKS5,001,2025-09-15_15h41.43.480,continuous_performance_test,2024.2.4,Win32,59.52380952,21d35f91-28b9-4bc5-9adb-7195fb09dad6,2,581.8664,583.7147,space,1,0,25,25,3,1,D,space,0.4344,,,,,,,,,,,
,,,,,R_3yX8C7jDLuZOKS5,001,2025-09-15_15h41.43.480,continuous_performance_test,2024.2.4,Win32,59.52380952,21d35f91-28b9-4bc5-9adb-7195fb09dad6,2,583.7158,585.5141,space,1,0,26,26,9,1,J,space,0.3335,,,,,,,,,,,
,,,,,R_3yX8C7jDLuZOKS5,001,2025-09-15_15h41.43.480,continuous_performance_test,2024.2.4,Win32,59.52380952,21d35f91-28b9-4bc5-9adb-7195fb09dad6,2,585.5153,587.4635,space,1,0,27,27,4,1,E,space,0.3338,,,,,,,,,,,
,,,,,R_3yX8C7jDLuZOKS5,001,2025-09-15_15h41.43.480,continuous_performance_test,2024.2.4,Win32,59.52380952,21d35f91-28b9-4bc5-9adb-7195fb09dad6,2,587.4645,589.3127,space,1,0,28,28,10,1,K,space,0.3631,,,,,,,,,,,
,,,,,R_3yX8C7jDLuZOKS5,001,2025-09-15_15h41.43.480,continuous_performance_test,2024.2.4,Win32,59.52380952,21d35f91-28b9-4bc5-9adb-7195fb09dad6,2,589.3136,591.1621,space,1,0,29,29,16,1,Q,space,0.4404,,,,,,,,,,,
,,,,,R_3yX8C7jDLuZOKS5,001,2025-09-15_15h41.43.480,continuous_performance_test,2024.2.4,Win32,59.52380952,21d35f91-28b9-4bc5-9adb-7195fb09dad6,2,606.1627,607.7067,space,1,0,0,0,20,1,U,space,0.4832,,591.1629,606.1568,,,,,,,,
,,,,,R_3yX8C7jDLuZOKS5,001,2025-09-15_15h41.43.480,continuous_performance_test,2024.2.4,Win32,59.52380952,21d35f91-28b9-4bc5-9adb-7195fb09dad6,2,607.7077,609.6554,space,1,0,1,1,18,1,S,space,0.4729,,,,,,,,,,,
,,,,,R_3yX8C7jDLuZOKS5,001,2025-09-15_15h41.43.480,continuous_performance_test,2024.2.4,Win32,59.52380952,21d35f91-28b9-4bc5-9adb-7195fb09dad6,2,609.6567,611.4548,,1,0,2,2,25,1,X,,,,,,,,,,,,,
,,,,,R_3yX8C7jDLuZOKS5,001,2025-09-15_15h41.43.480,continuous_performance_test,2024.2.4,Win32,59.52380952,21d35f91-28b9-4bc5-9adb-7195fb09dad6,2,611.4563,613.3046,space,1,0,3,3,14,1,O,space,0.3696,,,,,,,,,,,
,,,,,R_3yX8C7jDLuZOKS5,001,2025-09-15_15h41.43.480,continuous_performance_test,2024.2.4,Win32,59.52380952,21d35f91-28b9-4bc5-9adb-7195fb09dad6,2,613.3055,615.1544,space,1,0,4,4,5,1,F,space,0.3581,,,,,,,,,,,
,,,,,R_3yX8C7jDLuZOKS5,001,2025-09-15_15h41.43.480,continuous_performance_test,2024.2.4,Win32,59.52380952,21d35f91-28b9-4bc5-9adb-7195fb09dad6,2,615.1554,617.0027,space,1,0,5,5,10,1,K,space,0.3262,,,,,,,,,,,
,,,,,R_3yX8C7jDLuZOKS5,001,2025-09-15_15h41.43.480,continuous_performance_test,2024.2.4,Win32,59.52380952,21d35f91-28b9-4bc5-9adb-7195fb09dad6,2,617.004,619.0023,space,1,0,6,6,9,1,J,space,0.3237,,,,,,,,,,,
,,,,,R_3yX8C7jDLuZOKS5,001,2025-09-15_15h41.43.480,continuous_performance_test,2024.2.4,Win32,59.52380952,21d35f91-28b9-4bc5-9adb-7195fb09dad6,2,619.0034,620.8021,space,1,0,7,7,19,1,T,space,0.318,,,,,,,,,,,
,,,,,R_3yX8C7jDLuZOKS5,001,2025-09-15_15h41.43.480,continuous_performance_test,2024.2.4,Win32,59.52380952,21d35f91-28b9-4bc5-9adb-7195fb09dad6,2,620.8032,622.5016,space,1,0,8,8,23,1,Y,space,0.3506,,,,,,,,,,,
,,,,,R_3yX8C7jDLuZOKS5,001,2025-09-15_15h41.43.480,continuous_performance_test,2024.2.4,Win32,59.52380952,21d35f91-28b9-4bc5-9adb-7195fb09dad6,2,622.503,624.3009,space,1,0,9,9,11,1,L,space,0.3344,,,,,,,,,,,
,,,,,R_3yX8C7jDLuZOKS5,001,2025-09-15_15h41.43.480,continuous_performance_test,2024.2.4,Win32,59.52380952,21d35f91-28b9-4bc5-9adb-7195fb09dad6,2,624.3021,626.2499,space,1,0,10,10,6,1,G,space,0.3238,,,,,,,,,,,
,,,,,R_3yX8C7jDLuZOKS5,001,2025-09-15_15h41.43.480,continuous_performance_test,2024.2.4,Win32,59.52380952,21d35f91-28b9-4bc5-9adb-7195fb09dad6,2,626.2512,627.9499,space,1,0,11,11,24,1,Z,space,0.3429,,,,,,,,,,,
,,,,,R_3yX8C7jDLuZOKS5,001,2025-09-15_15h41.43.480,continuous_performance_test,2024.2.4,Win32,59.52380952,21d35f91-28b9-4bc5-9adb-7195fb09dad6,2,627.9511,629.8491,space,1,0,12,12,13,1,N,space,0.367,,,,,,,,,,,
,,,,,R_3yX8C7jDLuZOKS5,001,2025-09-15_15h41.43.480,continuous_performance_test,2024.2.4,Win32,59.52380952,21d35f91-28b9-4bc5-9adb-7195fb09dad6,2,629.8499,631.6984,space,1,0,13,13,21,1,V,space,0.3766,,,,,,,,,,,
,,,,,R_3yX8C7jDLuZOKS5,001,2025-09-15_15h41.43.480,continuous_performance_test,2024.2.4,Win32,59.52380952,21d35f91-28b9-4bc5-9adb-7195fb09dad6,2,631.6993,633.4475,,1,0,14,14,28,1,X,,,,,,,,,,,,,
,,,,,R_3yX8C7jDLuZOKS5,001,2025-09-15_15h41.43.480,continuous_performance_test,2024.2.4,Win32,59.52380952,21d35f91-28b9-4bc5-9adb-7195fb09dad6,2,633.4485,635.1471,space,1,0,15,15,8,1,I,space,0.4615,,,,,,,,,,,
,,,,,R_3yX8C7jDLuZOKS5,001,2025-09-15_15h41.43.480,continuous_performance_test,2024.2.4,Win32,59.52380952,21d35f91-28b9-4bc5-9adb-7195fb09dad6,2,635.1479,636.7469,space,1,0,16,16,3,1,D,space,0.3671,,,,,,,,,,,
,,,,,R_3yX8C7jDLuZOKS5,001,2025-09-15_15h41.43.480,continuous_performance_test,2024.2.4,Win32,59.52380952,21d35f91-28b9-4bc5-9adb-7195fb09dad6,2,636.7481,638.446,space,1,0,17,17,1,1,B,space,0.3833,,,,,,,,,,,
,,,,,R_3yX8C7jDLuZOKS5,001,2025-09-15_15h41.43.480,continuous_performance_test,2024.2.4,Win32,59.52380952,21d35f91-28b9-4bc5-9adb-7195fb09dad6,2,638.4471,640.1952,space,0,0,18,18,27,1,X,,0.3236,,,,,,,,,,,
,,,,,R_3yX8C7jDLuZOKS5,001,2025-09-15_15h41.43.480,continuous_performance_test,2024.2.4,Win32,59.52380952,21d35f91-28b9-4bc5-9adb-7195fb09dad6,2,640.1961,641.8945,space,1,0,19,19,4,1,E,space,0.518,,,,,,,,,,,
,,,,,R_3yX8C7jDLuZOKS5,001,2025-09-15_15h41.43.480,continuous_performance_test,2024.2.4,Win32,59.52380952,21d35f91-28b9-4bc5-9adb-7195fb09dad6,2,641.8954,643.5443,space,1,0,20,20,15,1,P,space,0.3728,,,,,,,,,,,
,,,,,R_3yX8C7jDLuZOKS5,001,2025-09-15_15h41.43.480,continuous_performance_test,2024.2.4,Win32,59.52380952,21d35f91-28b9-4bc5-9adb-7195fb09dad6,2,643.5454,645.2441,space,1,0,21,21,7,1,H,space,0.3456,,,,,,,,,,,
,,,,,R_3yX8C7jDLuZOKS5,001,2025-09-15_15h41.43.480,continuous_performance_test,2024.2.4,Win32,59.52380952,21d35f91-28b9-4bc5-9adb-7195fb09dad6,2,645.2452,646.8969,,1,0,22,22,26,1,X,,,,,,,,,,,,,
,,,,,R_3yX8C7jDLuZOKS5,001,2025-09-15_15h41.43.480,continuous_performance_test,2024.2.4,Win32,59.52380952,21d35f91-28b9-4bc5-9adb-7195fb09dad6,2,646.8979,648.592,space,1,0,23,23,0,1,A,space,0.3711,,,,,,,,,,,
,,,,,R_3yX8C7jDLuZOKS5,001,2025-09-15_15h41.43.480,continuous_performance_test,2024.2.4,Win32,59.52380952,21d35f91-28b9-4bc5-9adb-7195fb09dad6,2,648.5936,650.4918,space,1,0,24,24,17,1,R,space,0.358,,,,,,,,,,,
,,,,,R_3yX8C7jDLuZOKS5,001,2025-09-15_15h41.43.480,continuous_performance_test,2024.2.4,Win32,59.52380952,21d35f91-28b9-4bc5-9adb-7195fb09dad6,2,650.4928,652.1914,space,1,0,25,25,12,1,M,space,0.4099,,,,,,,,,,,
,,,,,R_3yX8C7jDLuZOKS5,001,2025-09-15_15h41.43.480,continuous_performance_test,2024.2.4,Win32,59.52380952,21d35f91-28b9-4bc5-9adb-7195fb09dad6,2,652.1925,653.7444,space,1,0,26,26,16,1,Q,space,0.419,,,,,,,,,,,
,,,,,R_3yX8C7jDLuZOKS5,001,2025-09-15_15h41.43.480,continuous_performance_test,2024.2.4,Win32,59.52380952,21d35f91-28b9-4bc5-9adb-7195fb09dad6,2,653.7456,655.3902,,1,0,27,27,29,1,X,,,,,,,,,,,,,
,,,,,R_3yX8C7jDLuZOKS5,001,2025-09-15_15h41.43.480,continuous_performance_test,2024.2.4,Win32,59.52380952,21d35f91-28b9-4bc5-9adb-7195fb09dad6,2,655.3914,657.1899,space,1,0,28,28,22,1,W,space,0.3666,,,,,,,,,,,
,,,,,R_3yX8C7jDLuZOKS5,001,2025-09-15_15h41.43.480,continuous_performance_test,2024.2.4,Win32,59.52380952,21d35f91-28b9-4bc5-9adb-7195fb09dad6,2,657.1912,659.0426,space,1,0,29,29,2,1,C,space,0.4309,,,,,,,,,,,
,,,,,R_3yX8C7jDLuZOKS5,001,2025-09-15_15h41.43.480,continuous_performance_test,2024.2.4,Win32,59.52380952,21d35f91-28b9-4bc5-9adb-7195fb09dad6,2,,,,,,,,,,,,,,659.0432,659.0438,,,,659.0443,681.1024,space,22.0425,
