Instructions.started,Instructions.stopped,key_resp.keys,key_resp.rt,key_resp.duration,participant,session,date,expName,psychopyVersion,OS,frameRate,realeye-tester-id,realeye-tester-quality_grade,Trial_noX.started,Trial_noX.stopped,response.keys,response.corr,response.rt,response.duration,trials_noX.thisRepN,trials_noX.thisTrialN,trials_noX.thisN,trials_noX.thisIndex,trials_noX.ran,letter,corrAns,BlockBreak.started,BlockBreak.stopped,key_instruct.keys,key_instruct.rt,key_instruct.duration,End_NoX.started,End_NoX.stopped,key_resp_end_noX.keys,key_resp_end_noX.rt,key_resp_end_noX.duration
0.0003,14.711,space,14.6858,,R_40Aui9SgjHu89Bh,001,2025-08-22_18h02.15.490,continuous_performance_test,2024.2.4,MacIntel,59.88023952,63b0ab4e-861f-46a9-9887-f81c86729414,5,,,,,,,,,,,,,,,,,,,,,,,
,,,,,R_40Aui9SgjHu89Bh,001,2025-08-22_18h02.15.490,continuous_performance_test,2024.2.4,MacIntel,59.88023952,63b0ab4e-861f-46a9-9887-f81c86729414,5,14.7345,16.3767,space,0,0.3358,,0,0,0,26,1,X,,,,,,,,,,,
,,,,,R_40Aui9SgjHu89Bh,001,2025-08-22_18h02.15.490,continuous_performance_test,2024.2.4,MacIntel,59.88023952,63b0ab4e-861f-46a9-9887-f81c86729414,5,16.3773,18.027,space,0,0.5226,,0,1,1,28,1,X,,,,,,,,,,,
,,,,,R_40Aui9SgjHu89Bh,001,2025-08-22_18h02.15.490,continuous_performance_test,2024.2.4,MacIntel,59.88023952,63b0ab4e-861f-46a9-9887-f81c86729414,5,18.0286,19.677,space,1,0.4082,,0,2,2,23,1,Y,space,,,,,,,,,,
,,,,,R_40Aui9SgjHu89Bh,001,2025-08-22_18h02.15.490,continuous_performance_test,2024.2.4,MacIntel,59.88023952,63b0ab4e-861f-46a9-9887-f81c86729414,5,19.6785,21.377,space,1,0.3617,,0,3,3,7,1,H,space,,,,,,,,,,
,,,,,R_40Aui9SgjHu89Bh,001,2025-08-22_18h02.15.490,continuous_performance_test,2024.2.4,MacIntel,59.88023952,63b0ab4e-861f-46a9-9887-f81c86729414,5,21.3785,23.377,space,0,0.2833,,0,4,4,27,1,X,,,,,,,,,,,
,,,,,R_40Aui9SgjHu89Bh,001,2025-08-22_18h02.15.490,continuous_performance_test,2024.2.4,MacIntel,59.88023952,63b0ab4e-861f-46a9-9887-f81c86729414,5,23.3783,25.277,space,1,0.2845,,0,5,5,22,1,W,space,,,,,,,,,,
,,,,,R_40Aui9SgjHu89Bh,001,2025-08-22_18h02.15.490,continuous_performance_test,2024.2.4,MacIntel,59.88023952,63b0ab4e-861f-46a9-9887-f81c86729414,5,25.2787,26.927,space,1,0.3935,,0,6,6,19,1,T,space,,,,,,,,,,
,,,,,R_40Aui9SgjHu89Bh,001,2025-08-22_18h02.15.490,continuous_performance_test,2024.2.4,MacIntel,59.88023952,63b0ab4e-861f-46a9-9887-f81c86729414,5,26.9283,28.527,space,1,0.2873,,0,7,7,0,1,A,space,,,,,,,,,,
,,,,,R_40Aui9SgjHu89Bh,001,2025-08-22_18h02.15.490,continuous_performance_test,2024.2.4,MacIntel,59.88023952,63b0ab4e-861f-46a9-9887-f81c86729414,5,28.5285,30.0769,space,1,0.2758,,0,8,8,5,1,F,space,,,,,,,,,,
,,,,,R_40Aui9SgjHu89Bh,001,2025-08-22_18h02.15.490,continuous_performance_test,2024.2.4,MacIntel,59.88023952,63b0ab4e-861f-46a9-9887-f81c86729414,5,30.0786,31.8771,space,1,0.2618,,0,9,9,14,1,O,space,,,,,,,,,,
,,,,,R_40Aui9SgjHu89Bh,001,2025-08-22_18h02.15.490,continuous_performance_test,2024.2.4,MacIntel,59.88023952,63b0ab4e-861f-46a9-9887-f81c86729414,5,31.8784,33.8268,space,1,0.2447,,0,10,10,24,1,Z,space,,,,,,,,,,
,,,,,R_40Aui9SgjHu89Bh,001,2025-08-22_18h02.15.490,continuous_performance_test,2024.2.4,MacIntel,59.88023952,63b0ab4e-861f-46a9-9887-f81c86729414,5,33.8286,35.477,space,1,0.2575,,0,11,11,18,1,S,space,,,,,,,,,,
,,,,,R_40Aui9SgjHu89Bh,001,2025-08-22_18h02.15.490,continuous_performance_test,2024.2.4,MacIntel,59.88023952,63b0ab4e-861f-46a9-9887-f81c86729414,5,35.4784,37.0268,space,1,0.2629,,0,12,12,10,1,K,space,,,,,,,,,,
,,,,,R_40Aui9SgjHu89Bh,001,2025-08-22_18h02.15.490,continuous_performance_test,2024.2.4,MacIntel,59.88023952,63b0ab4e-861f-46a9-9887-f81c86729414,5,37.0284,38.7759,space,0,0.2476,,0,13,13,29,1,X,,,,,,,,,,,
,,,,,R_40Aui9SgjHu89Bh,001,2025-08-22_18h02.15.490,continuous_performance_test,2024.2.4,MacIntel,59.88023952,63b0ab4e-861f-46a9-9887-f81c86729414,5,38.7774,40.5269,space,1,0.2595,,0,14,14,3,1,D,space,,,,,,,,,,
,,,,,R_40Aui9SgjHu89Bh,001,2025-08-22_18h02.15.490,continuous_performance_test,2024.2.4,MacIntel,59.88023952,63b0ab4e-861f-46a9-9887-f81c86729414,5,40.5285,42.2772,space,1,0.2942,,0,15,15,11,1,L,space,,,,,,,,,,
,,,,,R_40Aui9SgjHu89Bh,001,2025-08-22_18h02.15.490,continuous_performance_test,2024.2.4,MacIntel,59.88023952,63b0ab4e-861f-46a9-9887-f81c86729414,5,42.2791,44.2768,space,0,0.2675,,0,16,16,25,1,X,,,,,,,,,,,
,,,,,R_40Aui9SgjHu89Bh,001,2025-08-22_18h02.15.490,continuous_performance_test,2024.2.4,MacIntel,59.88023952,63b0ab4e-861f-46a9-9887-f81c86729414,5,44.2783,46.1769,space,1,0.2927,,0,17,17,13,1,N,space,,,,,,,,,,
,,,,,R_40Aui9SgjHu89Bh,001,2025-08-22_18h02.15.490,continuous_performance_test,2024.2.4,MacIntel,59.88023952,63b0ab4e-861f-46a9-9887-f81c86729414,5,46.1786,47.8268,space,1,0.3587,,0,18,18,1,1,B,space,,,,,,,,,,
,,,,,R_40Aui9SgjHu89Bh,001,2025-08-22_18h02.15.490,continuous_performance_test,2024.2.4,MacIntel,59.88023952,63b0ab4e-861f-46a9-9887-f81c86729414,5,47.8285,49.6768,space,1,0.2264,,0,19,19,16,1,Q,space,,,,,,,,,,
,,,,,R_40Aui9SgjHu89Bh,001,2025-08-22_18h02.15.490,continuous_performance_test,2024.2.4,MacIntel,59.88023952,63b0ab4e-861f-46a9-9887-f81c86729414,5,49.6783,51.5769,space,1,0.364,,0,20,20,9,1,J,space,,,,,,,,,,
,,,,,R_40Aui9SgjHu89Bh,001,2025-08-22_18h02.15.490,continuous_performance_test,2024.2.4,MacIntel,59.88023952,63b0ab4e-861f-46a9-9887-f81c86729414,5,51.5783,53.5267,space,1,0.3277,,0,21,21,20,1,U,space,,,,,,,,,,
,,,,,R_40Aui9SgjHu89Bh,001,2025-08-22_18h02.15.490,continuous_performance_test,2024.2.4,MacIntel,59.88023952,63b0ab4e-861f-46a9-9887-f81c86729414,5,53.5282,55.1769,space,1,0.3381,,0,22,22,2,1,C,space,,,,,,,,,,
,,,,,R_40Aui9SgjHu89Bh,001,2025-08-22_18h02.15.490,continuous_performance_test,2024.2.4,MacIntel,59.88023952,63b0ab4e-861f-46a9-9887-f81c86729414,5,55.178,56.7269,space,1,0.328,,0,23,23,17,1,R,space,,,,,,,,,,
,,,,,R_40Aui9SgjHu89Bh,001,2025-08-22_18h02.15.490,continuous_performance_test,2024.2.4,MacIntel,59.88023952,63b0ab4e-861f-46a9-9887-f81c86729414,5,56.7282,58.6768,space,1,0.2614,,0,24,24,4,1,E,space,,,,,,,,,,
,,,,,R_40Aui9SgjHu89Bh,001,2025-08-22_18h02.15.490,continuous_performance_test,2024.2.4,MacIntel,59.88023952,63b0ab4e-861f-46a9-9887-f81c86729414,5,58.6783,60.677,space,1,0.2653,,0,25,25,12,1,M,space,,,,,,,,,,
,,,,,R_40Aui9SgjHu89Bh,001,2025-08-22_18h02.15.490,continuous_performance_test,2024.2.4,MacIntel,59.88023952,63b0ab4e-861f-46a9-9887-f81c86729414,5,60.6786,62.5269,space,1,0.3053,,0,26,26,21,1,V,space,,,,,,,,,,
,,,,,R_40Aui9SgjHu89Bh,001,2025-08-22_18h02.15.490,continuous_performance_test,2024.2.4,MacIntel,59.88023952,63b0ab4e-861f-46a9-9887-f81c86729414,5,62.5283,64.376,space,1,0.2782,,0,27,27,6,1,G,space,,,,,,,,,,
,,,,,R_40Aui9SgjHu89Bh,001,2025-08-22_18h02.15.490,continuous_performance_test,2024.2.4,MacIntel,59.88023952,63b0ab4e-861f-46a9-9887-f81c86729414,5,64.3777,66.2758,space,1,0.3268,,0,28,28,8,1,I,space,,,,,,,,,,
,,,,,R_40Aui9SgjHu89Bh,001,2025-08-22_18h02.15.490,continuous_performance_test,2024.2.4,MacIntel,59.88023952,63b0ab4e-861f-46a9-9887-f81c86729414,5,66.2772,67.8768,space,1,0.3101,,0,29,29,15,1,P,space,,,,,,,,,,
,,,,,R_40Aui9SgjHu89Bh,001,2025-08-22_18h02.15.490,continuous_performance_test,2024.2.4,MacIntel,59.88023952,63b0ab4e-861f-46a9-9887-f81c86729414,5,80.255,81.8935,space,1,0.3142,,0,0,0,22,1,W,space,67.8773,80.2435,space,12.3375,,,,,,
,,,,,R_40Aui9SgjHu89Bh,001,2025-08-22_18h02.15.490,continuous_performance_test,2024.2.4,MacIntel,59.88023952,63b0ab4e-861f-46a9-9887-f81c86729414,5,81.8949,83.7436,space,1,0.3474,,0,1,1,14,1,O,space,,,,,,,,,,
,,,,,R_40Aui9SgjHu89Bh,001,2025-08-22_18h02.15.490,continuous_performance_test,2024.2.4,MacIntel,59.88023952,63b0ab4e-861f-46a9-9887-f81c86729414,5,83.7448,85.3935,space,1,0.2822,,0,2,2,17,1,R,space,,,,,,,,,,
,,,,,R_40Aui9SgjHu89Bh,001,2025-08-22_18h02.15.490,continuous_performance_test,2024.2.4,MacIntel,59.88023952,63b0ab4e-861f-46a9-9887-f81c86729414,5,85.395,87.3436,,1,,,0,3,3,29,1,X,,,,,,,,,,,
,,,,,R_40Aui9SgjHu89Bh,001,2025-08-22_18h02.15.490,continuous_performance_test,2024.2.4,MacIntel,59.88023952,63b0ab4e-861f-46a9-9887-f81c86729414,5,87.3448,89.1435,space,1,0.2461,,0,4,4,2,1,C,space,,,,,,,,,,
,,,,,R_40Aui9SgjHu89Bh,001,2025-08-22_18h02.15.490,continuous_performance_test,2024.2.4,MacIntel,59.88023952,63b0ab4e-861f-46a9-9887-f81c86729414,5,89.1448,90.9928,space,1,0.2995,,0,5,5,24,1,Z,space,,,,,,,,,,
,,,,,R_40Aui9SgjHu89Bh,001,2025-08-22_18h02.15.490,continuous_performance_test,2024.2.4,MacIntel,59.88023952,63b0ab4e-861f-46a9-9887-f81c86729414,5,90.994,92.6935,space,1,0.2789,,0,6,6,0,1,A,space,,,,,,,,,,
,,,,,R_40Aui9SgjHu89Bh,001,2025-08-22_18h02.15.490,continuous_performance_test,2024.2.4,MacIntel,59.88023952,63b0ab4e-861f-46a9-9887-f81c86729414,5,92.695,94.343,space,1,0.2753,,0,7,7,19,1,T,space,,,,,,,,,,
,,,,,R_40Aui9SgjHu89Bh,001,2025-08-22_18h02.15.490,continuous_performance_test,2024.2.4,MacIntel,59.88023952,63b0ab4e-861f-46a9-9887-f81c86729414,5,94.3445,95.9935,space,0,0.257,,0,8,8,25,1,X,,,,,,,,,,,
,,,,,R_40Aui9SgjHu89Bh,001,2025-08-22_18h02.15.490,continuous_performance_test,2024.2.4,MacIntel,59.88023952,63b0ab4e-861f-46a9-9887-f81c86729414,5,95.9947,97.6435,space,1,0.2794,,0,9,9,11,1,L,space,,,,,,,,,,
,,,,,R_40Aui9SgjHu89Bh,001,2025-08-22_18h02.15.490,continuous_performance_test,2024.2.4,MacIntel,59.88023952,63b0ab4e-861f-46a9-9887-f81c86729414,5,97.645,99.2936,space,1,0.2831,,0,10,10,8,1,I,space,,,,,,,,,,
,,,,,R_40Aui9SgjHu89Bh,001,2025-08-22_18h02.15.490,continuous_performance_test,2024.2.4,MacIntel,59.88023952,63b0ab4e-861f-46a9-9887-f81c86729414,5,99.2947,101.0436,space,1,0.3641,,0,11,11,18,1,S,space,,,,,,,,,,
,,,,,R_40Aui9SgjHu89Bh,001,2025-08-22_18h02.15.490,continuous_performance_test,2024.2.4,MacIntel,59.88023952,63b0ab4e-861f-46a9-9887-f81c86729414,5,101.0451,102.7427,space,1,0.2667,,0,12,12,15,1,P,space,,,,,,,,,,
,,,,,R_40Aui9SgjHu89Bh,001,2025-08-22_18h02.15.490,continuous_performance_test,2024.2.4,MacIntel,59.88023952,63b0ab4e-861f-46a9-9887-f81c86729414,5,102.744,104.4435,space,1,0.2643,,0,13,13,21,1,V,space,,,,,,,,,,
,,,,,R_40Aui9SgjHu89Bh,001,2025-08-22_18h02.15.490,continuous_performance_test,2024.2.4,MacIntel,59.88023952,63b0ab4e-861f-46a9-9887-f81c86729414,5,104.4448,106.4434,space,1,0.348,,0,14,14,5,1,F,space,,,,,,,,,,
,,,,,R_40Aui9SgjHu89Bh,001,2025-08-22_18h02.15.490,continuous_performance_test,2024.2.4,MacIntel,59.88023952,63b0ab4e-861f-46a9-9887-f81c86729414,5,106.4449,108.3935,space,1,0.4149,,0,15,15,16,1,Q,space,,,,,,,,,,
,,,,,R_40Aui9SgjHu89Bh,001,2025-08-22_18h02.15.490,continuous_performance_test,2024.2.4,MacIntel,59.88023952,63b0ab4e-861f-46a9-9887-f81c86729414,5,108.3947,109.9934,space,0,0.2809,,0,16,16,26,1,X,,,,,,,,,,,
,,,,,R_40Aui9SgjHu89Bh,001,2025-08-22_18h02.15.490,continuous_performance_test,2024.2.4,MacIntel,59.88023952,63b0ab4e-861f-46a9-9887-f81c86729414,5,109.9947,111.5435,space,1,0.332,,0,17,17,9,1,J,space,,,,,,,,,,
,,,,,R_40Aui9SgjHu89Bh,001,2025-08-22_18h02.15.490,continuous_performance_test,2024.2.4,MacIntel,59.88023952,63b0ab4e-861f-46a9-9887-f81c86729414,5,111.5453,113.3435,space,1,0.3128,,0,18,18,13,1,N,space,,,,,,,,,,
,,,,,R_40Aui9SgjHu89Bh,001,2025-08-22_18h02.15.490,continuous_performance_test,2024.2.4,MacIntel,59.88023952,63b0ab4e-861f-46a9-9887-f81c86729414,5,113.3448,115.2933,space,1,0.2467,,0,19,19,3,1,D,space,,,,,,,,,,
,,,,,R_40Aui9SgjHu89Bh,001,2025-08-22_18h02.15.490,continuous_performance_test,2024.2.4,MacIntel,59.88023952,63b0ab4e-861f-46a9-9887-f81c86729414,5,115.2947,116.9435,space,1,0.2804,,0,20,20,12,1,M,space,,,,,,,,,,
,,,,,R_40Aui9SgjHu89Bh,001,2025-08-22_18h02.15.490,continuous_performance_test,2024.2.4,MacIntel,59.88023952,63b0ab4e-861f-46a9-9887-f81c86729414,5,116.9447,118.4933,space,1,0.301,,0,21,21,20,1,U,space,,,,,,,,,,
,,,,,R_40Aui9SgjHu89Bh,001,2025-08-22_18h02.15.490,continuous_performance_test,2024.2.4,MacIntel,59.88023952,63b0ab4e-861f-46a9-9887-f81c86729414,5,118.4947,120.4433,space,1,0.2812,,0,22,22,6,1,G,space,,,,,,,,,,
,,,,,R_40Aui9SgjHu89Bh,001,2025-08-22_18h02.15.490,continuous_performance_test,2024.2.4,MacIntel,59.88023952,63b0ab4e-861f-46a9-9887-f81c86729414,5,120.4445,122.1929,space,1,0.2873,,0,23,23,23,1,Y,space,,,,,,,,,,
,,,,,R_40Aui9SgjHu89Bh,001,2025-08-22_18h02.15.490,continuous_performance_test,2024.2.4,MacIntel,59.88023952,63b0ab4e-861f-46a9-9887-f81c86729414,5,122.1933,123.7924,space,1,0.2805,,0,24,24,4,1,E,space,,,,,,,,,,
,,,,,R_40Aui9SgjHu89Bh,001,2025-08-22_18h02.15.490,continuous_performance_test,2024.2.4,MacIntel,59.88023952,63b0ab4e-861f-46a9-9887-f81c86729414,5,123.7935,125.4932,space,1,0.3595,,0,25,25,7,1,H,space,,,,,,,,,,
,,,,,R_40Aui9SgjHu89Bh,001,2025-08-22_18h02.15.490,continuous_performance_test,2024.2.4,MacIntel,59.88023952,63b0ab4e-861f-46a9-9887-f81c86729414,5,125.4947,127.4923,space,1,0.3142,,0,26,26,10,1,K,space,,,,,,,,,,
,,,,,R_40Aui9SgjHu89Bh,001,2025-08-22_18h02.15.490,continuous_performance_test,2024.2.4,MacIntel,59.88023952,63b0ab4e-861f-46a9-9887-f81c86729414,5,127.4937,129.1934,,1,,,0,27,27,27,1,X,,,,,,,,,,,
,,,,,R_40Aui9SgjHu89Bh,001,2025-08-22_18h02.15.490,continuous_performance_test,2024.2.4,MacIntel,59.88023952,63b0ab4e-861f-46a9-9887-f81c86729414,5,129.1947,130.8922,space,1,0.2426,,0,28,28,1,1,B,space,,,,,,,,,,
,,,,,R_40Aui9SgjHu89Bh,001,2025-08-22_18h02.15.490,continuous_performance_test,2024.2.4,MacIntel,59.88023952,63b0ab4e-861f-46a9-9887-f81c86729414,5,130.8935,132.8934,,1,,,0,29,29,28,1,X,,,,,,,,,,,
,,,,,R_40Aui9SgjHu89Bh,001,2025-08-22_18h02.15.490,continuous_performance_test,2024.2.4,MacIntel,59.88023952,63b0ab4e-861f-46a9-9887-f81c86729414,5,147.9008,149.8932,space,1,0.4764,,0,0,0,15,1,P,space,132.8949,147.8934,,,,,,,,
,,,,,R_40Aui9SgjHu89Bh,001,2025-08-22_18h02.15.490,continuous_performance_test,2024.2.4,MacIntel,59.88023952,63b0ab4e-861f-46a9-9887-f81c86729414,5,149.8948,151.4933,space,1,0.3676,,0,1,1,2,1,C,space,,,,,,,,,,
,,,,,R_40Aui9SgjHu89Bh,001,2025-08-22_18h02.15.490,continuous_performance_test,2024.2.4,MacIntel,59.88023952,63b0ab4e-861f-46a9-9887-f81c86729414,5,151.4946,153.1933,space,1,0.363,,0,2,2,13,1,N,space,,,,,,,,,,
,,,,,R_40Aui9SgjHu89Bh,001,2025-08-22_18h02.15.490,continuous_performance_test,2024.2.4,MacIntel,59.88023952,63b0ab4e-861f-46a9-9887-f81c86729414,5,153.195,154.9933,space,1,0.3966,,0,3,3,17,1,R,space,,,,,,,,,,
,,,,,R_40Aui9SgjHu89Bh,001,2025-08-22_18h02.15.490,continuous_performance_test,2024.2.4,MacIntel,59.88023952,63b0ab4e-861f-46a9-9887-f81c86729414,5,154.9945,156.5933,,1,,,0,4,4,25,1,X,,,,,,,,,,,
,,,,,R_40Aui9SgjHu89Bh,001,2025-08-22_18h02.15.490,continuous_performance_test,2024.2.4,MacIntel,59.88023952,63b0ab4e-861f-46a9-9887-f81c86729414,5,156.5946,158.2925,space,1,0.2951,,0,5,5,9,1,J,space,,,,,,,,,,
,,,,,R_40Aui9SgjHu89Bh,001,2025-08-22_18h02.15.490,continuous_performance_test,2024.2.4,MacIntel,59.88023952,63b0ab4e-861f-46a9-9887-f81c86729414,5,158.2939,160.1923,space,1,0.3133,,0,6,6,1,1,B,space,,,,,,,,,,
,,,,,R_40Aui9SgjHu89Bh,001,2025-08-22_18h02.15.490,continuous_performance_test,2024.2.4,MacIntel,59.88023952,63b0ab4e-861f-46a9-9887-f81c86729414,5,160.194,161.9433,space,1,0.2792,,0,7,7,6,1,G,space,,,,,,,,,,
,,,,,R_40Aui9SgjHu89Bh,001,2025-08-22_18h02.15.490,continuous_performance_test,2024.2.4,MacIntel,59.88023952,63b0ab4e-861f-46a9-9887-f81c86729414,5,161.9445,163.6934,space,1,0.2798,,0,8,8,20,1,U,space,,,,,,,,,,
,,,,,R_40Aui9SgjHu89Bh,001,2025-08-22_18h02.15.490,continuous_performance_test,2024.2.4,MacIntel,59.88023952,63b0ab4e-861f-46a9-9887-f81c86729414,5,163.6946,165.6432,space,0,0.2793,,0,9,9,26,1,X,,,,,,,,,,,
,,,,,R_40Aui9SgjHu89Bh,001,2025-08-22_18h02.15.490,continuous_performance_test,2024.2.4,MacIntel,59.88023952,63b0ab4e-861f-46a9-9887-f81c86729414,5,165.6446,167.5432,space,1,0.2801,,0,10,10,22,1,W,space,,,,,,,,,,
,,,,,R_40Aui9SgjHu89Bh,001,2025-08-22_18h02.15.490,continuous_performance_test,2024.2.4,MacIntel,59.88023952,63b0ab4e-861f-46a9-9887-f81c86729414,5,167.5447,169.4432,space,1,0.3625,,0,11,11,11,1,L,space,,,,,,,,,,
,,,,,R_40Aui9SgjHu89Bh,001,2025-08-22_18h02.15.490,continuous_performance_test,2024.2.4,MacIntel,59.88023952,63b0ab4e-861f-46a9-9887-f81c86729414,5,169.4447,171.2433,space,1,0.3127,,0,12,12,12,1,M,space,,,,,,,,,,
,,,,,R_40Aui9SgjHu89Bh,001,2025-08-22_18h02.15.490,continuous_performance_test,2024.2.4,MacIntel,59.88023952,63b0ab4e-861f-46a9-9887-f81c86729414,5,171.2444,172.8432,space,1,0.4128,,0,13,13,5,1,F,space,,,,,,,,,,
,,,,,R_40Aui9SgjHu89Bh,001,2025-08-22_18h02.15.490,continuous_performance_test,2024.2.4,MacIntel,59.88023952,63b0ab4e-861f-46a9-9887-f81c86729414,5,172.8451,174.7432,space,1,0.4183,,0,14,14,24,1,Z,space,,,,,,,,,,
,,,,,R_40Aui9SgjHu89Bh,001,2025-08-22_18h02.15.490,continuous_performance_test,2024.2.4,MacIntel,59.88023952,63b0ab4e-861f-46a9-9887-f81c86729414,5,174.7445,176.4934,,1,,,0,15,15,28,1,X,,,,,,,,,,,
,,,,,R_40Aui9SgjHu89Bh,001,2025-08-22_18h02.15.490,continuous_performance_test,2024.2.4,MacIntel,59.88023952,63b0ab4e-861f-46a9-9887-f81c86729414,5,176.4944,178.4933,space,1,0.2771,,0,16,16,16,1,Q,space,,,,,,,,,,
,,,,,R_40Aui9SgjHu89Bh,001,2025-08-22_18h02.15.490,continuous_performance_test,2024.2.4,MacIntel,59.88023952,63b0ab4e-861f-46a9-9887-f81c86729414,5,178.4947,180.2932,space,1,0.6469,,0,17,17,10,1,K,space,,,,,,,,,,
,,,,,R_40Aui9SgjHu89Bh,001,2025-08-22_18h02.15.490,continuous_performance_test,2024.2.4,MacIntel,59.88023952,63b0ab4e-861f-46a9-9887-f81c86729414,5,180.2949,182.0432,space,1,0.367,,0,18,18,18,1,S,space,,,,,,,,,,
,,,,,R_40Aui9SgjHu89Bh,001,2025-08-22_18h02.15.490,continuous_performance_test,2024.2.4,MacIntel,59.88023952,63b0ab4e-861f-46a9-9887-f81c86729414,5,182.045,183.8432,space,1,0.3455,,0,19,19,4,1,E,space,,,,,,,,,,
,,,,,R_40Aui9SgjHu89Bh,001,2025-08-22_18h02.15.490,continuous_performance_test,2024.2.4,MacIntel,59.88023952,63b0ab4e-861f-46a9-9887-f81c86729414,5,183.8446,185.4422,space,1,0.3849,,0,20,20,0,1,A,space,,,,,,,,,,
,,,,,R_40Aui9SgjHu89Bh,001,2025-08-22_18h02.15.490,continuous_performance_test,2024.2.4,MacIntel,59.88023952,63b0ab4e-861f-46a9-9887-f81c86729414,5,185.4433,187.0932,space,1,0.3962,,0,21,21,23,1,Y,space,,,,,,,,,,
,,,,,R_40Aui9SgjHu89Bh,001,2025-08-22_18h02.15.490,continuous_performance_test,2024.2.4,MacIntel,59.88023952,63b0ab4e-861f-46a9-9887-f81c86729414,5,187.0947,188.7933,,1,,,0,22,22,29,1,X,,,,,,,,,,,
,,,,,R_40Aui9SgjHu89Bh,001,2025-08-22_18h02.15.490,continuous_performance_test,2024.2.4,MacIntel,59.88023952,63b0ab4e-861f-46a9-9887-f81c86729414,5,188.7944,190.593,space,1,0.2645,,0,23,23,7,1,H,space,,,,,,,,,,
,,,,,R_40Aui9SgjHu89Bh,001,2025-08-22_18h02.15.490,continuous_performance_test,2024.2.4,MacIntel,59.88023952,63b0ab4e-861f-46a9-9887-f81c86729414,5,190.5943,192.2923,space,1,0.2629,,0,24,24,19,1,T,space,,,,,,,,,,
,,,,,R_40Aui9SgjHu89Bh,001,2025-08-22_18h02.15.490,continuous_performance_test,2024.2.4,MacIntel,59.88023952,63b0ab4e-861f-46a9-9887-f81c86729414,5,192.2935,194.0932,space,1,0.3302,,0,25,25,3,1,D,space,,,,,,,,,,
,,,,,R_40Aui9SgjHu89Bh,001,2025-08-22_18h02.15.490,continuous_performance_test,2024.2.4,MacIntel,59.88023952,63b0ab4e-861f-46a9-9887-f81c86729414,5,194.0944,195.6431,space,1,0.3467,,0,26,26,8,1,I,space,,,,,,,,,,
,,,,,R_40Aui9SgjHu89Bh,001,2025-08-22_18h02.15.490,continuous_performance_test,2024.2.4,MacIntel,59.88023952,63b0ab4e-861f-46a9-9887-f81c86729414,5,195.6446,197.5432,space,1,0.3303,,0,27,27,14,1,O,space,,,,,,,,,,
,,,,,R_40Aui9SgjHu89Bh,001,2025-08-22_18h02.15.490,continuous_performance_test,2024.2.4,MacIntel,59.88023952,63b0ab4e-861f-46a9-9887-f81c86729414,5,197.5444,199.5432,space,0,0.2587,,0,28,28,27,1,X,,,,,,,,,,,
,,,,,R_40Aui9SgjHu89Bh,001,2025-08-22_18h02.15.490,continuous_performance_test,2024.2.4,MacIntel,59.88023952,63b0ab4e-861f-46a9-9887-f81c86729414,5,199.5445,201.5426,space,1,0.4938,,0,29,29,21,1,V,space,,,,,,,,,,
,,,,,R_40Aui9SgjHu89Bh,001,2025-08-22_18h02.15.490,continuous_performance_test,2024.2.4,MacIntel,59.88023952,63b0ab4e-861f-46a9-9887-f81c86729414,5,216,217.8931,,1,,,0,0,0,27,1,X,,201.5436,215.9932,space,14.4378,,,,,,
,,,,,R_40Aui9SgjHu89Bh,001,2025-08-22_18h02.15.490,continuous_performance_test,2024.2.4,MacIntel,59.88023952,63b0ab4e-861f-46a9-9887-f81c86729414,5,217.8946,219.6931,space,1,0.3464,,0,1,1,22,1,W,space,,,,,,,,,,
,,,,,R_40Aui9SgjHu89Bh,001,2025-08-22_18h02.15.490,continuous_performance_test,2024.2.4,MacIntel,59.88023952,63b0ab4e-861f-46a9-9887-f81c86729414,5,219.6947,221.2931,space,1,0.3769,,0,2,2,2,1,C,space,,,,,,,,,,
,,,,,R_40Aui9SgjHu89Bh,001,2025-08-22_18h02.15.490,continuous_performance_test,2024.2.4,MacIntel,59.88023952,63b0ab4e-861f-46a9-9887-f81c86729414,5,221.2946,223.0431,space,1,0.3155,,0,3,3,9,1,J,space,,,,,,,,,,
,,,,,R_40Aui9SgjHu89Bh,001,2025-08-22_18h02.15.490,continuous_performance_test,2024.2.4,MacIntel,59.88023952,63b0ab4e-861f-46a9-9887-f81c86729414,5,223.0444,224.6432,space,1,0.3298,,0,4,4,4,1,E,space,,,,,,,,,,
,,,,,R_40Aui9SgjHu89Bh,001,2025-08-22_18h02.15.490,continuous_performance_test,2024.2.4,MacIntel,59.88023952,63b0ab4e-861f-46a9-9887-f81c86729414,5,224.6446,226.3921,,1,,,0,5,5,28,1,X,,,,,,,,,,,
,,,,,R_40Aui9SgjHu89Bh,001,2025-08-22_18h02.15.490,continuous_performance_test,2024.2.4,MacIntel,59.88023952,63b0ab4e-861f-46a9-9887-f81c86729414,5,226.3933,228.0932,space,1,0.2959,,0,6,6,16,1,Q,space,,,,,,,,,,
,,,,,R_40Aui9SgjHu89Bh,001,2025-08-22_18h02.15.490,continuous_performance_test,2024.2.4,MacIntel,59.88023952,63b0ab4e-861f-46a9-9887-f81c86729414,5,228.0944,229.6931,space,1,0.3631,,0,7,7,5,1,F,space,,,,,,,,,,
,,,,,R_40Aui9SgjHu89Bh,001,2025-08-22_18h02.15.490,continuous_performance_test,2024.2.4,MacIntel,59.88023952,63b0ab4e-861f-46a9-9887-f81c86729414,5,229.6946,231.2423,space,0,0.2974,,0,8,8,29,1,X,,,,,,,,,,,
,,,,,R_40Aui9SgjHu89Bh,001,2025-08-22_18h02.15.490,continuous_performance_test,2024.2.4,MacIntel,59.88023952,63b0ab4e-861f-46a9-9887-f81c86729414,5,231.244,233.0931,space,1,0.2791,,0,9,9,14,1,O,space,,,,,,,,,,
,,,,,R_40Aui9SgjHu89Bh,001,2025-08-22_18h02.15.490,continuous_performance_test,2024.2.4,MacIntel,59.88023952,63b0ab4e-861f-46a9-9887-f81c86729414,5,233.0942,234.9431,,1,,,0,10,10,26,1,X,,,,,,,,,,,
,,,,,R_40Aui9SgjHu89Bh,001,2025-08-22_18h02.15.490,continuous_performance_test,2024.2.4,MacIntel,59.88023952,63b0ab4e-861f-46a9-9887-f81c86729414,5,234.9445,236.6432,space,1,0.2763,,0,11,11,10,1,K,space,,,,,,,,,,
,,,,,R_40Aui9SgjHu89Bh,001,2025-08-22_18h02.15.490,continuous_performance_test,2024.2.4,MacIntel,59.88023952,63b0ab4e-861f-46a9-9887-f81c86729414,5,236.6446,238.6427,space,1,0.3289,,0,12,12,6,1,G,space,,,,,,,,,,
,,,,,R_40Aui9SgjHu89Bh,001,2025-08-22_18h02.15.490,continuous_performance_test,2024.2.4,MacIntel,59.88023952,63b0ab4e-861f-46a9-9887-f81c86729414,5,238.6431,240.292,space,1,0.3607,,0,13,13,23,1,Y,space,,,,,,,,,,
,,,,,R_40Aui9SgjHu89Bh,001,2025-08-22_18h02.15.490,continuous_performance_test,2024.2.4,MacIntel,59.88023952,63b0ab4e-861f-46a9-9887-f81c86729414,5,240.2932,242.0923,space,1,0.3466,,0,14,14,24,1,Z,space,,,,,,,,,,
,,,,,R_40Aui9SgjHu89Bh,001,2025-08-22_18h02.15.490,continuous_performance_test,2024.2.4,MacIntel,59.88023952,63b0ab4e-861f-46a9-9887-f81c86729414,5,242.0939,243.7932,,1,,,0,15,15,25,1,X,,,,,,,,,,,
,,,,,R_40Aui9SgjHu89Bh,001,2025-08-22_18h02.15.490,continuous_performance_test,2024.2.4,MacIntel,59.88023952,63b0ab4e-861f-46a9-9887-f81c86729414,5,243.7949,245.7422,space,1,0.2467,,0,16,16,18,1,S,space,,,,,,,,,,
,,,,,R_40Aui9SgjHu89Bh,001,2025-08-22_18h02.15.490,continuous_performance_test,2024.2.4,MacIntel,59.88023952,63b0ab4e-861f-46a9-9887-f81c86729414,5,245.7434,247.6923,space,1,0.4297,,0,17,17,17,1,R,space,,,,,,,,,,
,,,,,R_40Aui9SgjHu89Bh,001,2025-08-22_18h02.15.490,continuous_performance_test,2024.2.4,MacIntel,59.88023952,63b0ab4e-861f-46a9-9887-f81c86729414,5,247.6934,249.2932,space,1,0.3474,,0,18,18,20,1,U,space,,,,,,,,,,
,,,,,R_40Aui9SgjHu89Bh,001,2025-08-22_18h02.15.490,continuous_performance_test,2024.2.4,MacIntel,59.88023952,63b0ab4e-861f-46a9-9887-f81c86729414,5,249.2943,251.1431,space,1,0.4301,,0,19,19,19,1,T,space,,,,,,,,,,
,,,,,R_40Aui9SgjHu89Bh,001,2025-08-22_18h02.15.490,continuous_performance_test,2024.2.4,MacIntel,59.88023952,63b0ab4e-861f-46a9-9887-f81c86729414,5,251.1446,252.7432,space,1,0.5959,,0,20,20,11,1,L,space,,,,,,,,,,
,,,,,R_40Aui9SgjHu89Bh,001,2025-08-22_18h02.15.490,continuous_performance_test,2024.2.4,MacIntel,59.88023952,63b0ab4e-861f-46a9-9887-f81c86729414,5,252.7442,254.6933,space,1,0.3466,,0,21,21,12,1,M,space,,,,,,,,,,
,,,,,R_40Aui9SgjHu89Bh,001,2025-08-22_18h02.15.490,continuous_performance_test,2024.2.4,MacIntel,59.88023952,63b0ab4e-861f-46a9-9887-f81c86729414,5,254.6944,256.3433,space,1,0.3756,,0,22,22,21,1,V,space,,,,,,,,,,
,,,,,R_40Aui9SgjHu89Bh,001,2025-08-22_18h02.15.490,continuous_performance_test,2024.2.4,MacIntel,59.88023952,63b0ab4e-861f-46a9-9887-f81c86729414,5,256.3452,258.2931,space,1,0.3127,,0,23,23,0,1,A,space,,,,,,,,,,
,,,,,R_40Aui9SgjHu89Bh,001,2025-08-22_18h02.15.490,continuous_performance_test,2024.2.4,MacIntel,59.88023952,63b0ab4e-861f-46a9-9887-f81c86729414,5,258.2945,259.9423,space,1,0.3682,,0,24,24,3,1,D,space,,,,,,,,,,
,,,,,R_40Aui9SgjHu89Bh,001,2025-08-22_18h02.15.490,continuous_performance_test,2024.2.4,MacIntel,59.88023952,63b0ab4e-861f-46a9-9887-f81c86729414,5,259.9434,261.6431,space,1,0.3963,,0,25,25,13,1,N,space,,,,,,,,,,
,,,,,R_40Aui9SgjHu89Bh,001,2025-08-22_18h02.15.490,continuous_performance_test,2024.2.4,MacIntel,59.88023952,63b0ab4e-861f-46a9-9887-f81c86729414,5,261.6445,263.443,space,1,0.2823,,0,26,26,8,1,I,space,,,,,,,,,,
,,,,,R_40Aui9SgjHu89Bh,001,2025-08-22_18h02.15.490,continuous_performance_test,2024.2.4,MacIntel,59.88023952,63b0ab4e-861f-46a9-9887-f81c86729414,5,263.4442,265.343,space,1,0.3656,,0,27,27,15,1,P,space,,,,,,,,,,
,,,,,R_40Aui9SgjHu89Bh,001,2025-08-22_18h02.15.490,continuous_performance_test,2024.2.4,MacIntel,59.88023952,63b0ab4e-861f-46a9-9887-f81c86729414,5,265.3443,266.8931,space,1,0.3148,,0,28,28,7,1,H,space,,,,,,,,,,
,,,,,R_40Aui9SgjHu89Bh,001,2025-08-22_18h02.15.490,continuous_performance_test,2024.2.4,MacIntel,59.88023952,63b0ab4e-861f-46a9-9887-f81c86729414,5,266.8946,268.5432,space,1,0.3177,,0,29,29,1,1,B,space,,,,,,,,,,
,,,,,R_40Aui9SgjHu89Bh,001,2025-08-22_18h02.15.490,continuous_performance_test,2024.2.4,MacIntel,59.88023952,63b0ab4e-861f-46a9-9887-f81c86729414,5,283.5491,285.1927,space,1,0.8247,,0,0,0,6,1,G,space,268.5442,283.5431,,,,,,,,
,,,,,R_40Aui9SgjHu89Bh,001,2025-08-22_18h02.15.490,continuous_performance_test,2024.2.4,MacIntel,59.88023952,63b0ab4e-861f-46a9-9887-f81c86729414,5,285.194,286.9433,space,0,0.345,,0,1,1,26,1,X,,,,,,,,,,,
,,,,,R_40Aui9SgjHu89Bh,001,2025-08-22_18h02.15.490,continuous_performance_test,2024.2.4,MacIntel,59.88023952,63b0ab4e-861f-46a9-9887-f81c86729414,5,286.9447,288.643,space,1,0.2885,,0,2,2,16,1,Q,space,,,,,,,,,,
,,,,,R_40Aui9SgjHu89Bh,001,2025-08-22_18h02.15.490,continuous_performance_test,2024.2.4,MacIntel,59.88023952,63b0ab4e-861f-46a9-9887-f81c86729414,5,288.6444,290.543,,1,,,0,3,3,29,1,X,,,,,,,,,,,
,,,,,R_40Aui9SgjHu89Bh,001,2025-08-22_18h02.15.490,continuous_performance_test,2024.2.4,MacIntel,59.88023952,63b0ab4e-861f-46a9-9887-f81c86729414,5,290.5441,292.0922,space,1,0.4493,,0,4,4,11,1,L,space,,,,,,,,,,
,,,,,R_40Aui9SgjHu89Bh,001,2025-08-22_18h02.15.490,continuous_performance_test,2024.2.4,MacIntel,59.88023952,63b0ab4e-861f-46a9-9887-f81c86729414,5,292.0937,294.0922,space,1,0.363,,0,5,5,19,1,T,space,,,,,,,,,,
,,,,,R_40Aui9SgjHu89Bh,001,2025-08-22_18h02.15.490,continuous_performance_test,2024.2.4,MacIntel,59.88023952,63b0ab4e-861f-46a9-9887-f81c86729414,5,294.0936,295.9429,space,1,0.4293,,0,6,6,15,1,P,space,,,,,,,,,,
,,,,,R_40Aui9SgjHu89Bh,001,2025-08-22_18h02.15.490,continuous_performance_test,2024.2.4,MacIntel,59.88023952,63b0ab4e-861f-46a9-9887-f81c86729414,5,295.9442,297.5919,space,1,0.415,,0,7,7,8,1,I,space,,,,,,,,,,
,,,,,R_40Aui9SgjHu89Bh,001,2025-08-22_18h02.15.490,continuous_performance_test,2024.2.4,MacIntel,59.88023952,63b0ab4e-861f-46a9-9887-f81c86729414,5,297.5929,299.2931,space,0,0.5986,,0,8,8,27,1,X,,,,,,,,,,,
,,,,,R_40Aui9SgjHu89Bh,001,2025-08-22_18h02.15.490,continuous_performance_test,2024.2.4,MacIntel,59.88023952,63b0ab4e-861f-46a9-9887-f81c86729414,5,299.2945,301.143,space,1,0.2789,,0,9,9,21,1,V,space,,,,,,,,,,
,,,,,R_40Aui9SgjHu89Bh,001,2025-08-22_18h02.15.490,continuous_performance_test,2024.2.4,MacIntel,59.88023952,63b0ab4e-861f-46a9-9887-f81c86729414,5,301.1443,302.793,space,1,0.3631,,0,10,10,23,1,Y,space,,,,,,,,,,
,,,,,R_40Aui9SgjHu89Bh,001,2025-08-22_18h02.15.490,continuous_performance_test,2024.2.4,MacIntel,59.88023952,63b0ab4e-861f-46a9-9887-f81c86729414,5,302.7944,304.4929,space,1,0.9285,,0,11,11,5,1,F,space,,,,,,,,,,
,,,,,R_40Aui9SgjHu89Bh,001,2025-08-22_18h02.15.490,continuous_performance_test,2024.2.4,MacIntel,59.88023952,63b0ab4e-861f-46a9-9887-f81c86729414,5,304.4939,306.2921,space,1,0.3433,,0,12,12,12,1,M,space,,,,,,,,,,
,,,,,R_40Aui9SgjHu89Bh,001,2025-08-22_18h02.15.490,continuous_performance_test,2024.2.4,MacIntel,59.88023952,63b0ab4e-861f-46a9-9887-f81c86729414,5,306.2934,307.9431,space,1,0.3005,,0,13,13,3,1,D,space,,,,,,,,,,
,,,,,R_40Aui9SgjHu89Bh,001,2025-08-22_18h02.15.490,continuous_performance_test,2024.2.4,MacIntel,59.88023952,63b0ab4e-861f-46a9-9887-f81c86729414,5,307.9442,309.5925,space,1,0.3433,,0,14,14,13,1,N,space,,,,,,,,,,
,,,,,R_40Aui9SgjHu89Bh,001,2025-08-22_18h02.15.490,continuous_performance_test,2024.2.4,MacIntel,59.88023952,63b0ab4e-861f-46a9-9887-f81c86729414,5,309.5937,311.3431,space,1,0.2616,,0,15,15,24,1,Z,space,,,,,,,,,,
,,,,,R_40Aui9SgjHu89Bh,001,2025-08-22_18h02.15.490,continuous_performance_test,2024.2.4,MacIntel,59.88023952,63b0ab4e-861f-46a9-9887-f81c86729414,5,311.3442,312.943,space,0,0.3145,,0,16,16,25,1,X,,,,,,,,,,,
,,,,,R_40Aui9SgjHu89Bh,001,2025-08-22_18h02.15.490,continuous_performance_test,2024.2.4,MacIntel,59.88023952,63b0ab4e-861f-46a9-9887-f81c86729414,5,312.9442,314.8925,space,1,0.2588,,0,17,17,14,1,O,space,,,,,,,,,,
,,,,,R_40Aui9SgjHu89Bh,001,2025-08-22_18h02.15.490,continuous_performance_test,2024.2.4,MacIntel,59.88023952,63b0ab4e-861f-46a9-9887-f81c86729414,5,314.8939,316.7426,space,1,0.2315,,0,18,18,9,1,J,space,,,,,,,,,,
,,,,,R_40Aui9SgjHu89Bh,001,2025-08-22_18h02.15.490,continuous_performance_test,2024.2.4,MacIntel,59.88023952,63b0ab4e-861f-46a9-9887-f81c86729414,5,316.7434,318.6927,space,1,0.4813,,0,19,19,10,1,K,space,,,,,,,,,,
,,,,,R_40Aui9SgjHu89Bh,001,2025-08-22_18h02.15.490,continuous_performance_test,2024.2.4,MacIntel,59.88023952,63b0ab4e-861f-46a9-9887-f81c86729414,5,318.694,320.6924,space,1,0.3441,,0,20,20,17,1,R,space,,,,,,,,,,
,,,,,R_40Aui9SgjHu89Bh,001,2025-08-22_18h02.15.490,continuous_performance_test,2024.2.4,MacIntel,59.88023952,63b0ab4e-861f-46a9-9887-f81c86729414,5,320.6935,322.642,space,1,0.3713,,0,21,21,2,1,C,space,,,,,,,,,,
,,,,,R_40Aui9SgjHu89Bh,001,2025-08-22_18h02.15.490,continuous_performance_test,2024.2.4,MacIntel,59.88023952,63b0ab4e-861f-46a9-9887-f81c86729414,5,322.6431,324.593,space,1,0.3421,,0,22,22,22,1,W,space,,,,,,,,,,
,,,,,R_40Aui9SgjHu89Bh,001,2025-08-22_18h02.15.490,continuous_performance_test,2024.2.4,MacIntel,59.88023952,63b0ab4e-861f-46a9-9887-f81c86729414,5,324.5943,326.1924,space,1,0.3607,,0,23,23,7,1,H,space,,,,,,,,,,
,,,,,R_40Aui9SgjHu89Bh,001,2025-08-22_18h02.15.490,continuous_performance_test,2024.2.4,MacIntel,59.88023952,63b0ab4e-861f-46a9-9887-f81c86729414,5,326.194,328.1929,,1,,,0,24,24,28,1,X,,,,,,,,,,,
,,,,,R_40Aui9SgjHu89Bh,001,2025-08-22_18h02.15.490,continuous_performance_test,2024.2.4,MacIntel,59.88023952,63b0ab4e-861f-46a9-9887-f81c86729414,5,328.1942,329.993,space,1,0.278,,0,25,25,4,1,E,space,,,,,,,,,,
,,,,,R_40Aui9SgjHu89Bh,001,2025-08-22_18h02.15.490,continuous_performance_test,2024.2.4,MacIntel,59.88023952,63b0ab4e-861f-46a9-9887-f81c86729414,5,329.9944,331.8422,space,1,0.2935,,0,26,26,20,1,U,space,,,,,,,,,,
,,,,,R_40Aui9SgjHu89Bh,001,2025-08-22_18h02.15.490,continuous_performance_test,2024.2.4,MacIntel,59.88023952,63b0ab4e-861f-46a9-9887-f81c86729414,5,331.8433,333.6431,space,1,0.3113,,0,27,27,0,1,A,space,,,,,,,,,,
,,,,,R_40Aui9SgjHu89Bh,001,2025-08-22_18h02.15.490,continuous_performance_test,2024.2.4,MacIntel,59.88023952,63b0ab4e-861f-46a9-9887-f81c86729414,5,333.6442,335.593,space,1,0.2421,,0,28,28,1,1,B,space,,,,,,,,,,
,,,,,R_40Aui9SgjHu89Bh,001,2025-08-22_18h02.15.490,continuous_performance_test,2024.2.4,MacIntel,59.88023952,63b0ab4e-861f-46a9-9887-f81c86729414,5,335.5942,337.3919,space,1,0.2956,,0,29,29,18,1,S,space,,,,,,,,,,
,,,,,R_40Aui9SgjHu89Bh,001,2025-08-22_18h02.15.490,continuous_performance_test,2024.2.4,MacIntel,59.88023952,63b0ab4e-861f-46a9-9887-f81c86729414,5,351.9009,353.643,space,0,0.3212,,0,0,0,29,1,X,,337.3927,351.893,space,14.4708,,,,,,
,,,,,R_40Aui9SgjHu89Bh,001,2025-08-22_18h02.15.490,continuous_performance_test,2024.2.4,MacIntel,59.88023952,63b0ab4e-861f-46a9-9887-f81c86729414,5,353.6447,355.2428,space,1,0.3234,,0,1,1,4,1,E,space,,,,,,,,,,
,,,,,R_40Aui9SgjHu89Bh,001,2025-08-22_18h02.15.490,continuous_performance_test,2024.2.4,MacIntel,59.88023952,63b0ab4e-861f-46a9-9887-f81c86729414,5,355.2443,356.943,space,1,0.3276,,0,2,2,17,1,R,space,,,,,,,,,,
,,,,,R_40Aui9SgjHu89Bh,001,2025-08-22_18h02.15.490,continuous_performance_test,2024.2.4,MacIntel,59.88023952,63b0ab4e-861f-46a9-9887-f81c86729414,5,356.9441,358.8928,space,1,0.3931,,0,3,3,19,1,T,space,,,,,,,,,,
,,,,,R_40Aui9SgjHu89Bh,001,2025-08-22_18h02.15.490,continuous_performance_test,2024.2.4,MacIntel,59.88023952,63b0ab4e-861f-46a9-9887-f81c86729414,5,358.8943,360.5929,space,1,0.2932,,0,4,4,24,1,Z,space,,,,,,,,,,
,,,,,R_40Aui9SgjHu89Bh,001,2025-08-22_18h02.15.490,continuous_performance_test,2024.2.4,MacIntel,59.88023952,63b0ab4e-861f-46a9-9887-f81c86729414,5,360.5944,362.5428,space,1,0.3278,,0,5,5,15,1,P,space,,,,,,,,,,
,,,,,R_40Aui9SgjHu89Bh,001,2025-08-22_18h02.15.490,continuous_performance_test,2024.2.4,MacIntel,59.88023952,63b0ab4e-861f-46a9-9887-f81c86729414,5,362.5445,364.0925,space,0,0.33,,0,6,6,25,1,X,,,,,,,,,,,
,,,,,R_40Aui9SgjHu89Bh,001,2025-08-22_18h02.15.490,continuous_performance_test,2024.2.4,MacIntel,59.88023952,63b0ab4e-861f-46a9-9887-f81c86729414,5,364.0942,366.0929,space,1,0.2543,,0,7,7,14,1,O,space,,,,,,,,,,
,,,,,R_40Aui9SgjHu89Bh,001,2025-08-22_18h02.15.490,continuous_performance_test,2024.2.4,MacIntel,59.88023952,63b0ab4e-861f-46a9-9887-f81c86729414,5,366.0943,367.8928,space,1,0.3287,,0,8,8,9,1,J,space,,,,,,,,,,
,,,,,R_40Aui9SgjHu89Bh,001,2025-08-22_18h02.15.490,continuous_performance_test,2024.2.4,MacIntel,59.88023952,63b0ab4e-861f-46a9-9887-f81c86729414,5,367.8942,369.8927,space,1,0.3217,,0,9,9,2,1,C,space,,,,,,,,,,
,,,,,R_40Aui9SgjHu89Bh,001,2025-08-22_18h02.15.490,continuous_performance_test,2024.2.4,MacIntel,59.88023952,63b0ab4e-861f-46a9-9887-f81c86729414,5,369.8941,371.4928,space,1,0.3611,,0,10,10,12,1,M,space,,,,,,,,,,
,,,,,R_40Aui9SgjHu89Bh,001,2025-08-22_18h02.15.490,continuous_performance_test,2024.2.4,MacIntel,59.88023952,63b0ab4e-861f-46a9-9887-f81c86729414,5,371.4941,373.1428,space,0,0.297,,0,11,11,27,1,X,,,,,,,,,,,
,,,,,R_40Aui9SgjHu89Bh,001,2025-08-22_18h02.15.490,continuous_performance_test,2024.2.4,MacIntel,59.88023952,63b0ab4e-861f-46a9-9887-f81c86729414,5,373.144,375.1429,space,1,0.3274,,0,12,12,20,1,U,space,,,,,,,,,,
,,,,,R_40Aui9SgjHu89Bh,001,2025-08-22_18h02.15.490,continuous_performance_test,2024.2.4,MacIntel,59.88023952,63b0ab4e-861f-46a9-9887-f81c86729414,5,375.1443,377.0428,,1,,,0,13,13,28,1,X,,,,,,,,,,,
,,,,,R_40Aui9SgjHu89Bh,001,2025-08-22_18h02.15.490,continuous_performance_test,2024.2.4,MacIntel,59.88023952,63b0ab4e-861f-46a9-9887-f81c86729414,5,377.044,378.5928,space,1,0.306,,0,14,14,1,1,B,space,,,,,,,,,,
,,,,,R_40Aui9SgjHu89Bh,001,2025-08-22_18h02.15.490,continuous_performance_test,2024.2.4,MacIntel,59.88023952,63b0ab4e-861f-46a9-9887-f81c86729414,5,378.5943,380.2427,space,1,0.4095,,0,15,15,21,1,V,space,,,,,,,,,,
,,,,,R_40Aui9SgjHu89Bh,001,2025-08-22_18h02.15.490,continuous_performance_test,2024.2.4,MacIntel,59.88023952,63b0ab4e-861f-46a9-9887-f81c86729414,5,380.2441,381.7923,space,1,0.3968,,0,16,16,10,1,K,space,,,,,,,,,,
,,,,,R_40Aui9SgjHu89Bh,001,2025-08-22_18h02.15.490,continuous_performance_test,2024.2.4,MacIntel,59.88023952,63b0ab4e-861f-46a9-9887-f81c86729414,5,381.7937,383.6428,space,1,0.4678,,0,17,17,3,1,D,space,,,,,,,,,,
,,,,,R_40Aui9SgjHu89Bh,001,2025-08-22_18h02.15.490,continuous_performance_test,2024.2.4,MacIntel,59.88023952,63b0ab4e-861f-46a9-9887-f81c86729414,5,383.6444,385.2928,space,1,0.3613,,0,18,18,0,1,A,space,,,,,,,,,,
,,,,,R_40Aui9SgjHu89Bh,001,2025-08-22_18h02.15.490,continuous_performance_test,2024.2.4,MacIntel,59.88023952,63b0ab4e-861f-46a9-9887-f81c86729414,5,385.2941,386.9428,space,1,0.3731,,0,19,19,18,1,S,space,,,,,,,,,,
,,,,,R_40Aui9SgjHu89Bh,001,2025-08-22_18h02.15.490,continuous_performance_test,2024.2.4,MacIntel,59.88023952,63b0ab4e-861f-46a9-9887-f81c86729414,5,386.944,388.7427,space,1,0.2885,,0,20,20,23,1,Y,space,,,,,,,,,,
,,,,,R_40Aui9SgjHu89Bh,001,2025-08-22_18h02.15.490,continuous_performance_test,2024.2.4,MacIntel,59.88023952,63b0ab4e-861f-46a9-9887-f81c86729414,5,388.7441,390.3916,space,1,0.3102,,0,21,21,7,1,H,space,,,,,,,,,,
,,,,,R_40Aui9SgjHu89Bh,001,2025-08-22_18h02.15.490,continuous_performance_test,2024.2.4,MacIntel,59.88023952,63b0ab4e-861f-46a9-9887-f81c86729414,5,390.3922,392.2928,space,1,0.263,,0,22,22,5,1,F,space,,,,,,,,,,
,,,,,R_40Aui9SgjHu89Bh,001,2025-08-22_18h02.15.490,continuous_performance_test,2024.2.4,MacIntel,59.88023952,63b0ab4e-861f-46a9-9887-f81c86729414,5,392.2939,394.1929,space,1,0.2649,,0,23,23,6,1,G,space,,,,,,,,,,
,,,,,R_40Aui9SgjHu89Bh,001,2025-08-22_18h02.15.490,continuous_performance_test,2024.2.4,MacIntel,59.88023952,63b0ab4e-861f-46a9-9887-f81c86729414,5,394.194,395.9429,space,0,0.3256,,0,24,24,26,1,X,,,,,,,,,,,
,,,,,R_40Aui9SgjHu89Bh,001,2025-08-22_18h02.15.490,continuous_performance_test,2024.2.4,MacIntel,59.88023952,63b0ab4e-861f-46a9-9887-f81c86729414,5,395.9439,397.942,space,1,0.2891,,0,25,25,16,1,Q,space,,,,,,,,,,
,,,,,R_40Aui9SgjHu89Bh,001,2025-08-22_18h02.15.490,continuous_performance_test,2024.2.4,MacIntel,59.88023952,63b0ab4e-861f-46a9-9887-f81c86729414,5,397.9434,399.7923,space,1,0.3379,,0,26,26,22,1,W,space,,,,,,,,,,
,,,,,R_40Aui9SgjHu89Bh,001,2025-08-22_18h02.15.490,continuous_performance_test,2024.2.4,MacIntel,59.88023952,63b0ab4e-861f-46a9-9887-f81c86729414,5,399.7936,401.543,space,1,0.3425,,0,27,27,13,1,N,space,,,,,,,,,,
,,,,,R_40Aui9SgjHu89Bh,001,2025-08-22_18h02.15.490,continuous_performance_test,2024.2.4,MacIntel,59.88023952,63b0ab4e-861f-46a9-9887-f81c86729414,5,401.544,403.2427,space,1,0.3146,,0,28,28,8,1,I,space,,,,,,,,,,
,,,,,R_40Aui9SgjHu89Bh,001,2025-08-22_18h02.15.490,continuous_performance_test,2024.2.4,MacIntel,59.88023952,63b0ab4e-861f-46a9-9887-f81c86729414,5,403.244,404.7927,space,1,0.3774,,0,29,29,11,1,L,space,,,,,,,,,,
,,,,,R_40Aui9SgjHu89Bh,001,2025-08-22_18h02.15.490,continuous_performance_test,2024.2.4,MacIntel,59.88023952,63b0ab4e-861f-46a9-9887-f81c86729414,5,419.8009,421.5428,space,1,0.3599,,0,0,0,12,1,M,space,404.7941,419.7929,,,,,,,,
,,,,,R_40Aui9SgjHu89Bh,001,2025-08-22_18h02.15.490,continuous_performance_test,2024.2.4,MacIntel,59.88023952,63b0ab4e-861f-46a9-9887-f81c86729414,5,421.544,423.1925,space,1,0.3607,,0,1,1,8,1,I,space,,,,,,,,,,
,,,,,R_40Aui9SgjHu89Bh,001,2025-08-22_18h02.15.490,continuous_performance_test,2024.2.4,MacIntel,59.88023952,63b0ab4e-861f-46a9-9887-f81c86729414,5,423.1929,424.9928,space,1,0.3126,,0,2,2,11,1,L,space,,,,,,,,,,
,,,,,R_40Aui9SgjHu89Bh,001,2025-08-22_18h02.15.490,continuous_performance_test,2024.2.4,MacIntel,59.88023952,63b0ab4e-861f-46a9-9887-f81c86729414,5,424.9941,426.8425,,1,,,0,3,3,25,1,X,,,,,,,,,,,
,,,,,R_40Aui9SgjHu89Bh,001,2025-08-22_18h02.15.490,continuous_performance_test,2024.2.4,MacIntel,59.88023952,63b0ab4e-861f-46a9-9887-f81c86729414,5,426.844,428.442,space,1,0.3449,,0,4,4,21,1,V,space,,,,,,,,,,
,,,,,R_40Aui9SgjHu89Bh,001,2025-08-22_18h02.15.490,continuous_performance_test,2024.2.4,MacIntel,59.88023952,63b0ab4e-861f-46a9-9887-f81c86729414,5,428.4433,430.3922,space,0,0.2754,,0,5,5,29,1,X,,,,,,,,,,,
,,,,,R_40Aui9SgjHu89Bh,001,2025-08-22_18h02.15.490,continuous_performance_test,2024.2.4,MacIntel,59.88023952,63b0ab4e-861f-46a9-9887-f81c86729414,5,430.3937,431.9428,space,1,0.3625,,0,6,6,15,1,P,space,,,,,,,,,,
,,,,,R_40Aui9SgjHu89Bh,001,2025-08-22_18h02.15.490,continuous_performance_test,2024.2.4,MacIntel,59.88023952,63b0ab4e-861f-46a9-9887-f81c86729414,5,431.9441,433.8429,space,1,0.2952,,0,7,7,3,1,D,space,,,,,,,,,,
,,,,,R_40Aui9SgjHu89Bh,001,2025-08-22_18h02.15.490,continuous_performance_test,2024.2.4,MacIntel,59.88023952,63b0ab4e-861f-46a9-9887-f81c86729414,5,433.844,435.4927,space,1,0.3772,,0,8,8,23,1,Y,space,,,,,,,,,,
,,,,,R_40Aui9SgjHu89Bh,001,2025-08-22_18h02.15.490,continuous_performance_test,2024.2.4,MacIntel,59.88023952,63b0ab4e-861f-46a9-9887-f81c86729414,5,435.494,437.1927,space,1,0.3783,,0,9,9,0,1,A,space,,,,,,,,,,
,,,,,R_40Aui9SgjHu89Bh,001,2025-08-22_18h02.15.490,continuous_performance_test,2024.2.4,MacIntel,59.88023952,63b0ab4e-861f-46a9-9887-f81c86729414,5,437.1938,439.0917,space,1,0.3616,,0,10,10,2,1,C,space,,,,,,,,,,
,,,,,R_40Aui9SgjHu89Bh,001,2025-08-22_18h02.15.490,continuous_performance_test,2024.2.4,MacIntel,59.88023952,63b0ab4e-861f-46a9-9887-f81c86729414,5,439.093,440.7927,space,1,0.3124,,0,11,11,14,1,O,space,,,,,,,,,,
,,,,,R_40Aui9SgjHu89Bh,001,2025-08-22_18h02.15.490,continuous_performance_test,2024.2.4,MacIntel,59.88023952,63b0ab4e-861f-46a9-9887-f81c86729414,5,440.7939,442.4916,space,1,0.2453,,0,12,12,10,1,K,space,,,,,,,,,,
,,,,,R_40Aui9SgjHu89Bh,001,2025-08-22_18h02.15.490,continuous_performance_test,2024.2.4,MacIntel,59.88023952,63b0ab4e-861f-46a9-9887-f81c86729414,5,442.4927,444.1928,space,1,0.325,,0,13,13,16,1,Q,space,,,,,,,,,,
,,,,,R_40Aui9SgjHu89Bh,001,2025-08-22_18h02.15.490,continuous_performance_test,2024.2.4,MacIntel,59.88023952,63b0ab4e-861f-46a9-9887-f81c86729414,5,444.194,445.9928,space,1,0.3271,,0,14,14,20,1,U,space,,,,,,,,,,
,,,,,R_40Aui9SgjHu89Bh,001,2025-08-22_18h02.15.490,continuous_performance_test,2024.2.4,MacIntel,59.88023952,63b0ab4e-861f-46a9-9887-f81c86729414,5,445.994,447.5428,space,1,0.331,,0,15,15,17,1,R,space,,,,,,,,,,
,,,,,R_40Aui9SgjHu89Bh,001,2025-08-22_18h02.15.490,continuous_performance_test,2024.2.4,MacIntel,59.88023952,63b0ab4e-861f-46a9-9887-f81c86729414,5,447.5442,449.3926,space,1,0.3584,,0,16,16,22,1,W,space,,,,,,,,,,
,,,,,R_40Aui9SgjHu89Bh,001,2025-08-22_18h02.15.490,continuous_performance_test,2024.2.4,MacIntel,59.88023952,63b0ab4e-861f-46a9-9887-f81c86729414,5,449.3941,451.2427,space,1,0.2936,,0,17,17,1,1,B,space,,,,,,,,,,
,,,,,R_40Aui9SgjHu89Bh,001,2025-08-22_18h02.15.490,continuous_performance_test,2024.2.4,MacIntel,59.88023952,63b0ab4e-861f-46a9-9887-f81c86729414,5,451.2441,452.7927,space,1,0.3776,,0,18,18,9,1,J,space,,,,,,,,,,
,,,,,R_40Aui9SgjHu89Bh,001,2025-08-22_18h02.15.490,continuous_performance_test,2024.2.4,MacIntel,59.88023952,63b0ab4e-861f-46a9-9887-f81c86729414,5,452.7941,454.5427,space,1,0.3105,,0,19,19,6,1,G,space,,,,,,,,,,
,,,,,R_40Aui9SgjHu89Bh,001,2025-08-22_18h02.15.490,continuous_performance_test,2024.2.4,MacIntel,59.88023952,63b0ab4e-861f-46a9-9887-f81c86729414,5,454.5439,456.3916,,1,,,0,20,20,27,1,X,,,,,,,,,,,
,,,,,R_40Aui9SgjHu89Bh,001,2025-08-22_18h02.15.490,continuous_performance_test,2024.2.4,MacIntel,59.88023952,63b0ab4e-861f-46a9-9887-f81c86729414,5,456.3926,458.3426,space,0,0.267,,0,21,21,28,1,X,,,,,,,,,,,
,,,,,R_40Aui9SgjHu89Bh,001,2025-08-22_18h02.15.490,continuous_performance_test,2024.2.4,MacIntel,59.88023952,63b0ab4e-861f-46a9-9887-f81c86729414,5,458.3439,460.1427,space,1,0.4439,,0,22,22,4,1,E,space,,,,,,,,,,
,,,,,R_40Aui9SgjHu89Bh,001,2025-08-22_18h02.15.490,continuous_performance_test,2024.2.4,MacIntel,59.88023952,63b0ab4e-861f-46a9-9887-f81c86729414,5,460.144,462.0928,space,1,0.2392,,0,23,23,18,1,S,space,,,,,,,,,,
,,,,,R_40Aui9SgjHu89Bh,001,2025-08-22_18h02.15.490,continuous_performance_test,2024.2.4,MacIntel,59.88023952,63b0ab4e-861f-46a9-9887-f81c86729414,5,462.0939,463.9426,space,1,0.2796,,0,24,24,7,1,H,space,,,,,,,,,,
,,,,,R_40Aui9SgjHu89Bh,001,2025-08-22_18h02.15.490,continuous_performance_test,2024.2.4,MacIntel,59.88023952,63b0ab4e-861f-46a9-9887-f81c86729414,5,463.9441,465.9426,space,1,0.2732,,0,25,25,19,1,T,space,,,,,,,,,,
,,,,,R_40Aui9SgjHu89Bh,001,2025-08-22_18h02.15.490,continuous_performance_test,2024.2.4,MacIntel,59.88023952,63b0ab4e-861f-46a9-9887-f81c86729414,5,465.9442,467.8927,space,1,0.2944,,0,26,26,24,1,Z,space,,,,,,,,,,
,,,,,R_40Aui9SgjHu89Bh,001,2025-08-22_18h02.15.490,continuous_performance_test,2024.2.4,MacIntel,59.88023952,63b0ab4e-861f-46a9-9887-f81c86729414,5,467.8942,469.6921,space,1,0.3446,,0,27,27,13,1,N,space,,,,,,,,,,
,,,,,R_40Aui9SgjHu89Bh,001,2025-08-22_18h02.15.490,continuous_performance_test,2024.2.4,MacIntel,59.88023952,63b0ab4e-861f-46a9-9887-f81c86729414,5,469.6934,471.5418,space,1,0.3619,,0,28,28,5,1,F,space,,,,,,,,,,
,,,,,R_40Aui9SgjHu89Bh,001,2025-08-22_18h02.15.490,continuous_performance_test,2024.2.4,MacIntel,59.88023952,63b0ab4e-861f-46a9-9887-f81c86729414,5,471.5432,473.5421,space,0,0.2962,,0,29,29,26,1,X,,,,,,,,,,,
,,,,,R_40Aui9SgjHu89Bh,001,2025-08-22_18h02.15.490,continuous_performance_test,2024.2.4,MacIntel,59.88023952,63b0ab4e-861f-46a9-9887-f81c86729414,5,485.4318,487.3252,space,1,0.382,,0,0,0,0,1,A,space,473.5434,485.4252,space,11.8618,,,,,,
,,,,,R_40Aui9SgjHu89Bh,001,2025-08-22_18h02.15.490,continuous_performance_test,2024.2.4,MacIntel,59.88023952,63b0ab4e-861f-46a9-9887-f81c86729414,5,487.3271,488.876,space,1,0.391,,0,1,1,8,1,I,space,,,,,,,,,,
,,,,,R_40Aui9SgjHu89Bh,001,2025-08-22_18h02.15.490,continuous_performance_test,2024.2.4,MacIntel,59.88023952,63b0ab4e-861f-46a9-9887-f81c86729414,5,488.8776,490.7748,space,1,0.3626,,0,2,2,18,1,S,space,,,,,,,,,,
,,,,,R_40Aui9SgjHu89Bh,001,2025-08-22_18h02.15.490,continuous_performance_test,2024.2.4,MacIntel,59.88023952,63b0ab4e-861f-46a9-9887-f81c86729414,5,490.776,492.676,space,1,0.3564,,0,3,3,9,1,J,space,,,,,,,,,,
,,,,,R_40Aui9SgjHu89Bh,001,2025-08-22_18h02.15.490,continuous_performance_test,2024.2.4,MacIntel,59.88023952,63b0ab4e-861f-46a9-9887-f81c86729414,5,492.6772,494.5249,space,1,0.2792,,0,4,4,15,1,P,space,,,,,,,,,,
,,,,,R_40Aui9SgjHu89Bh,001,2025-08-22_18h02.15.490,continuous_performance_test,2024.2.4,MacIntel,59.88023952,63b0ab4e-861f-46a9-9887-f81c86729414,5,494.5261,496.1749,space,1,0.375,,0,5,5,21,1,V,space,,,,,,,,,,
,,,,,R_40Aui9SgjHu89Bh,001,2025-08-22_18h02.15.490,continuous_performance_test,2024.2.4,MacIntel,59.88023952,63b0ab4e-861f-46a9-9887-f81c86729414,5,496.1761,497.776,space,1,0.3142,,0,6,6,1,1,B,space,,,,,,,,,,
,,,,,R_40Aui9SgjHu89Bh,001,2025-08-22_18h02.15.490,continuous_performance_test,2024.2.4,MacIntel,59.88023952,63b0ab4e-861f-46a9-9887-f81c86729414,5,497.7776,499.3259,space,1,0.3285,,0,7,7,3,1,D,space,,,,,,,,,,
,,,,,R_40Aui9SgjHu89Bh,001,2025-08-22_18h02.15.490,continuous_performance_test,2024.2.4,MacIntel,59.88023952,63b0ab4e-861f-46a9-9887-f81c86729414,5,499.3269,501.1248,space,1,0.314,,0,8,8,14,1,O,space,,,,,,,,,,
,,,,,R_40Aui9SgjHu89Bh,001,2025-08-22_18h02.15.490,continuous_performance_test,2024.2.4,MacIntel,59.88023952,63b0ab4e-861f-46a9-9887-f81c86729414,5,501.1262,502.9759,space,1,0.3417,,0,9,9,7,1,H,space,,,,,,,,,,
,,,,,R_40Aui9SgjHu89Bh,001,2025-08-22_18h02.15.490,continuous_performance_test,2024.2.4,MacIntel,59.88023952,63b0ab4e-861f-46a9-9887-f81c86729414,5,502.9772,504.5748,space,0,0.3452,,0,10,10,28,1,X,,,,,,,,,,,
,,,,,R_40Aui9SgjHu89Bh,001,2025-08-22_18h02.15.490,continuous_performance_test,2024.2.4,MacIntel,59.88023952,63b0ab4e-861f-46a9-9887-f81c86729414,5,504.5761,506.3259,space,1,0.3144,,0,11,11,19,1,T,space,,,,,,,,,,
,,,,,R_40Aui9SgjHu89Bh,001,2025-08-22_18h02.15.490,continuous_performance_test,2024.2.4,MacIntel,59.88023952,63b0ab4e-861f-46a9-9887-f81c86729414,5,506.3271,508.126,space,1,0.2639,,0,12,12,17,1,R,space,,,,,,,,,,
,,,,,R_40Aui9SgjHu89Bh,001,2025-08-22_18h02.15.490,continuous_performance_test,2024.2.4,MacIntel,59.88023952,63b0ab4e-861f-46a9-9887-f81c86729414,5,508.1272,510.0248,space,1,0.2937,,0,13,13,10,1,K,space,,,,,,,,,,
,,,,,R_40Aui9SgjHu89Bh,001,2025-08-22_18h02.15.490,continuous_performance_test,2024.2.4,MacIntel,59.88023952,63b0ab4e-861f-46a9-9887-f81c86729414,5,510.0262,511.9759,space,1,0.3472,,0,14,14,5,1,F,space,,,,,,,,,,
,,,,,R_40Aui9SgjHu89Bh,001,2025-08-22_18h02.15.490,continuous_performance_test,2024.2.4,MacIntel,59.88023952,63b0ab4e-861f-46a9-9887-f81c86729414,5,511.9771,513.8249,space,1,0.359,,0,15,15,22,1,W,space,,,,,,,,,,
,,,,,R_40Aui9SgjHu89Bh,001,2025-08-22_18h02.15.490,continuous_performance_test,2024.2.4,MacIntel,59.88023952,63b0ab4e-861f-46a9-9887-f81c86729414,5,513.8264,515.4751,space,1,0.3475,,0,16,16,13,1,N,space,,,,,,,,,,
,,,,,R_40Aui9SgjHu89Bh,001,2025-08-22_18h02.15.490,continuous_performance_test,2024.2.4,MacIntel,59.88023952,63b0ab4e-861f-46a9-9887-f81c86729414,5,515.4764,517.0259,,1,,,0,17,17,25,1,X,,,,,,,,,,,
,,,,,R_40Aui9SgjHu89Bh,001,2025-08-22_18h02.15.490,continuous_performance_test,2024.2.4,MacIntel,59.88023952,63b0ab4e-861f-46a9-9887-f81c86729414,5,517.0271,518.9258,space,1,0.2295,,0,18,18,6,1,G,space,,,,,,,,,,
,,,,,R_40Aui9SgjHu89Bh,001,2025-08-22_18h02.15.490,continuous_performance_test,2024.2.4,MacIntel,59.88023952,63b0ab4e-861f-46a9-9887-f81c86729414,5,518.927,520.6249,space,1,0.3482,,0,19,19,4,1,E,space,,,,,,,,,,
,,,,,R_40Aui9SgjHu89Bh,001,2025-08-22_18h02.15.490,continuous_performance_test,2024.2.4,MacIntel,59.88023952,63b0ab4e-861f-46a9-9887-f81c86729414,5,520.6261,522.5259,space,1,0.2592,,0,20,20,16,1,Q,space,,,,,,,,,,
,,,,,R_40Aui9SgjHu89Bh,001,2025-08-22_18h02.15.490,continuous_performance_test,2024.2.4,MacIntel,59.88023952,63b0ab4e-861f-46a9-9887-f81c86729414,5,522.5272,524.3759,space,1,0.2918,,0,21,21,23,1,Y,space,,,,,,,,,,
,,,,,R_40Aui9SgjHu89Bh,001,2025-08-22_18h02.15.490,continuous_performance_test,2024.2.4,MacIntel,59.88023952,63b0ab4e-861f-46a9-9887-f81c86729414,5,524.3774,526.2258,space,1,0.3249,,0,22,22,24,1,Z,space,,,,,,,,,,
,,,,,R_40Aui9SgjHu89Bh,001,2025-08-22_18h02.15.490,continuous_performance_test,2024.2.4,MacIntel,59.88023952,63b0ab4e-861f-46a9-9887-f81c86729414,5,526.227,527.7758,space,0,0.3128,,0,23,23,27,1,X,,,,,,,,,,,
,,,,,R_40Aui9SgjHu89Bh,001,2025-08-22_18h02.15.490,continuous_performance_test,2024.2.4,MacIntel,59.88023952,63b0ab4e-861f-46a9-9887-f81c86729414,5,527.7767,529.576,space,0,0.3172,,0,24,24,26,1,X,,,,,,,,,,,
,,,,,R_40Aui9SgjHu89Bh,001,2025-08-22_18h02.15.490,continuous_performance_test,2024.2.4,MacIntel,59.88023952,63b0ab4e-861f-46a9-9887-f81c86729414,5,529.5771,531.4248,space,1,0.3463,,0,25,25,2,1,C,space,,,,,,,,,,
,,,,,R_40Aui9SgjHu89Bh,001,2025-08-22_18h02.15.490,continuous_performance_test,2024.2.4,MacIntel,59.88023952,63b0ab4e-861f-46a9-9887-f81c86729414,5,531.4259,532.9759,space,1,0.3144,,0,26,26,11,1,L,space,,,,,,,,,,
,,,,,R_40Aui9SgjHu89Bh,001,2025-08-22_18h02.15.490,continuous_performance_test,2024.2.4,MacIntel,59.88023952,63b0ab4e-861f-46a9-9887-f81c86729414,5,532.9769,534.5258,space,0,0.2332,,0,27,27,29,1,X,,,,,,,,,,,
,,,,,R_40Aui9SgjHu89Bh,001,2025-08-22_18h02.15.490,continuous_performance_test,2024.2.4,MacIntel,59.88023952,63b0ab4e-861f-46a9-9887-f81c86729414,5,534.5268,536.4261,space,1,0.3418,,0,28,28,20,1,U,space,,,,,,,,,,
,,,,,R_40Aui9SgjHu89Bh,001,2025-08-22_18h02.15.490,continuous_performance_test,2024.2.4,MacIntel,59.88023952,63b0ab4e-861f-46a9-9887-f81c86729414,5,536.4279,538.4246,space,1,0.3577,,0,29,29,12,1,M,space,,,,,,,,,,
,,,,,R_40Aui9SgjHu89Bh,001,2025-08-22_18h02.15.490,continuous_performance_test,2024.2.4,MacIntel,59.88023952,63b0ab4e-861f-46a9-9887-f81c86729414,5,547.4153,549.0581,space,1,0.3786,,0,0,0,16,1,Q,space,538.4257,547.4084,space,8.9614,,,,,,
,,,,,R_40Aui9SgjHu89Bh,001,2025-08-22_18h02.15.490,continuous_performance_test,2024.2.4,MacIntel,59.88023952,63b0ab4e-861f-46a9-9887-f81c86729414,5,549.0591,550.6584,space,1,0.3649,,0,1,1,8,1,I,space,,,,,,,,,,
,,,,,R_40Aui9SgjHu89Bh,001,2025-08-22_18h02.15.490,continuous_performance_test,2024.2.4,MacIntel,59.88023952,63b0ab4e-861f-46a9-9887-f81c86729414,5,550.6599,552.3591,space,1,0.3224,,0,2,2,0,1,A,space,,,,,,,,,,
,,,,,R_40Aui9SgjHu89Bh,001,2025-08-22_18h02.15.490,continuous_performance_test,2024.2.4,MacIntel,59.88023952,63b0ab4e-861f-46a9-9887-f81c86729414,5,552.3603,553.909,space,1,0.3802,,0,3,3,5,1,F,space,,,,,,,,,,
,,,,,R_40Aui9SgjHu89Bh,001,2025-08-22_18h02.15.490,continuous_performance_test,2024.2.4,MacIntel,59.88023952,63b0ab4e-861f-46a9-9887-f81c86729414,5,553.9103,555.8591,space,1,0.3301,,0,4,4,22,1,W,space,,,,,,,,,,
,,,,,R_40Aui9SgjHu89Bh,001,2025-08-22_18h02.15.490,continuous_performance_test,2024.2.4,MacIntel,59.88023952,63b0ab4e-861f-46a9-9887-f81c86729414,5,555.8605,557.4592,,1,,,0,5,5,29,1,X,,,,,,,,,,,
,,,,,R_40Aui9SgjHu89Bh,001,2025-08-22_18h02.15.490,continuous_performance_test,2024.2.4,MacIntel,59.88023952,63b0ab4e-861f-46a9-9887-f81c86729414,5,557.4603,559.4092,space,1,0.3142,,0,6,6,20,1,U,space,,,,,,,,,,
,,,,,R_40Aui9SgjHu89Bh,001,2025-08-22_18h02.15.490,continuous_performance_test,2024.2.4,MacIntel,59.88023952,63b0ab4e-861f-46a9-9887-f81c86729414,5,559.4102,561.3591,space,1,0.3508,,0,7,7,1,1,B,space,,,,,,,,,,
,,,,,R_40Aui9SgjHu89Bh,001,2025-08-22_18h02.15.490,continuous_performance_test,2024.2.4,MacIntel,59.88023952,63b0ab4e-861f-46a9-9887-f81c86729414,5,561.3604,563.108,space,1,0.3419,,0,8,8,23,1,Y,space,,,,,,,,,,
,,,,,R_40Aui9SgjHu89Bh,001,2025-08-22_18h02.15.490,continuous_performance_test,2024.2.4,MacIntel,59.88023952,63b0ab4e-861f-46a9-9887-f81c86729414,5,563.1091,565.0582,space,1,0.3804,,0,9,9,13,1,N,space,,,,,,,,,,
,,,,,R_40Aui9SgjHu89Bh,001,2025-08-22_18h02.15.490,continuous_performance_test,2024.2.4,MacIntel,59.88023952,63b0ab4e-861f-46a9-9887-f81c86729414,5,565.0596,566.6092,space,1,0.4126,,0,10,10,2,1,C,space,,,,,,,,,,
,,,,,R_40Aui9SgjHu89Bh,001,2025-08-22_18h02.15.490,continuous_performance_test,2024.2.4,MacIntel,59.88023952,63b0ab4e-861f-46a9-9887-f81c86729414,5,566.6107,568.5081,space,0,0.3168,,0,11,11,26,1,X,,,,,,,,,,,
,,,,,R_40Aui9SgjHu89Bh,001,2025-08-22_18h02.15.490,continuous_performance_test,2024.2.4,MacIntel,59.88023952,63b0ab4e-861f-46a9-9887-f81c86729414,5,568.5094,570.1592,space,1,0.3461,,0,12,12,21,1,V,space,,,,,,,,,,
,,,,,R_40Aui9SgjHu89Bh,001,2025-08-22_18h02.15.490,continuous_performance_test,2024.2.4,MacIntel,59.88023952,63b0ab4e-861f-46a9-9887-f81c86729414,5,570.1604,572.009,space,1,0.3983,,0,13,13,12,1,M,space,,,,,,,,,,
,,,,,R_40Aui9SgjHu89Bh,001,2025-08-22_18h02.15.490,continuous_performance_test,2024.2.4,MacIntel,59.88023952,63b0ab4e-861f-46a9-9887-f81c86729414,5,572.0102,573.8093,space,1,0.3981,,0,14,14,17,1,R,space,,,,,,,,,,
,,,,,R_40Aui9SgjHu89Bh,001,2025-08-22_18h02.15.490,continuous_performance_test,2024.2.4,MacIntel,59.88023952,63b0ab4e-861f-46a9-9887-f81c86729414,5,573.811,575.7093,space,1,0.3135,,0,15,15,19,1,T,space,,,,,,,,,,
,,,,,R_40Aui9SgjHu89Bh,001,2025-08-22_18h02.15.490,continuous_performance_test,2024.2.4,MacIntel,59.88023952,63b0ab4e-861f-46a9-9887-f81c86729414,5,575.7103,577.7091,space,1,0.331,,0,16,16,7,1,H,space,,,,,,,,,,
,,,,,R_40Aui9SgjHu89Bh,001,2025-08-22_18h02.15.490,continuous_performance_test,2024.2.4,MacIntel,59.88023952,63b0ab4e-861f-46a9-9887-f81c86729414,5,577.7103,579.3592,space,1,0.3955,,0,17,17,3,1,D,space,,,,,,,,,,
,,,,,R_40Aui9SgjHu89Bh,001,2025-08-22_18h02.15.490,continuous_performance_test,2024.2.4,MacIntel,59.88023952,63b0ab4e-861f-46a9-9887-f81c86729414,5,579.3605,581.0582,space,1,0.3582,,0,18,18,4,1,E,space,,,,,,,,,,
,,,,,R_40Aui9SgjHu89Bh,001,2025-08-22_18h02.15.490,continuous_performance_test,2024.2.4,MacIntel,59.88023952,63b0ab4e-861f-46a9-9887-f81c86729414,5,581.0593,582.6591,space,1,0.3917,,0,19,19,24,1,Z,space,,,,,,,,,,
,,,,,R_40Aui9SgjHu89Bh,001,2025-08-22_18h02.15.490,continuous_performance_test,2024.2.4,MacIntel,59.88023952,63b0ab4e-861f-46a9-9887-f81c86729414,5,582.6605,584.2087,space,1,0.328,,0,20,20,11,1,L,space,,,,,,,,,,
,,,,,R_40Aui9SgjHu89Bh,001,2025-08-22_18h02.15.490,continuous_performance_test,2024.2.4,MacIntel,59.88023952,63b0ab4e-861f-46a9-9887-f81c86729414,5,584.2098,586.1591,space,1,0.3486,,0,21,21,14,1,O,space,,,,,,,,,,
,,,,,R_40Aui9SgjHu89Bh,001,2025-08-22_18h02.15.490,continuous_performance_test,2024.2.4,MacIntel,59.88023952,63b0ab4e-861f-46a9-9887-f81c86729414,5,586.1602,588.0091,space,1,0.368,,0,22,22,18,1,S,space,,,,,,,,,,
,,,,,R_40Aui9SgjHu89Bh,001,2025-08-22_18h02.15.490,continuous_performance_test,2024.2.4,MacIntel,59.88023952,63b0ab4e-861f-46a9-9887-f81c86729414,5,588.0103,589.559,,1,,,0,23,23,27,1,X,,,,,,,,,,,
,,,,,R_40Aui9SgjHu89Bh,001,2025-08-22_18h02.15.490,continuous_performance_test,2024.2.4,MacIntel,59.88023952,63b0ab4e-861f-46a9-9887-f81c86729414,5,589.56,591.409,,1,,,0,24,24,25,1,X,,,,,,,,,,,
,,,,,R_40Aui9SgjHu89Bh,001,2025-08-22_18h02.15.490,continuous_performance_test,2024.2.4,MacIntel,59.88023952,63b0ab4e-861f-46a9-9887-f81c86729414,5,591.4101,593.3591,space,1,0.4401,,0,25,25,9,1,J,space,,,,,,,,,,
,,,,,R_40Aui9SgjHu89Bh,001,2025-08-22_18h02.15.490,continuous_performance_test,2024.2.4,MacIntel,59.88023952,63b0ab4e-861f-46a9-9887-f81c86729414,5,593.3604,594.9584,,1,,,0,26,26,28,1,X,,,,,,,,,,,
,,,,,R_40Aui9SgjHu89Bh,001,2025-08-22_18h02.15.490,continuous_performance_test,2024.2.4,MacIntel,59.88023952,63b0ab4e-861f-46a9-9887-f81c86729414,5,594.96,596.809,space,1,0.3126,,0,27,27,6,1,G,space,,,,,,,,,,
,,,,,R_40Aui9SgjHu89Bh,001,2025-08-22_18h02.15.490,continuous_performance_test,2024.2.4,MacIntel,59.88023952,63b0ab4e-861f-46a9-9887-f81c86729414,5,596.8103,598.409,space,1,0.5459,,0,28,28,15,1,P,space,,,,,,,,,,
,,,,,R_40Aui9SgjHu89Bh,001,2025-08-22_18h02.15.490,continuous_performance_test,2024.2.4,MacIntel,59.88023952,63b0ab4e-861f-46a9-9887-f81c86729414,5,598.4104,600.359,space,1,0.4974,,0,29,29,10,1,K,space,,,,,,,,,,
,,,,,R_40Aui9SgjHu89Bh,001,2025-08-22_18h02.15.490,continuous_performance_test,2024.2.4,MacIntel,59.88023952,63b0ab4e-861f-46a9-9887-f81c86729414,5,611.8659,613.8091,space,1,0.3233,,0,0,0,15,1,P,space,600.3604,611.8592,space,11.4873,,,,,,
,,,,,R_40Aui9SgjHu89Bh,001,2025-08-22_18h02.15.490,continuous_performance_test,2024.2.4,MacIntel,59.88023952,63b0ab4e-861f-46a9-9887-f81c86729414,5,613.8106,615.3591,space,1,0.3702,,0,1,1,13,1,N,space,,,,,,,,,,
,,,,,R_40Aui9SgjHu89Bh,001,2025-08-22_18h02.15.490,continuous_performance_test,2024.2.4,MacIntel,59.88023952,63b0ab4e-861f-46a9-9887-f81c86729414,5,615.3603,617.0586,space,1,0.3082,,0,2,2,22,1,W,space,,,,,,,,,,
,,,,,R_40Aui9SgjHu89Bh,001,2025-08-22_18h02.15.490,continuous_performance_test,2024.2.4,MacIntel,59.88023952,63b0ab4e-861f-46a9-9887-f81c86729414,5,617.0602,618.709,space,1,0.399,,0,3,3,7,1,H,space,,,,,,,,,,
,,,,,R_40Aui9SgjHu89Bh,001,2025-08-22_18h02.15.490,continuous_performance_test,2024.2.4,MacIntel,59.88023952,63b0ab4e-861f-46a9-9887-f81c86729414,5,618.7102,620.359,space,1,0.36,,0,4,4,16,1,Q,space,,,,,,,,,,
,,,,,R_40Aui9SgjHu89Bh,001,2025-08-22_18h02.15.490,continuous_performance_test,2024.2.4,MacIntel,59.88023952,63b0ab4e-861f-46a9-9887-f81c86729414,5,620.3603,622.0079,space,1,0.3106,,0,5,5,5,1,F,space,,,,,,,,,,
,,,,,R_40Aui9SgjHu89Bh,001,2025-08-22_18h02.15.490,continuous_performance_test,2024.2.4,MacIntel,59.88023952,63b0ab4e-861f-46a9-9887-f81c86729414,5,622.009,623.9089,space,1,0.3767,,0,6,6,21,1,V,space,,,,,,,,,,
,,,,,R_40Aui9SgjHu89Bh,001,2025-08-22_18h02.15.490,continuous_performance_test,2024.2.4,MacIntel,59.88023952,63b0ab4e-861f-46a9-9887-f81c86729414,5,623.9102,625.559,space,1,0.4789,,0,7,7,17,1,R,space,,,,,,,,,,
,,,,,R_40Aui9SgjHu89Bh,001,2025-08-22_18h02.15.490,continuous_performance_test,2024.2.4,MacIntel,59.88023952,63b0ab4e-861f-46a9-9887-f81c86729414,5,625.5606,627.2593,space,1,0.4491,,0,8,8,8,1,I,space,,,,,,,,,,
,,,,,R_40Aui9SgjHu89Bh,001,2025-08-22_18h02.15.490,continuous_performance_test,2024.2.4,MacIntel,59.88023952,63b0ab4e-861f-46a9-9887-f81c86729414,5,627.2612,628.809,space,1,0.3782,,0,9,9,20,1,U,space,,,,,,,,,,
,,,,,R_40Aui9SgjHu89Bh,001,2025-08-22_18h02.15.490,continuous_performance_test,2024.2.4,MacIntel,59.88023952,63b0ab4e-861f-46a9-9887-f81c86729414,5,628.8104,630.5586,space,1,0.3389,,0,10,10,14,1,O,space,,,,,,,,,,
,,,,,R_40Aui9SgjHu89Bh,001,2025-08-22_18h02.15.490,continuous_performance_test,2024.2.4,MacIntel,59.88023952,63b0ab4e-861f-46a9-9887-f81c86729414,5,630.559,632.1079,space,1,0.3939,,0,11,11,19,1,T,space,,,,,,,,,,
,,,,,R_40Aui9SgjHu89Bh,001,2025-08-22_18h02.15.490,continuous_performance_test,2024.2.4,MacIntel,59.88023952,63b0ab4e-861f-46a9-9887-f81c86729414,5,632.109,634.0589,,1,,,0,12,12,26,1,X,,,,,,,,,,,
,,,,,R_40Aui9SgjHu89Bh,001,2025-08-22_18h02.15.490,continuous_performance_test,2024.2.4,MacIntel,59.88023952,63b0ab4e-861f-46a9-9887-f81c86729414,5,634.0602,636.009,space,1,0.3609,,0,13,13,18,1,S,space,,,,,,,,,,
,,,,,R_40Aui9SgjHu89Bh,001,2025-08-22_18h02.15.490,continuous_performance_test,2024.2.4,MacIntel,59.88023952,63b0ab4e-861f-46a9-9887-f81c86729414,5,636.0104,637.859,space,1,0.3933,,0,14,14,6,1,G,space,,,,,,,,,,
,,,,,R_40Aui9SgjHu89Bh,001,2025-08-22_18h02.15.490,continuous_performance_test,2024.2.4,MacIntel,59.88023952,63b0ab4e-861f-46a9-9887-f81c86729414,5,637.8604,639.4087,,1,,,0,15,15,29,1,X,,,,,,,,,,,
,,,,,R_40Aui9SgjHu89Bh,001,2025-08-22_18h02.15.490,continuous_performance_test,2024.2.4,MacIntel,59.88023952,63b0ab4e-861f-46a9-9887-f81c86729414,5,639.4096,641.3092,space,0,0.3011,,0,16,16,28,1,X,,,,,,,,,,,
,,,,,R_40Aui9SgjHu89Bh,001,2025-08-22_18h02.15.490,continuous_performance_test,2024.2.4,MacIntel,59.88023952,63b0ab4e-861f-46a9-9887-f81c86729414,5,641.3109,643.3091,space,1,0.3053,,0,17,17,12,1,M,space,,,,,,,,,,
,,,,,R_40Aui9SgjHu89Bh,001,2025-08-22_18h02.15.490,continuous_performance_test,2024.2.4,MacIntel,59.88023952,63b0ab4e-861f-46a9-9887-f81c86729414,5,643.3103,645.309,,1,,,0,18,18,27,1,X,,,,,,,,,,,
,,,,,R_40Aui9SgjHu89Bh,001,2025-08-22_18h02.15.490,continuous_performance_test,2024.2.4,MacIntel,59.88023952,63b0ab4e-861f-46a9-9887-f81c86729414,5,645.31,647.259,,1,,,0,19,19,25,1,X,,,,,,,,,,,
,,,,,R_40Aui9SgjHu89Bh,001,2025-08-22_18h02.15.490,continuous_performance_test,2024.2.4,MacIntel,59.88023952,63b0ab4e-861f-46a9-9887-f81c86729414,5,647.2601,649.259,space,1,0.4271,,0,20,20,0,1,A,space,,,,,,,,,,
,,,,,R_40Aui9SgjHu89Bh,001,2025-08-22_18h02.15.490,continuous_performance_test,2024.2.4,MacIntel,59.88023952,63b0ab4e-861f-46a9-9887-f81c86729414,5,649.2602,651.0589,space,1,0.4964,,0,21,21,11,1,L,space,,,,,,,,,,
,,,,,R_40Aui9SgjHu89Bh,001,2025-08-22_18h02.15.490,continuous_performance_test,2024.2.4,MacIntel,59.88023952,63b0ab4e-861f-46a9-9887-f81c86729414,5,651.0604,652.9089,space,1,0.374,,0,22,22,1,1,B,space,,,,,,,,,,
,,,,,R_40Aui9SgjHu89Bh,001,2025-08-22_18h02.15.490,continuous_performance_test,2024.2.4,MacIntel,59.88023952,63b0ab4e-861f-46a9-9887-f81c86729414,5,652.9104,654.7589,space,1,0.428,,0,23,23,4,1,E,space,,,,,,,,,,
,,,,,R_40Aui9SgjHu89Bh,001,2025-08-22_18h02.15.490,continuous_performance_test,2024.2.4,MacIntel,59.88023952,63b0ab4e-861f-46a9-9887-f81c86729414,5,654.7602,656.3091,space,1,0.3654,,0,24,24,24,1,Z,space,,,,,,,,,,
,,,,,R_40Aui9SgjHu89Bh,001,2025-08-22_18h02.15.490,continuous_performance_test,2024.2.4,MacIntel,59.88023952,63b0ab4e-861f-46a9-9887-f81c86729414,5,656.3102,658.0591,space,1,0.3617,,0,25,25,9,1,J,space,,,,,,,,,,
,,,,,R_40Aui9SgjHu89Bh,001,2025-08-22_18h02.15.490,continuous_performance_test,2024.2.4,MacIntel,59.88023952,63b0ab4e-861f-46a9-9887-f81c86729414,5,658.0603,659.959,space,1,0.3476,,0,26,26,3,1,D,space,,,,,,,,,,
,,,,,R_40Aui9SgjHu89Bh,001,2025-08-22_18h02.15.490,continuous_performance_test,2024.2.4,MacIntel,59.88023952,63b0ab4e-861f-46a9-9887-f81c86729414,5,659.9601,661.709,space,1,0.3667,,0,27,27,2,1,C,space,,,,,,,,,,
,,,,,R_40Aui9SgjHu89Bh,001,2025-08-22_18h02.15.490,continuous_performance_test,2024.2.4,MacIntel,59.88023952,63b0ab4e-861f-46a9-9887-f81c86729414,5,661.7103,663.359,space,1,0.3112,,0,28,28,10,1,K,space,,,,,,,,,,
,,,,,R_40Aui9SgjHu89Bh,001,2025-08-22_18h02.15.490,continuous_performance_test,2024.2.4,MacIntel,59.88023952,63b0ab4e-861f-46a9-9887-f81c86729414,5,663.3602,665.1581,space,1,0.4118,,0,29,29,23,1,Y,space,,,,,,,,,,
,,,,,R_40Aui9SgjHu89Bh,001,2025-08-22_18h02.15.490,continuous_performance_test,2024.2.4,MacIntel,59.88023952,63b0ab4e-861f-46a9-9887-f81c86729414,5,,,,,,,,,,,,,,665.1597,665.1605,,,,665.1612,671.5928,space,6.4141,
