Instructions.started,Instructions.stopped,key_resp.keys,key_resp.rt,key_resp.duration,participant,session,date,expName,psychopyVersion,OS,frameRate,realeye-tester-id,realeye-tester-quality_grade,Trial_noX.started,Trial_noX.stopped,response.keys,response.corr,trials_noX.thisRepN,trials_noX.thisTrialN,trials_noX.thisN,trials_noX.thisIndex,trials_noX.ran,letter,corrAns,response.rt,response.duration,BlockBreak.started,BlockBreak.stopped,key_instruct.keys,key_instruct.rt,key_instruct.duration,End_NoX.started,End_NoX.stopped,key_resp_end_noX.keys,key_resp_end_noX.rt,key_resp_end_noX.duration
0.0006,5.4906,space,5.4668,,R_41BwrIZaN0kisLr,001,2025-09-11_22h42.12.118,continuous_performance_test,2024.2.4,MacIntel,59.88023952,aa5f7cc4-14e4-431a-b3f7-559852084d9a,5,,,,,,,,,,,,,,,,,,,,,,,
,,,,,R_41BwrIZaN0kisLr,001,2025-09-11_22h42.12.118,continuous_performance_test,2024.2.4,MacIntel,59.88023952,aa5f7cc4-14e4-431a-b3f7-559852084d9a,5,5.511,7.1072,,0,0,0,0,8,1,I,space,,,,,,,,,,,,
,,,,,R_41BwrIZaN0kisLr,001,2025-09-11_22h42.12.118,continuous_performance_test,2024.2.4,MacIntel,59.88023952,aa5f7cc4-14e4-431a-b3f7-559852084d9a,5,7.108,8.8568,space,0,0,1,1,29,1,X,,0.3745,,,,,,,,,,,
,,,,,R_41BwrIZaN0kisLr,001,2025-09-11_22h42.12.118,continuous_performance_test,2024.2.4,MacIntel,59.88023952,aa5f7cc4-14e4-431a-b3f7-559852084d9a,5,8.8586,10.4567,space,1,0,2,2,20,1,U,space,0.3803,,,,,,,,,,,
,,,,,R_41BwrIZaN0kisLr,001,2025-09-11_22h42.12.118,continuous_performance_test,2024.2.4,MacIntel,59.88023952,aa5f7cc4-14e4-431a-b3f7-559852084d9a,5,10.4586,12.3069,space,1,0,3,3,18,1,S,space,0.3095,,,,,,,,,,,
,,,,,R_41BwrIZaN0kisLr,001,2025-09-11_22h42.12.118,continuous_performance_test,2024.2.4,MacIntel,59.88023952,aa5f7cc4-14e4-431a-b3f7-559852084d9a,5,12.3085,14.207,space,0,0,4,4,25,1,X,,0.3328,,,,,,,,,,,
,,,,,R_41BwrIZaN0kisLr,001,2025-09-11_22h42.12.118,continuous_performance_test,2024.2.4,MacIntel,59.88023952,aa5f7cc4-14e4-431a-b3f7-559852084d9a,5,14.2086,15.8569,space,1,0,5,5,0,1,A,space,0.2967,,,,,,,,,,,
,,,,,R_41BwrIZaN0kisLr,001,2025-09-11_22h42.12.118,continuous_performance_test,2024.2.4,MacIntel,59.88023952,aa5f7cc4-14e4-431a-b3f7-559852084d9a,5,15.8587,17.607,space,0,0,6,6,27,1,X,,0.3915,,,,,,,,,,,
,,,,,R_41BwrIZaN0kisLr,001,2025-09-11_22h42.12.118,continuous_performance_test,2024.2.4,MacIntel,59.88023952,aa5f7cc4-14e4-431a-b3f7-559852084d9a,5,17.6085,19.357,space,1,0,7,7,4,1,E,space,0.3774,,,,,,,,,,,
,,,,,R_41BwrIZaN0kisLr,001,2025-09-11_22h42.12.118,continuous_performance_test,2024.2.4,MacIntel,59.88023952,aa5f7cc4-14e4-431a-b3f7-559852084d9a,5,19.3588,20.9071,space,1,0,8,8,21,1,V,space,0.5051,,,,,,,,,,,
,,,,,R_41BwrIZaN0kisLr,001,2025-09-11_22h42.12.118,continuous_performance_test,2024.2.4,MacIntel,59.88023952,aa5f7cc4-14e4-431a-b3f7-559852084d9a,5,20.9088,22.5571,space,1,0,9,9,7,1,H,space,0.3881,,,,,,,,,,,
,,,,,R_41BwrIZaN0kisLr,001,2025-09-11_22h42.12.118,continuous_performance_test,2024.2.4,MacIntel,59.88023952,aa5f7cc4-14e4-431a-b3f7-559852084d9a,5,22.5588,24.557,space,1,0,10,10,5,1,F,space,0.3801,,,,,,,,,,,
,,,,,R_41BwrIZaN0kisLr,001,2025-09-11_22h42.12.118,continuous_performance_test,2024.2.4,MacIntel,59.88023952,aa5f7cc4-14e4-431a-b3f7-559852084d9a,5,24.5586,26.1072,space,1,0,11,11,9,1,J,space,0.3975,,,,,,,,,,,
,,,,,R_41BwrIZaN0kisLr,001,2025-09-11_22h42.12.118,continuous_performance_test,2024.2.4,MacIntel,59.88023952,aa5f7cc4-14e4-431a-b3f7-559852084d9a,5,26.1085,27.8072,,1,0,12,12,28,1,X,,,,,,,,,,,,,
,,,,,R_41BwrIZaN0kisLr,001,2025-09-11_22h42.12.118,continuous_performance_test,2024.2.4,MacIntel,59.88023952,aa5f7cc4-14e4-431a-b3f7-559852084d9a,5,27.8086,29.3571,space,1,0,13,13,10,1,K,space,0.4457,,,,,,,,,,,
,,,,,R_41BwrIZaN0kisLr,001,2025-09-11_22h42.12.118,continuous_performance_test,2024.2.4,MacIntel,59.88023952,aa5f7cc4-14e4-431a-b3f7-559852084d9a,5,29.3584,30.9569,space,1,0,14,14,3,1,D,space,0.3441,,,,,,,,,,,
,,,,,R_41BwrIZaN0kisLr,001,2025-09-11_22h42.12.118,continuous_performance_test,2024.2.4,MacIntel,59.88023952,aa5f7cc4-14e4-431a-b3f7-559852084d9a,5,30.9581,32.5073,space,1,0,15,15,15,1,P,space,0.3456,,,,,,,,,,,
,,,,,R_41BwrIZaN0kisLr,001,2025-09-11_22h42.12.118,continuous_performance_test,2024.2.4,MacIntel,59.88023952,aa5f7cc4-14e4-431a-b3f7-559852084d9a,5,32.5087,34.3562,space,1,0,16,16,16,1,Q,space,0.3317,,,,,,,,,,,
,,,,,R_41BwrIZaN0kisLr,001,2025-09-11_22h42.12.118,continuous_performance_test,2024.2.4,MacIntel,59.88023952,aa5f7cc4-14e4-431a-b3f7-559852084d9a,5,34.3576,35.9565,space,1,0,17,17,13,1,N,space,0.4053,,,,,,,,,,,
,,,,,R_41BwrIZaN0kisLr,001,2025-09-11_22h42.12.118,continuous_performance_test,2024.2.4,MacIntel,59.88023952,aa5f7cc4-14e4-431a-b3f7-559852084d9a,5,35.9577,37.9575,space,1,0,18,18,17,1,R,space,0.3391,,,,,,,,,,,
,,,,,R_41BwrIZaN0kisLr,001,2025-09-11_22h42.12.118,continuous_performance_test,2024.2.4,MacIntel,59.88023952,aa5f7cc4-14e4-431a-b3f7-559852084d9a,5,37.9586,39.8413,space,1,0,19,19,24,1,Z,space,0.3061,,,,,,,,,,,
,,,,,R_41BwrIZaN0kisLr,001,2025-09-11_22h42.12.118,continuous_performance_test,2024.2.4,MacIntel,59.88023952,aa5f7cc4-14e4-431a-b3f7-559852084d9a,5,39.8425,41.5909,space,1,0,20,20,6,1,G,space,0.4099,,,,,,,,,,,
,,,,,R_41BwrIZaN0kisLr,001,2025-09-11_22h42.12.118,continuous_performance_test,2024.2.4,MacIntel,59.88023952,aa5f7cc4-14e4-431a-b3f7-559852084d9a,5,41.5923,43.5408,space,1,0,21,21,2,1,C,space,0.3219,,,,,,,,,,,
,,,,,R_41BwrIZaN0kisLr,001,2025-09-11_22h42.12.118,continuous_performance_test,2024.2.4,MacIntel,59.88023952,aa5f7cc4-14e4-431a-b3f7-559852084d9a,5,43.5421,45.0909,space,1,0,22,22,19,1,T,space,0.3725,,,,,,,,,,,
,,,,,R_41BwrIZaN0kisLr,001,2025-09-11_22h42.12.118,continuous_performance_test,2024.2.4,MacIntel,59.88023952,aa5f7cc4-14e4-431a-b3f7-559852084d9a,5,45.0923,46.791,space,1,0,23,23,14,1,O,space,0.2887,,,,,,,,,,,
,,,,,R_41BwrIZaN0kisLr,001,2025-09-11_22h42.12.118,continuous_performance_test,2024.2.4,MacIntel,59.88023952,aa5f7cc4-14e4-431a-b3f7-559852084d9a,5,46.7923,48.7409,space,1,0,24,24,23,1,Y,space,0.2939,,,,,,,,,,,
,,,,,R_41BwrIZaN0kisLr,001,2025-09-11_22h42.12.118,continuous_performance_test,2024.2.4,MacIntel,59.88023952,aa5f7cc4-14e4-431a-b3f7-559852084d9a,5,48.7417,50.741,space,1,0,25,25,22,1,W,space,0.3437,,,,,,,,,,,
,,,,,R_41BwrIZaN0kisLr,001,2025-09-11_22h42.12.118,continuous_performance_test,2024.2.4,MacIntel,59.88023952,aa5f7cc4-14e4-431a-b3f7-559852084d9a,5,50.7426,52.4411,space,1,0,26,26,1,1,B,space,0.3437,,,,,,,,,,,
,,,,,R_41BwrIZaN0kisLr,001,2025-09-11_22h42.12.118,continuous_performance_test,2024.2.4,MacIntel,59.88023952,aa5f7cc4-14e4-431a-b3f7-559852084d9a,5,52.4425,54.0911,,1,0,27,27,26,1,X,,,,,,,,,,,,,
,,,,,R_41BwrIZaN0kisLr,001,2025-09-11_22h42.12.118,continuous_performance_test,2024.2.4,MacIntel,59.88023952,aa5f7cc4-14e4-431a-b3f7-559852084d9a,5,54.0927,55.6907,space,1,0,28,28,11,1,L,space,0.3218,,,,,,,,,,,
,,,,,R_41BwrIZaN0kisLr,001,2025-09-11_22h42.12.118,continuous_performance_test,2024.2.4,MacIntel,59.88023952,aa5f7cc4-14e4-431a-b3f7-559852084d9a,5,55.692,57.2412,space,1,0,29,29,12,1,M,space,0.3566,,,,,,,,,,,
,,,,,R_41BwrIZaN0kisLr,001,2025-09-11_22h42.12.118,continuous_performance_test,2024.2.4,MacIntel,59.88023952,aa5f7cc4-14e4-431a-b3f7-559852084d9a,5,65.8536,67.3913,space,1,0,0,0,9,1,J,space,0.6605,,57.2419,65.8419,space,8.5728,,,,,,
,,,,,R_41BwrIZaN0kisLr,001,2025-09-11_22h42.12.118,continuous_performance_test,2024.2.4,MacIntel,59.88023952,aa5f7cc4-14e4-431a-b3f7-559852084d9a,5,67.3928,69.2915,space,1,0,1,1,8,1,I,space,0.3136,,,,,,,,,,,
,,,,,R_41BwrIZaN0kisLr,001,2025-09-11_22h42.12.118,continuous_performance_test,2024.2.4,MacIntel,59.88023952,aa5f7cc4-14e4-431a-b3f7-559852084d9a,5,69.2928,71.0417,space,1,0,2,2,11,1,L,space,0.3791,,,,,,,,,,,
,,,,,R_41BwrIZaN0kisLr,001,2025-09-11_22h42.12.118,continuous_performance_test,2024.2.4,MacIntel,59.88023952,aa5f7cc4-14e4-431a-b3f7-559852084d9a,5,71.043,73.0416,space,1,0,3,3,21,1,V,space,0.3152,,,,,,,,,,,
,,,,,R_41BwrIZaN0kisLr,001,2025-09-11_22h42.12.118,continuous_performance_test,2024.2.4,MacIntel,59.88023952,aa5f7cc4-14e4-431a-b3f7-559852084d9a,5,73.043,74.9416,space,1,0,4,4,2,1,C,space,0.2975,,,,,,,,,,,
,,,,,R_41BwrIZaN0kisLr,001,2025-09-11_22h42.12.118,continuous_performance_test,2024.2.4,MacIntel,59.88023952,aa5f7cc4-14e4-431a-b3f7-559852084d9a,5,74.9429,76.4907,space,1,0,5,5,1,1,B,space,0.3737,,,,,,,,,,,
,,,,,R_41BwrIZaN0kisLr,001,2025-09-11_22h42.12.118,continuous_performance_test,2024.2.4,MacIntel,59.88023952,aa5f7cc4-14e4-431a-b3f7-559852084d9a,5,76.492,78.4419,space,1,0,6,6,10,1,K,space,0.3165,,,,,,,,,,,
,,,,,R_41BwrIZaN0kisLr,001,2025-09-11_22h42.12.118,continuous_performance_test,2024.2.4,MacIntel,59.88023952,aa5f7cc4-14e4-431a-b3f7-559852084d9a,5,78.4433,80.3447,space,1,0,7,7,17,1,R,space,0.387,,,,,,,,,,,
,,,,,R_41BwrIZaN0kisLr,001,2025-09-11_22h42.12.118,continuous_performance_test,2024.2.4,MacIntel,59.88023952,aa5f7cc4-14e4-431a-b3f7-559852084d9a,5,80.3456,82.0917,space,1,0,8,8,7,1,H,space,0.2722,,,,,,,,,,,
,,,,,R_41BwrIZaN0kisLr,001,2025-09-11_22h42.12.118,continuous_performance_test,2024.2.4,MacIntel,59.88023952,aa5f7cc4-14e4-431a-b3f7-559852084d9a,5,82.093,83.8419,space,1,0,9,9,4,1,E,space,0.2959,,,,,,,,,,,
,,,,,R_41BwrIZaN0kisLr,001,2025-09-11_22h42.12.118,continuous_performance_test,2024.2.4,MacIntel,59.88023952,aa5f7cc4-14e4-431a-b3f7-559852084d9a,5,83.8433,85.392,space,1,0,10,10,0,1,A,space,0.3689,,,,,,,,,,,
,,,,,R_41BwrIZaN0kisLr,001,2025-09-11_22h42.12.118,continuous_performance_test,2024.2.4,MacIntel,59.88023952,aa5f7cc4-14e4-431a-b3f7-559852084d9a,5,85.3933,87.0817,space,1,0,11,11,24,1,Z,space,0.3111,,,,,,,,,,,
,,,,,R_41BwrIZaN0kisLr,001,2025-09-11_22h42.12.118,continuous_performance_test,2024.2.4,MacIntel,59.88023952,aa5f7cc4-14e4-431a-b3f7-559852084d9a,5,87.083,88.8253,space,0,0,12,12,26,1,X,,0.0002,,,,,,,,,,,
,,,,,R_41BwrIZaN0kisLr,001,2025-09-11_22h42.12.118,continuous_performance_test,2024.2.4,MacIntel,59.88023952,aa5f7cc4-14e4-431a-b3f7-559852084d9a,5,88.8264,90.5753,space,1,0,13,13,16,1,Q,space,0.2546,,,,,,,,,,,
,,,,,R_41BwrIZaN0kisLr,001,2025-09-11_22h42.12.118,continuous_performance_test,2024.2.4,MacIntel,59.88023952,aa5f7cc4-14e4-431a-b3f7-559852084d9a,5,90.5767,92.1756,space,1,0,14,14,6,1,G,space,0.2815,,,,,,,,,,,
,,,,,R_41BwrIZaN0kisLr,001,2025-09-11_22h42.12.118,continuous_performance_test,2024.2.4,MacIntel,59.88023952,aa5f7cc4-14e4-431a-b3f7-559852084d9a,5,92.1768,93.9755,space,0,0,15,15,28,1,X,,0.2966,,,,,,,,,,,
,,,,,R_41BwrIZaN0kisLr,001,2025-09-11_22h42.12.118,continuous_performance_test,2024.2.4,MacIntel,59.88023952,aa5f7cc4-14e4-431a-b3f7-559852084d9a,5,93.9768,95.7255,space,1,0,16,16,19,1,T,space,0.3109,,,,,,,,,,,
,,,,,R_41BwrIZaN0kisLr,001,2025-09-11_22h42.12.118,continuous_performance_test,2024.2.4,MacIntel,59.88023952,aa5f7cc4-14e4-431a-b3f7-559852084d9a,5,95.727,97.2755,space,1,0,17,17,5,1,F,space,0.3109,,,,,,,,,,,
,,,,,R_41BwrIZaN0kisLr,001,2025-09-11_22h42.12.118,continuous_performance_test,2024.2.4,MacIntel,59.88023952,aa5f7cc4-14e4-431a-b3f7-559852084d9a,5,97.2769,98.8256,space,1,0,18,18,12,1,M,space,0.3119,,,,,,,,,,,
,,,,,R_41BwrIZaN0kisLr,001,2025-09-11_22h42.12.118,continuous_performance_test,2024.2.4,MacIntel,59.88023952,aa5f7cc4-14e4-431a-b3f7-559852084d9a,5,98.827,100.5858,space,1,0,19,19,22,1,W,space,0.2674,,,,,,,,,,,
,,,,,R_41BwrIZaN0kisLr,001,2025-09-11_22h42.12.118,continuous_performance_test,2024.2.4,MacIntel,59.88023952,aa5f7cc4-14e4-431a-b3f7-559852084d9a,5,100.5868,102.2257,space,1,0,20,20,18,1,S,space,0.2571,,,,,,,,,,,
,,,,,R_41BwrIZaN0kisLr,001,2025-09-11_22h42.12.118,continuous_performance_test,2024.2.4,MacIntel,59.88023952,aa5f7cc4-14e4-431a-b3f7-559852084d9a,5,102.2271,104.0757,,0,0,21,21,3,1,D,space,,,,,,,,,,,,
,,,,,R_41BwrIZaN0kisLr,001,2025-09-11_22h42.12.118,continuous_performance_test,2024.2.4,MacIntel,59.88023952,aa5f7cc4-14e4-431a-b3f7-559852084d9a,5,104.0772,105.8258,space,0,0,22,22,29,1,X,,0.2973,,,,,,,,,,,
,,,,,R_41BwrIZaN0kisLr,001,2025-09-11_22h42.12.118,continuous_performance_test,2024.2.4,MacIntel,59.88023952,aa5f7cc4-14e4-431a-b3f7-559852084d9a,5,105.8273,107.5754,,1,0,23,23,27,1,X,,,,,,,,,,,,,
,,,,,R_41BwrIZaN0kisLr,001,2025-09-11_22h42.12.118,continuous_performance_test,2024.2.4,MacIntel,59.88023952,aa5f7cc4-14e4-431a-b3f7-559852084d9a,5,107.5768,109.5872,space,1,0,24,24,23,1,Y,space,0.1577,,,,,,,,,,,
,,,,,R_41BwrIZaN0kisLr,001,2025-09-11_22h42.12.118,continuous_performance_test,2024.2.4,MacIntel,59.88023952,aa5f7cc4-14e4-431a-b3f7-559852084d9a,5,109.5883,111.5759,space,1,0,25,25,14,1,O,space,0.5314,,,,,,,,,,,
,,,,,R_41BwrIZaN0kisLr,001,2025-09-11_22h42.12.118,continuous_performance_test,2024.2.4,MacIntel,59.88023952,aa5f7cc4-14e4-431a-b3f7-559852084d9a,5,111.5774,113.4761,space,0,0,26,26,25,1,X,,0.4833,,,,,,,,,,,
,,,,,R_41BwrIZaN0kisLr,001,2025-09-11_22h42.12.118,continuous_performance_test,2024.2.4,MacIntel,59.88023952,aa5f7cc4-14e4-431a-b3f7-559852084d9a,5,113.4772,115.2262,space,1,0,27,27,20,1,U,space,0.4724,,,,,,,,,,,
,,,,,R_41BwrIZaN0kisLr,001,2025-09-11_22h42.12.118,continuous_performance_test,2024.2.4,MacIntel,59.88023952,aa5f7cc4-14e4-431a-b3f7-559852084d9a,5,115.2275,117.2261,space,1,0,28,28,15,1,P,space,0.4612,,,,,,,,,,,
,,,,,R_41BwrIZaN0kisLr,001,2025-09-11_22h42.12.118,continuous_performance_test,2024.2.4,MacIntel,59.88023952,aa5f7cc4-14e4-431a-b3f7-559852084d9a,5,117.2273,118.8762,space,1,0,29,29,13,1,N,space,0.3228,,,,,,,,,,,
,,,,,R_41BwrIZaN0kisLr,001,2025-09-11_22h42.12.118,continuous_performance_test,2024.2.4,MacIntel,59.88023952,aa5f7cc4-14e4-431a-b3f7-559852084d9a,5,126.0848,127.6087,space,1,0,0,0,16,1,Q,space,0.6594,,118.8776,126.0766,space,7.1705,,,,,,
,,,,,R_41BwrIZaN0kisLr,001,2025-09-11_22h42.12.118,continuous_performance_test,2024.2.4,MacIntel,59.88023952,aa5f7cc4-14e4-431a-b3f7-559852084d9a,5,127.6098,129.3597,space,0,0,1,1,25,1,X,,0.3083,,,,,,,,,,,
,,,,,R_41BwrIZaN0kisLr,001,2025-09-11_22h42.12.118,continuous_performance_test,2024.2.4,MacIntel,59.88023952,aa5f7cc4-14e4-431a-b3f7-559852084d9a,5,129.3612,131.3598,space,1,0,2,2,15,1,P,space,0.8691,,,,,,,,,,,
,,,,,R_41BwrIZaN0kisLr,001,2025-09-11_22h42.12.118,continuous_performance_test,2024.2.4,MacIntel,59.88023952,aa5f7cc4-14e4-431a-b3f7-559852084d9a,5,131.3609,133.2099,space,0,0,3,3,28,1,X,,0.3475,,,,,,,,,,,
,,,,,R_41BwrIZaN0kisLr,001,2025-09-11_22h42.12.118,continuous_performance_test,2024.2.4,MacIntel,59.88023952,aa5f7cc4-14e4-431a-b3f7-559852084d9a,5,133.2111,134.9101,,0,0,4,4,2,1,C,space,,,,,,,,,,,,
,,,,,R_41BwrIZaN0kisLr,001,2025-09-11_22h42.12.118,continuous_performance_test,2024.2.4,MacIntel,59.88023952,aa5f7cc4-14e4-431a-b3f7-559852084d9a,5,134.9117,136.5969,space,1,0,5,5,22,1,W,space,0.3815,,,,,,,,,,,
,,,,,R_41BwrIZaN0kisLr,001,2025-09-11_22h42.12.118,continuous_performance_test,2024.2.4,MacIntel,59.88023952,aa5f7cc4-14e4-431a-b3f7-559852084d9a,5,136.5978,138.2435,space,1,0,6,6,12,1,M,space,0.3047,,,,,,,,,,,
,,,,,R_41BwrIZaN0kisLr,001,2025-09-11_22h42.12.118,continuous_performance_test,2024.2.4,MacIntel,59.88023952,aa5f7cc4-14e4-431a-b3f7-559852084d9a,5,138.2449,140.1424,space,1,0,7,7,13,1,N,space,0.3621,,,,,,,,,,,
,,,,,R_41BwrIZaN0kisLr,001,2025-09-11_22h42.12.118,continuous_performance_test,2024.2.4,MacIntel,59.88023952,aa5f7cc4-14e4-431a-b3f7-559852084d9a,5,140.1437,141.6935,space,1,0,8,8,4,1,E,space,0.3139,,,,,,,,,,,
,,,,,R_41BwrIZaN0kisLr,001,2025-09-11_22h42.12.118,continuous_performance_test,2024.2.4,MacIntel,59.88023952,aa5f7cc4-14e4-431a-b3f7-559852084d9a,5,141.6948,143.4435,space,1,0,9,9,8,1,I,space,0.6638,,,,,,,,,,,
,,,,,R_41BwrIZaN0kisLr,001,2025-09-11_22h42.12.118,continuous_performance_test,2024.2.4,MacIntel,59.88023952,aa5f7cc4-14e4-431a-b3f7-559852084d9a,5,143.4447,145.0936,space,1,0,10,10,11,1,L,space,0.4051,,,,,,,,,,,
,,,,,R_41BwrIZaN0kisLr,001,2025-09-11_22h42.12.118,continuous_performance_test,2024.2.4,MacIntel,59.88023952,aa5f7cc4-14e4-431a-b3f7-559852084d9a,5,145.095,146.6936,space,1,0,11,11,17,1,R,space,0.3779,,,,,,,,,,,
,,,,,R_41BwrIZaN0kisLr,001,2025-09-11_22h42.12.118,continuous_performance_test,2024.2.4,MacIntel,59.88023952,aa5f7cc4-14e4-431a-b3f7-559852084d9a,5,146.695,148.6936,space,1,0,12,12,5,1,F,space,0.5457,,,,,,,,,,,
,,,,,R_41BwrIZaN0kisLr,001,2025-09-11_22h42.12.118,continuous_performance_test,2024.2.4,MacIntel,59.88023952,aa5f7cc4-14e4-431a-b3f7-559852084d9a,5,148.6949,150.4437,space,1,0,13,13,1,1,B,space,0.2624,,,,,,,,,,,
,,,,,R_41BwrIZaN0kisLr,001,2025-09-11_22h42.12.118,continuous_performance_test,2024.2.4,MacIntel,59.88023952,aa5f7cc4-14e4-431a-b3f7-559852084d9a,5,150.445,152.0439,,0,0,14,14,3,1,D,space,,,,,,,,,,,,
,,,,,R_41BwrIZaN0kisLr,001,2025-09-11_22h42.12.118,continuous_performance_test,2024.2.4,MacIntel,59.88023952,aa5f7cc4-14e4-431a-b3f7-559852084d9a,5,152.0451,153.8939,space,1,0,15,15,19,1,T,space,0.5226,,,,,,,,,,,
,,,,,R_41BwrIZaN0kisLr,001,2025-09-11_22h42.12.118,continuous_performance_test,2024.2.4,MacIntel,59.88023952,aa5f7cc4-14e4-431a-b3f7-559852084d9a,5,153.8953,155.8438,space,0,0,16,16,26,1,X,,0.2822,,,,,,,,,,,
,,,,,R_41BwrIZaN0kisLr,001,2025-09-11_22h42.12.118,continuous_performance_test,2024.2.4,MacIntel,59.88023952,aa5f7cc4-14e4-431a-b3f7-559852084d9a,5,155.8449,157.794,space,0,0,17,17,27,1,X,,0.3639,,,,,,,,,,,
,,,,,R_41BwrIZaN0kisLr,001,2025-09-11_22h42.12.118,continuous_performance_test,2024.2.4,MacIntel,59.88023952,aa5f7cc4-14e4-431a-b3f7-559852084d9a,5,157.7953,159.6439,space,1,0,18,18,10,1,K,space,0.3115,,,,,,,,,,,
,,,,,R_41BwrIZaN0kisLr,001,2025-09-11_22h42.12.118,continuous_performance_test,2024.2.4,MacIntel,59.88023952,aa5f7cc4-14e4-431a-b3f7-559852084d9a,5,159.6454,161.4941,space,1,0,19,19,24,1,Z,space,0.2316,,,,,,,,,,,
,,,,,R_41BwrIZaN0kisLr,001,2025-09-11_22h42.12.118,continuous_performance_test,2024.2.4,MacIntel,59.88023952,aa5f7cc4-14e4-431a-b3f7-559852084d9a,5,161.4954,163.0441,space,1,0,20,20,7,1,H,space,0.0063,,,,,,,,,,,
,,,,,R_41BwrIZaN0kisLr,001,2025-09-11_22h42.12.118,continuous_performance_test,2024.2.4,MacIntel,59.88023952,aa5f7cc4-14e4-431a-b3f7-559852084d9a,5,163.0454,164.8942,,0,0,21,21,9,1,J,space,,,,,,,,,,,,
,,,,,R_41BwrIZaN0kisLr,001,2025-09-11_22h42.12.118,continuous_performance_test,2024.2.4,MacIntel,59.88023952,aa5f7cc4-14e4-431a-b3f7-559852084d9a,5,164.8957,166.5942,space,1,0,22,22,14,1,O,space,0.3928,,,,,,,,,,,
,,,,,R_41BwrIZaN0kisLr,001,2025-09-11_22h42.12.118,continuous_performance_test,2024.2.4,MacIntel,59.88023952,aa5f7cc4-14e4-431a-b3f7-559852084d9a,5,166.5955,168.5443,space,1,0,23,23,18,1,S,space,0.3223,,,,,,,,,,,
,,,,,R_41BwrIZaN0kisLr,001,2025-09-11_22h42.12.118,continuous_performance_test,2024.2.4,MacIntel,59.88023952,aa5f7cc4-14e4-431a-b3f7-559852084d9a,5,168.5457,170.1941,space,0,0,24,24,29,1,X,,0.0335,,,,,,,,,,,
,,,,,R_41BwrIZaN0kisLr,001,2025-09-11_22h42.12.118,continuous_performance_test,2024.2.4,MacIntel,59.88023952,aa5f7cc4-14e4-431a-b3f7-559852084d9a,5,170.1951,171.7943,space,1,0,25,25,23,1,Y,space,0.3061,,,,,,,,,,,
,,,,,R_41BwrIZaN0kisLr,001,2025-09-11_22h42.12.118,continuous_performance_test,2024.2.4,MacIntel,59.88023952,aa5f7cc4-14e4-431a-b3f7-559852084d9a,5,171.7958,173.3443,space,1,0,26,26,21,1,V,space,0.3261,,,,,,,,,,,
,,,,,R_41BwrIZaN0kisLr,001,2025-09-11_22h42.12.118,continuous_performance_test,2024.2.4,MacIntel,59.88023952,aa5f7cc4-14e4-431a-b3f7-559852084d9a,5,173.3455,175.1944,,0,0,27,27,6,1,G,space,,,,,,,,,,,,
,,,,,R_41BwrIZaN0kisLr,001,2025-09-11_22h42.12.118,continuous_performance_test,2024.2.4,MacIntel,59.88023952,aa5f7cc4-14e4-431a-b3f7-559852084d9a,5,175.1957,176.8444,space,1,0,28,28,0,1,A,space,0.3014,,,,,,,,,,,
,,,,,R_41BwrIZaN0kisLr,001,2025-09-11_22h42.12.118,continuous_performance_test,2024.2.4,MacIntel,59.88023952,aa5f7cc4-14e4-431a-b3f7-559852084d9a,5,176.8456,178.594,space,1,0,29,29,20,1,U,space,0.3288,,,,,,,,,,,
,,,,,R_41BwrIZaN0kisLr,001,2025-09-11_22h42.12.118,continuous_performance_test,2024.2.4,MacIntel,59.88023952,aa5f7cc4-14e4-431a-b3f7-559852084d9a,5,185.9509,187.6948,space,1,0,0,0,14,1,O,space,0.9076,,178.5956,185.9448,space,7.3215,,,,,,
,,,,,R_41BwrIZaN0kisLr,001,2025-09-11_22h42.12.118,continuous_performance_test,2024.2.4,MacIntel,59.88023952,aa5f7cc4-14e4-431a-b3f7-559852084d9a,5,187.6963,189.6949,space,0,0,1,1,28,1,X,,0.1225,,,,,,,,,,,
,,,,,R_41BwrIZaN0kisLr,001,2025-09-11_22h42.12.118,continuous_performance_test,2024.2.4,MacIntel,59.88023952,aa5f7cc4-14e4-431a-b3f7-559852084d9a,5,189.6963,191.494,,0,0,2,2,4,1,E,space,,,,,,,,,,,,
,,,,,R_41BwrIZaN0kisLr,001,2025-09-11_22h42.12.118,continuous_performance_test,2024.2.4,MacIntel,59.88023952,aa5f7cc4-14e4-431a-b3f7-559852084d9a,5,191.4957,193.395,,0,0,3,3,23,1,Y,space,,,,,,,,,,,,
,,,,,R_41BwrIZaN0kisLr,001,2025-09-11_22h42.12.118,continuous_performance_test,2024.2.4,MacIntel,59.88023952,aa5f7cc4-14e4-431a-b3f7-559852084d9a,5,193.3962,194.9448,,0,0,4,4,12,1,M,space,,,,,,,,,,,,
,,,,,R_41BwrIZaN0kisLr,001,2025-09-11_22h42.12.118,continuous_performance_test,2024.2.4,MacIntel,59.88023952,aa5f7cc4-14e4-431a-b3f7-559852084d9a,5,194.9457,196.7951,,0,0,5,5,24,1,Z,space,,,,,,,,,,,,
,,,,,R_41BwrIZaN0kisLr,001,2025-09-11_22h42.12.118,continuous_performance_test,2024.2.4,MacIntel,59.88023952,aa5f7cc4-14e4-431a-b3f7-559852084d9a,5,196.7965,198.4451,,0,0,6,6,18,1,S,space,,,,,,,,,,,,
,,,,,R_41BwrIZaN0kisLr,001,2025-09-11_22h42.12.118,continuous_performance_test,2024.2.4,MacIntel,59.88023952,aa5f7cc4-14e4-431a-b3f7-559852084d9a,5,198.4464,199.9948,,1,0,7,7,25,1,X,,,,,,,,,,,,,
,,,,,R_41BwrIZaN0kisLr,001,2025-09-11_22h42.12.118,continuous_performance_test,2024.2.4,MacIntel,59.88023952,aa5f7cc4-14e4-431a-b3f7-559852084d9a,5,199.9961,201.8452,,0,0,8,8,13,1,N,space,,,,,,,,,,,,
,,,,,R_41BwrIZaN0kisLr,001,2025-09-11_22h42.12.118,continuous_performance_test,2024.2.4,MacIntel,59.88023952,aa5f7cc4-14e4-431a-b3f7-559852084d9a,5,201.8464,203.5451,,0,0,9,9,21,1,V,space,,,,,,,,,,,,
,,,,,R_41BwrIZaN0kisLr,001,2025-09-11_22h42.12.118,continuous_performance_test,2024.2.4,MacIntel,59.88023952,aa5f7cc4-14e4-431a-b3f7-559852084d9a,5,203.5462,205.3452,,0,0,10,10,10,1,K,space,,,,,,,,,,,,
,,,,,R_41BwrIZaN0kisLr,001,2025-09-11_22h42.12.118,continuous_performance_test,2024.2.4,MacIntel,59.88023952,aa5f7cc4-14e4-431a-b3f7-559852084d9a,5,205.3464,207.0953,,0,0,11,11,0,1,A,space,,,,,,,,,,,,
,,,,,R_41BwrIZaN0kisLr,001,2025-09-11_22h42.12.118,continuous_performance_test,2024.2.4,MacIntel,59.88023952,aa5f7cc4-14e4-431a-b3f7-559852084d9a,5,207.0966,209.045,,0,0,12,12,20,1,U,space,,,,,,,,,,,,
,,,,,R_41BwrIZaN0kisLr,001,2025-09-11_22h42.12.118,continuous_performance_test,2024.2.4,MacIntel,59.88023952,aa5f7cc4-14e4-431a-b3f7-559852084d9a,5,209.0463,210.7454,,0,0,13,13,2,1,C,space,,,,,,,,,,,,
,,,,,R_41BwrIZaN0kisLr,001,2025-09-11_22h42.12.118,continuous_performance_test,2024.2.4,MacIntel,59.88023952,aa5f7cc4-14e4-431a-b3f7-559852084d9a,5,210.7466,212.4455,,0,0,14,14,15,1,P,space,,,,,,,,,,,,
,,,,,R_41BwrIZaN0kisLr,001,2025-09-11_22h42.12.118,continuous_performance_test,2024.2.4,MacIntel,59.88023952,aa5f7cc4-14e4-431a-b3f7-559852084d9a,5,212.4468,214.4457,,1,0,15,15,26,1,X,,,,,,,,,,,,,
,,,,,R_41BwrIZaN0kisLr,001,2025-09-11_22h42.12.118,continuous_performance_test,2024.2.4,MacIntel,59.88023952,aa5f7cc4-14e4-431a-b3f7-559852084d9a,5,214.4471,216.4456,,0,0,16,16,17,1,R,space,,,,,,,,,,,,
,,,,,R_41BwrIZaN0kisLr,001,2025-09-11_22h42.12.118,continuous_performance_test,2024.2.4,MacIntel,59.88023952,aa5f7cc4-14e4-431a-b3f7-559852084d9a,5,216.4468,218.0956,,0,0,17,17,1,1,B,space,,,,,,,,,,,,
,,,,,R_41BwrIZaN0kisLr,001,2025-09-11_22h42.12.118,continuous_performance_test,2024.2.4,MacIntel,59.88023952,aa5f7cc4-14e4-431a-b3f7-559852084d9a,5,218.0967,219.8375,,0,0,18,18,22,1,W,space,,,,,,,,,,,,
,,,,,R_41BwrIZaN0kisLr,001,2025-09-11_22h42.12.118,continuous_performance_test,2024.2.4,MacIntel,59.88023952,aa5f7cc4-14e4-431a-b3f7-559852084d9a,5,219.8385,221.3791,,0,0,19,19,9,1,J,space,,,,,,,,,,,,
,,,,,R_41BwrIZaN0kisLr,001,2025-09-11_22h42.12.118,continuous_performance_test,2024.2.4,MacIntel,59.88023952,aa5f7cc4-14e4-431a-b3f7-559852084d9a,5,221.3803,223.0291,,0,0,20,20,7,1,H,space,,,,,,,,,,,,
,,,,,R_41BwrIZaN0kisLr,001,2025-09-11_22h42.12.118,continuous_performance_test,2024.2.4,MacIntel,59.88023952,aa5f7cc4-14e4-431a-b3f7-559852084d9a,5,223.0304,224.9792,,0,0,21,21,5,1,F,space,,,,,,,,,,,,
,,,,,R_41BwrIZaN0kisLr,001,2025-09-11_22h42.12.118,continuous_performance_test,2024.2.4,MacIntel,59.88023952,aa5f7cc4-14e4-431a-b3f7-559852084d9a,5,224.9804,226.5958,,0,0,22,22,16,1,Q,space,,,,,,,,,,,,
,,,,,R_41BwrIZaN0kisLr,001,2025-09-11_22h42.12.118,continuous_performance_test,2024.2.4,MacIntel,59.88023952,aa5f7cc4-14e4-431a-b3f7-559852084d9a,5,226.5967,228.4459,,1,0,23,23,29,1,X,,,,,,,,,,,,,
,,,,,R_41BwrIZaN0kisLr,001,2025-09-11_22h42.12.118,continuous_performance_test,2024.2.4,MacIntel,59.88023952,aa5f7cc4-14e4-431a-b3f7-559852084d9a,5,228.4474,230.2959,,0,0,24,24,19,1,T,space,,,,,,,,,,,,
,,,,,R_41BwrIZaN0kisLr,001,2025-09-11_22h42.12.118,continuous_performance_test,2024.2.4,MacIntel,59.88023952,aa5f7cc4-14e4-431a-b3f7-559852084d9a,5,230.297,232.296,,0,0,25,25,8,1,I,space,,,,,,,,,,,,
,,,,,R_41BwrIZaN0kisLr,001,2025-09-11_22h42.12.118,continuous_performance_test,2024.2.4,MacIntel,59.88023952,aa5f7cc4-14e4-431a-b3f7-559852084d9a,5,232.2974,234.2961,,0,0,26,26,11,1,L,space,,,,,,,,,,,,
,,,,,R_41BwrIZaN0kisLr,001,2025-09-11_22h42.12.118,continuous_performance_test,2024.2.4,MacIntel,59.88023952,aa5f7cc4-14e4-431a-b3f7-559852084d9a,5,234.2972,235.8461,,0,0,27,27,3,1,D,space,,,,,,,,,,,,
,,,,,R_41BwrIZaN0kisLr,001,2025-09-11_22h42.12.118,continuous_performance_test,2024.2.4,MacIntel,59.88023952,aa5f7cc4-14e4-431a-b3f7-559852084d9a,5,235.8474,237.7461,,1,0,28,28,27,1,X,,,,,,,,,,,,,
,,,,,R_41BwrIZaN0kisLr,001,2025-09-11_22h42.12.118,continuous_performance_test,2024.2.4,MacIntel,59.88023952,aa5f7cc4-14e4-431a-b3f7-559852084d9a,5,237.7475,239.5462,,0,0,29,29,6,1,G,space,,,,,,,,,,,,
,,,,,R_41BwrIZaN0kisLr,001,2025-09-11_22h42.12.118,continuous_performance_test,2024.2.4,MacIntel,59.88023952,aa5f7cc4-14e4-431a-b3f7-559852084d9a,5,254.5545,256.5469,,0,0,0,0,24,1,Z,space,,,239.5476,254.5468,,,,,,,,
,,,,,R_41BwrIZaN0kisLr,001,2025-09-11_22h42.12.118,continuous_performance_test,2024.2.4,MacIntel,59.88023952,aa5f7cc4-14e4-431a-b3f7-559852084d9a,5,256.5486,258.1966,,0,0,1,1,2,1,C,space,,,,,,,,,,,,
,,,,,R_41BwrIZaN0kisLr,001,2025-09-11_22h42.12.118,continuous_performance_test,2024.2.4,MacIntel,59.88023952,aa5f7cc4-14e4-431a-b3f7-559852084d9a,5,258.1974,259.9468,,0,0,2,2,0,1,A,space,,,,,,,,,,,,
,,,,,R_41BwrIZaN0kisLr,001,2025-09-11_22h42.12.118,continuous_performance_test,2024.2.4,MacIntel,59.88023952,aa5f7cc4-14e4-431a-b3f7-559852084d9a,5,259.9481,261.7966,,0,0,3,3,22,1,W,space,,,,,,,,,,,,
,,,,,R_41BwrIZaN0kisLr,001,2025-09-11_22h42.12.118,continuous_performance_test,2024.2.4,MacIntel,59.88023952,aa5f7cc4-14e4-431a-b3f7-559852084d9a,5,261.797,263.4968,,1,0,4,4,29,1,X,,,,,,,,,,,,,
,,,,,R_41BwrIZaN0kisLr,001,2025-09-11_22h42.12.118,continuous_performance_test,2024.2.4,MacIntel,59.88023952,aa5f7cc4-14e4-431a-b3f7-559852084d9a,5,263.498,265.247,,0,0,5,5,7,1,H,space,,,,,,,,,,,,
,,,,,R_41BwrIZaN0kisLr,001,2025-09-11_22h42.12.118,continuous_performance_test,2024.2.4,MacIntel,59.88023952,aa5f7cc4-14e4-431a-b3f7-559852084d9a,5,265.2482,266.9469,,0,0,6,6,15,1,P,space,,,,,,,,,,,,
,,,,,R_41BwrIZaN0kisLr,001,2025-09-11_22h42.12.118,continuous_performance_test,2024.2.4,MacIntel,59.88023952,aa5f7cc4-14e4-431a-b3f7-559852084d9a,5,266.948,268.6969,,0,0,7,7,9,1,J,space,,,,,,,,,,,,
,,,,,R_41BwrIZaN0kisLr,001,2025-09-11_22h42.12.118,continuous_performance_test,2024.2.4,MacIntel,59.88023952,aa5f7cc4-14e4-431a-b3f7-559852084d9a,5,268.6976,270.3971,,0,0,8,8,1,1,B,space,,,,,,,,,,,,
,,,,,R_41BwrIZaN0kisLr,001,2025-09-11_22h42.12.118,continuous_performance_test,2024.2.4,MacIntel,59.88023952,aa5f7cc4-14e4-431a-b3f7-559852084d9a,5,270.3985,272.0472,,0,0,9,9,6,1,G,space,,,,,,,,,,,,
,,,,,R_41BwrIZaN0kisLr,001,2025-09-11_22h42.12.118,continuous_performance_test,2024.2.4,MacIntel,59.88023952,aa5f7cc4-14e4-431a-b3f7-559852084d9a,5,272.0484,273.6971,,0,0,10,10,10,1,K,space,,,,,,,,,,,,
,,,,,R_41BwrIZaN0kisLr,001,2025-09-11_22h42.12.118,continuous_performance_test,2024.2.4,MacIntel,59.88023952,aa5f7cc4-14e4-431a-b3f7-559852084d9a,5,273.6981,275.4464,,1,0,11,11,26,1,X,,,,,,,,,,,,,
,,,,,R_41BwrIZaN0kisLr,001,2025-09-11_22h42.12.118,continuous_performance_test,2024.2.4,MacIntel,59.88023952,aa5f7cc4-14e4-431a-b3f7-559852084d9a,5,275.448,277.1473,,0,0,12,12,21,1,V,space,,,,,,,,,,,,
,,,,,R_41BwrIZaN0kisLr,001,2025-09-11_22h42.12.118,continuous_performance_test,2024.2.4,MacIntel,59.88023952,aa5f7cc4-14e4-431a-b3f7-559852084d9a,5,277.1485,278.8472,space,1,0,13,13,12,1,M,space,0.9414,,,,,,,,,,,
,,,,,R_41BwrIZaN0kisLr,001,2025-09-11_22h42.12.118,continuous_performance_test,2024.2.4,MacIntel,59.88023952,aa5f7cc4-14e4-431a-b3f7-559852084d9a,5,278.8485,280.4973,space,1,0,14,14,20,1,U,space,0.4227,,,,,,,,,,,
,,,,,R_41BwrIZaN0kisLr,001,2025-09-11_22h42.12.118,continuous_performance_test,2024.2.4,MacIntel,59.88023952,aa5f7cc4-14e4-431a-b3f7-559852084d9a,5,280.4982,282.2474,space,1,0,15,15,16,1,Q,space,0.3422,,,,,,,,,,,
,,,,,R_41BwrIZaN0kisLr,001,2025-09-11_22h42.12.118,continuous_performance_test,2024.2.4,MacIntel,59.88023952,aa5f7cc4-14e4-431a-b3f7-559852084d9a,5,282.2486,283.8471,space,1,0,16,16,11,1,L,space,0.3637,,,,,,,,,,,
,,,,,R_41BwrIZaN0kisLr,001,2025-09-11_22h42.12.118,continuous_performance_test,2024.2.4,MacIntel,59.88023952,aa5f7cc4-14e4-431a-b3f7-559852084d9a,5,283.8477,285.5475,space,1,0,17,17,18,1,S,space,0.9219,,,,,,,,,,,
,,,,,R_41BwrIZaN0kisLr,001,2025-09-11_22h42.12.118,continuous_performance_test,2024.2.4,MacIntel,59.88023952,aa5f7cc4-14e4-431a-b3f7-559852084d9a,5,285.549,287.3353,,0,0,18,18,3,1,D,space,,,,,,,,,,,,
,,,,,R_41BwrIZaN0kisLr,001,2025-09-11_22h42.12.118,continuous_performance_test,2024.2.4,MacIntel,59.88023952,aa5f7cc4-14e4-431a-b3f7-559852084d9a,5,287.3363,289.3303,,0,0,19,19,17,1,R,space,,,,,,,,,,,,
,,,,,R_41BwrIZaN0kisLr,001,2025-09-11_22h42.12.118,continuous_performance_test,2024.2.4,MacIntel,59.88023952,aa5f7cc4-14e4-431a-b3f7-559852084d9a,5,289.3314,290.8809,space,1,0,20,20,14,1,O,space,0.3218,,,,,,,,,,,
,,,,,R_41BwrIZaN0kisLr,001,2025-09-11_22h42.12.118,continuous_performance_test,2024.2.4,MacIntel,59.88023952,aa5f7cc4-14e4-431a-b3f7-559852084d9a,5,290.882,292.5306,space,1,0,21,21,8,1,I,space,0.3372,,,,,,,,,,,
,,,,,R_41BwrIZaN0kisLr,001,2025-09-11_22h42.12.118,continuous_performance_test,2024.2.4,MacIntel,59.88023952,aa5f7cc4-14e4-431a-b3f7-559852084d9a,5,292.5312,294.5312,space,0,0,22,22,25,1,X,,0.0005,,,,,,,,,,,
,,,,,R_41BwrIZaN0kisLr,001,2025-09-11_22h42.12.118,continuous_performance_test,2024.2.4,MacIntel,59.88023952,aa5f7cc4-14e4-431a-b3f7-559852084d9a,5,294.5323,296.1311,space,0,0,23,23,27,1,X,,0.3016,,,,,,,,,,,
,,,,,R_41BwrIZaN0kisLr,001,2025-09-11_22h42.12.118,continuous_performance_test,2024.2.4,MacIntel,59.88023952,aa5f7cc4-14e4-431a-b3f7-559852084d9a,5,296.1321,297.7313,,1,0,24,24,28,1,X,,,,,,,,,,,,,
,,,,,R_41BwrIZaN0kisLr,001,2025-09-11_22h42.12.118,continuous_performance_test,2024.2.4,MacIntel,59.88023952,aa5f7cc4-14e4-431a-b3f7-559852084d9a,5,297.7326,299.7313,space,1,0,25,25,4,1,E,space,0.2983,,,,,,,,,,,
,,,,,R_41BwrIZaN0kisLr,001,2025-09-11_22h42.12.118,continuous_performance_test,2024.2.4,MacIntel,59.88023952,aa5f7cc4-14e4-431a-b3f7-559852084d9a,5,299.7327,301.4314,space,1,0,26,26,19,1,T,space,0.2822,,,,,,,,,,,
,,,,,R_41BwrIZaN0kisLr,001,2025-09-11_22h42.12.118,continuous_performance_test,2024.2.4,MacIntel,59.88023952,aa5f7cc4-14e4-431a-b3f7-559852084d9a,5,301.433,303.1807,space,1,0,27,27,13,1,N,space,0.323,,,,,,,,,,,
,,,,,R_41BwrIZaN0kisLr,001,2025-09-11_22h42.12.118,continuous_performance_test,2024.2.4,MacIntel,59.88023952,aa5f7cc4-14e4-431a-b3f7-559852084d9a,5,303.1819,305.1314,space,1,0,28,28,23,1,Y,space,0.3045,,,,,,,,,,,
,,,,,R_41BwrIZaN0kisLr,001,2025-09-11_22h42.12.118,continuous_performance_test,2024.2.4,MacIntel,59.88023952,aa5f7cc4-14e4-431a-b3f7-559852084d9a,5,305.1328,307.0814,space,1,0,29,29,5,1,F,space,0.2785,,,,,,,,,,,
,,,,,R_41BwrIZaN0kisLr,001,2025-09-11_22h42.12.118,continuous_performance_test,2024.2.4,MacIntel,59.88023952,aa5f7cc4-14e4-431a-b3f7-559852084d9a,5,320.7741,322.5154,space,1,0,0,0,19,1,T,space,0.3432,,307.0827,320.7655,space,13.6556,,,,,,
,,,,,R_41BwrIZaN0kisLr,001,2025-09-11_22h42.12.118,continuous_performance_test,2024.2.4,MacIntel,59.88023952,aa5f7cc4-14e4-431a-b3f7-559852084d9a,5,322.517,324.2654,space,1,0,1,1,17,1,R,space,0.3841,,,,,,,,,,,
,,,,,R_41BwrIZaN0kisLr,001,2025-09-11_22h42.12.118,continuous_performance_test,2024.2.4,MacIntel,59.88023952,aa5f7cc4-14e4-431a-b3f7-559852084d9a,5,324.2669,326.1654,space,1,0,2,2,23,1,Y,space,0.44,,,,,,,,,,,
,,,,,R_41BwrIZaN0kisLr,001,2025-09-11_22h42.12.118,continuous_performance_test,2024.2.4,MacIntel,59.88023952,aa5f7cc4-14e4-431a-b3f7-559852084d9a,5,326.1668,328.1154,space,1,0,3,3,9,1,J,space,0.3152,,,,,,,,,,,
,,,,,R_41BwrIZaN0kisLr,001,2025-09-11_22h42.12.118,continuous_performance_test,2024.2.4,MacIntel,59.88023952,aa5f7cc4-14e4-431a-b3f7-559852084d9a,5,328.1166,329.9651,space,1,0,4,4,4,1,E,space,0.2996,,,,,,,,,,,
,,,,,R_41BwrIZaN0kisLr,001,2025-09-11_22h42.12.118,continuous_performance_test,2024.2.4,MacIntel,59.88023952,aa5f7cc4-14e4-431a-b3f7-559852084d9a,5,329.966,331.8652,space,1,0,5,5,5,1,F,space,0.2923,,,,,,,,,,,
,,,,,R_41BwrIZaN0kisLr,001,2025-09-11_22h42.12.118,continuous_performance_test,2024.2.4,MacIntel,59.88023952,aa5f7cc4-14e4-431a-b3f7-559852084d9a,5,331.8665,333.8155,space,0,0,6,6,29,1,X,,0.2931,,,,,,,,,,,
,,,,,R_41BwrIZaN0kisLr,001,2025-09-11_22h42.12.118,continuous_performance_test,2024.2.4,MacIntel,59.88023952,aa5f7cc4-14e4-431a-b3f7-559852084d9a,5,333.8167,335.7657,,1,0,7,7,25,1,X,,,,,,,,,,,,,
,,,,,R_41BwrIZaN0kisLr,001,2025-09-11_22h42.12.118,continuous_performance_test,2024.2.4,MacIntel,59.88023952,aa5f7cc4-14e4-431a-b3f7-559852084d9a,5,335.7671,337.4157,space,1,0,8,8,12,1,M,space,0.4447,,,,,,,,,,,
,,,,,R_41BwrIZaN0kisLr,001,2025-09-11_22h42.12.118,continuous_performance_test,2024.2.4,MacIntel,59.88023952,aa5f7cc4-14e4-431a-b3f7-559852084d9a,5,337.417,339.4151,space,1,0,9,9,21,1,V,space,0.506,,,,,,,,,,,
,,,,,R_41BwrIZaN0kisLr,001,2025-09-11_22h42.12.118,continuous_performance_test,2024.2.4,MacIntel,59.88023952,aa5f7cc4-14e4-431a-b3f7-559852084d9a,5,339.4164,341.0159,space,1,0,10,10,8,1,I,space,0.4061,,,,,,,,,,,
,,,,,R_41BwrIZaN0kisLr,001,2025-09-11_22h42.12.118,continuous_performance_test,2024.2.4,MacIntel,59.88023952,aa5f7cc4-14e4-431a-b3f7-559852084d9a,5,341.0172,342.8659,space,1,0,11,11,14,1,O,space,0.5885,,,,,,,,,,,
,,,,,R_41BwrIZaN0kisLr,001,2025-09-11_22h42.12.118,continuous_performance_test,2024.2.4,MacIntel,59.88023952,aa5f7cc4-14e4-431a-b3f7-559852084d9a,5,342.8673,344.8659,space,1,0,12,12,22,1,W,space,0.6365,,,,,,,,,,,
,,,,,R_41BwrIZaN0kisLr,001,2025-09-11_22h42.12.118,continuous_performance_test,2024.2.4,MacIntel,59.88023952,aa5f7cc4-14e4-431a-b3f7-559852084d9a,5,344.8676,346.4154,,0,0,13,13,18,1,S,space,,,,,,,,,,,,
,,,,,R_41BwrIZaN0kisLr,001,2025-09-11_22h42.12.118,continuous_performance_test,2024.2.4,MacIntel,59.88023952,aa5f7cc4-14e4-431a-b3f7-559852084d9a,5,346.4168,348.4161,,0,0,14,14,6,1,G,space,,,,,,,,,,,,
,,,,,R_41BwrIZaN0kisLr,001,2025-09-11_22h42.12.118,continuous_performance_test,2024.2.4,MacIntel,59.88023952,aa5f7cc4-14e4-431a-b3f7-559852084d9a,5,348.4177,350.3489,,0,0,15,15,1,1,B,space,,,,,,,,,,,,
,,,,,R_41BwrIZaN0kisLr,001,2025-09-11_22h42.12.118,continuous_performance_test,2024.2.4,MacIntel,59.88023952,aa5f7cc4-14e4-431a-b3f7-559852084d9a,5,350.35,352.1994,,0,0,16,16,0,1,A,space,,,,,,,,,,,,
,,,,,R_41BwrIZaN0kisLr,001,2025-09-11_22h42.12.118,continuous_performance_test,2024.2.4,MacIntel,59.88023952,aa5f7cc4-14e4-431a-b3f7-559852084d9a,5,352.2007,353.7495,,0,0,17,17,3,1,D,space,,,,,,,,,,,,
,,,,,R_41BwrIZaN0kisLr,001,2025-09-11_22h42.12.118,continuous_performance_test,2024.2.4,MacIntel,59.88023952,aa5f7cc4-14e4-431a-b3f7-559852084d9a,5,353.7508,355.6995,,0,0,18,18,7,1,H,space,,,,,,,,,,,,
,,,,,R_41BwrIZaN0kisLr,001,2025-09-11_22h42.12.118,continuous_performance_test,2024.2.4,MacIntel,59.88023952,aa5f7cc4-14e4-431a-b3f7-559852084d9a,5,355.7008,357.6496,,0,0,19,19,10,1,K,space,,,,,,,,,,,,
,,,,,R_41BwrIZaN0kisLr,001,2025-09-11_22h42.12.118,continuous_performance_test,2024.2.4,MacIntel,59.88023952,aa5f7cc4-14e4-431a-b3f7-559852084d9a,5,357.6509,359.1994,,0,0,20,20,13,1,N,space,,,,,,,,,,,,
,,,,,R_41BwrIZaN0kisLr,001,2025-09-11_22h42.12.118,continuous_performance_test,2024.2.4,MacIntel,59.88023952,aa5f7cc4-14e4-431a-b3f7-559852084d9a,5,359.2006,360.8997,,0,0,21,21,16,1,Q,space,,,,,,,,,,,,
,,,,,R_41BwrIZaN0kisLr,001,2025-09-11_22h42.12.118,continuous_performance_test,2024.2.4,MacIntel,59.88023952,aa5f7cc4-14e4-431a-b3f7-559852084d9a,5,360.9009,362.7499,,0,0,22,22,2,1,C,space,,,,,,,,,,,,
,,,,,R_41BwrIZaN0kisLr,001,2025-09-11_22h42.12.118,continuous_performance_test,2024.2.4,MacIntel,59.88023952,aa5f7cc4-14e4-431a-b3f7-559852084d9a,5,362.7511,364.4999,,0,0,23,23,24,1,Z,space,,,,,,,,,,,,
,,,,,R_41BwrIZaN0kisLr,001,2025-09-11_22h42.12.118,continuous_performance_test,2024.2.4,MacIntel,59.88023952,aa5f7cc4-14e4-431a-b3f7-559852084d9a,5,364.5011,366.4499,,0,0,24,24,15,1,P,space,,,,,,,,,,,,
,,,,,R_41BwrIZaN0kisLr,001,2025-09-11_22h42.12.118,continuous_performance_test,2024.2.4,MacIntel,59.88023952,aa5f7cc4-14e4-431a-b3f7-559852084d9a,5,366.4514,368.1,,1,0,25,25,27,1,X,,,,,,,,,,,,,
,,,,,R_41BwrIZaN0kisLr,001,2025-09-11_22h42.12.118,continuous_performance_test,2024.2.4,MacIntel,59.88023952,aa5f7cc4-14e4-431a-b3f7-559852084d9a,5,368.1014,369.7501,,0,0,26,26,20,1,U,space,,,,,,,,,,,,
,,,,,R_41BwrIZaN0kisLr,001,2025-09-11_22h42.12.118,continuous_performance_test,2024.2.4,MacIntel,59.88023952,aa5f7cc4-14e4-431a-b3f7-559852084d9a,5,369.7515,371.3993,,0,0,27,27,11,1,L,space,,,,,,,,,,,,
,,,,,R_41BwrIZaN0kisLr,001,2025-09-11_22h42.12.118,continuous_performance_test,2024.2.4,MacIntel,59.88023952,aa5f7cc4-14e4-431a-b3f7-559852084d9a,5,371.4008,373.1501,,1,0,28,28,28,1,X,,,,,,,,,,,,,
,,,,,R_41BwrIZaN0kisLr,001,2025-09-11_22h42.12.118,continuous_performance_test,2024.2.4,MacIntel,59.88023952,aa5f7cc4-14e4-431a-b3f7-559852084d9a,5,373.1512,374.8002,,1,0,29,29,26,1,X,,,,,,,,,,,,,
,,,,,R_41BwrIZaN0kisLr,001,2025-09-11_22h42.12.118,continuous_performance_test,2024.2.4,MacIntel,59.88023952,aa5f7cc4-14e4-431a-b3f7-559852084d9a,5,389.8088,391.8008,,0,0,0,0,9,1,J,space,,,374.8015,389.8008,,,,,,,,
,,,,,R_41BwrIZaN0kisLr,001,2025-09-11_22h42.12.118,continuous_performance_test,2024.2.4,MacIntel,59.88023952,aa5f7cc4-14e4-431a-b3f7-559852084d9a,5,391.8025,393.8008,,0,0,1,1,4,1,E,space,,,,,,,,,,,,
,,,,,R_41BwrIZaN0kisLr,001,2025-09-11_22h42.12.118,continuous_performance_test,2024.2.4,MacIntel,59.88023952,aa5f7cc4-14e4-431a-b3f7-559852084d9a,5,393.8021,395.651,,0,0,2,2,16,1,Q,space,,,,,,,,,,,,
,,,,,R_41BwrIZaN0kisLr,001,2025-09-11_22h42.12.118,continuous_performance_test,2024.2.4,MacIntel,59.88023952,aa5f7cc4-14e4-431a-b3f7-559852084d9a,5,395.6524,397.4008,,0,0,3,3,20,1,U,space,,,,,,,,,,,,
,,,,,R_41BwrIZaN0kisLr,001,2025-09-11_22h42.12.118,continuous_performance_test,2024.2.4,MacIntel,59.88023952,aa5f7cc4-14e4-431a-b3f7-559852084d9a,5,397.4024,399.3508,,0,0,4,4,3,1,D,space,,,,,,,,,,,,
,,,,,R_41BwrIZaN0kisLr,001,2025-09-11_22h42.12.118,continuous_performance_test,2024.2.4,MacIntel,59.88023952,aa5f7cc4-14e4-431a-b3f7-559852084d9a,5,399.3521,401.3009,,0,0,5,5,7,1,H,space,,,,,,,,,,,,
,,,,,R_41BwrIZaN0kisLr,001,2025-09-11_22h42.12.118,continuous_performance_test,2024.2.4,MacIntel,59.88023952,aa5f7cc4-14e4-431a-b3f7-559852084d9a,5,401.3023,402.8504,,0,0,6,6,19,1,T,space,,,,,,,,,,,,
,,,,,R_41BwrIZaN0kisLr,001,2025-09-11_22h42.12.118,continuous_performance_test,2024.2.4,MacIntel,59.88023952,aa5f7cc4-14e4-431a-b3f7-559852084d9a,5,402.8517,404.7012,,0,0,7,7,10,1,K,space,,,,,,,,,,,,
,,,,,R_41BwrIZaN0kisLr,001,2025-09-11_22h42.12.118,continuous_performance_test,2024.2.4,MacIntel,59.88023952,aa5f7cc4-14e4-431a-b3f7-559852084d9a,5,404.7024,406.501,,0,0,8,8,13,1,N,space,,,,,,,,,,,,
,,,,,R_41BwrIZaN0kisLr,001,2025-09-11_22h42.12.118,continuous_performance_test,2024.2.4,MacIntel,59.88023952,aa5f7cc4-14e4-431a-b3f7-559852084d9a,5,406.5022,408.5011,,0,0,9,9,21,1,V,space,,,,,,,,,,,,
,,,,,R_41BwrIZaN0kisLr,001,2025-09-11_22h42.12.118,continuous_performance_test,2024.2.4,MacIntel,59.88023952,aa5f7cc4-14e4-431a-b3f7-559852084d9a,5,408.5023,410.1012,,0,0,10,10,2,1,C,space,,,,,,,,,,,,
,,,,,R_41BwrIZaN0kisLr,001,2025-09-11_22h42.12.118,continuous_performance_test,2024.2.4,MacIntel,59.88023952,aa5f7cc4-14e4-431a-b3f7-559852084d9a,5,410.1027,411.6513,,1,0,11,11,27,1,X,,,,,,,,,,,,,
,,,,,R_41BwrIZaN0kisLr,001,2025-09-11_22h42.12.118,continuous_performance_test,2024.2.4,MacIntel,59.88023952,aa5f7cc4-14e4-431a-b3f7-559852084d9a,5,411.6525,413.4513,,0,0,12,12,8,1,I,space,,,,,,,,,,,,
,,,,,R_41BwrIZaN0kisLr,001,2025-09-11_22h42.12.118,continuous_performance_test,2024.2.4,MacIntel,59.88023952,aa5f7cc4-14e4-431a-b3f7-559852084d9a,5,413.4524,415.4009,,0,0,13,13,6,1,G,space,,,,,,,,,,,,
,,,,,R_41BwrIZaN0kisLr,001,2025-09-11_22h42.12.118,continuous_performance_test,2024.2.4,MacIntel,59.88023952,aa5f7cc4-14e4-431a-b3f7-559852084d9a,5,415.4015,417.401,,0,0,14,14,24,1,Z,space,,,,,,,,,,,,
,,,,,R_41BwrIZaN0kisLr,001,2025-09-11_22h42.12.118,continuous_performance_test,2024.2.4,MacIntel,59.88023952,aa5f7cc4-14e4-431a-b3f7-559852084d9a,5,417.4024,419.2013,,0,0,15,15,14,1,O,space,,,,,,,,,,,,
,,,,,R_41BwrIZaN0kisLr,001,2025-09-11_22h42.12.118,continuous_performance_test,2024.2.4,MacIntel,59.88023952,aa5f7cc4-14e4-431a-b3f7-559852084d9a,5,419.2027,420.9015,,0,0,16,16,12,1,M,space,,,,,,,,,,,,
,,,,,R_41BwrIZaN0kisLr,001,2025-09-11_22h42.12.118,continuous_performance_test,2024.2.4,MacIntel,59.88023952,aa5f7cc4-14e4-431a-b3f7-559852084d9a,5,420.9027,422.5516,,0,0,17,17,15,1,P,space,,,,,,,,,,,,
,,,,,R_41BwrIZaN0kisLr,001,2025-09-11_22h42.12.118,continuous_performance_test,2024.2.4,MacIntel,59.88023952,aa5f7cc4-14e4-431a-b3f7-559852084d9a,5,422.5527,424.5852,,1,0,18,18,26,1,X,,,,,,,,,,,,,
,,,,,R_41BwrIZaN0kisLr,001,2025-09-11_22h42.12.118,continuous_performance_test,2024.2.4,MacIntel,59.88023952,aa5f7cc4-14e4-431a-b3f7-559852084d9a,5,424.586,426.5848,,1,0,19,19,28,1,X,,,,,,,,,,,,,
,,,,,R_41BwrIZaN0kisLr,001,2025-09-11_22h42.12.118,continuous_performance_test,2024.2.4,MacIntel,59.88023952,aa5f7cc4-14e4-431a-b3f7-559852084d9a,5,426.5862,428.135,,0,0,20,20,23,1,Y,space,,,,,,,,,,,,
,,,,,R_41BwrIZaN0kisLr,001,2025-09-11_22h42.12.118,continuous_performance_test,2024.2.4,MacIntel,59.88023952,aa5f7cc4-14e4-431a-b3f7-559852084d9a,5,428.1363,429.8351,,0,0,21,21,0,1,A,space,,,,,,,,,,,,
,,,,,R_41BwrIZaN0kisLr,001,2025-09-11_22h42.12.118,continuous_performance_test,2024.2.4,MacIntel,59.88023952,aa5f7cc4-14e4-431a-b3f7-559852084d9a,5,429.8365,431.7852,,0,0,22,22,1,1,B,space,,,,,,,,,,,,
,,,,,R_41BwrIZaN0kisLr,001,2025-09-11_22h42.12.118,continuous_performance_test,2024.2.4,MacIntel,59.88023952,aa5f7cc4-14e4-431a-b3f7-559852084d9a,5,431.7865,433.5868,,0,0,23,23,17,1,R,space,,,,,,,,,,,,
,,,,,R_41BwrIZaN0kisLr,001,2025-09-11_22h42.12.118,continuous_performance_test,2024.2.4,MacIntel,59.88023952,aa5f7cc4-14e4-431a-b3f7-559852084d9a,5,433.5878,435.3853,,1,0,24,24,25,1,X,,,,,,,,,,,,,
,,,,,R_41BwrIZaN0kisLr,001,2025-09-11_22h42.12.118,continuous_performance_test,2024.2.4,MacIntel,59.88023952,aa5f7cc4-14e4-431a-b3f7-559852084d9a,5,435.3868,437.2353,,0,0,25,25,18,1,S,space,,,,,,,,,,,,
,,,,,R_41BwrIZaN0kisLr,001,2025-09-11_22h42.12.118,continuous_performance_test,2024.2.4,MacIntel,59.88023952,aa5f7cc4-14e4-431a-b3f7-559852084d9a,5,437.2366,438.9354,,1,0,26,26,29,1,X,,,,,,,,,,,,,
,,,,,R_41BwrIZaN0kisLr,001,2025-09-11_22h42.12.118,continuous_performance_test,2024.2.4,MacIntel,59.88023952,aa5f7cc4-14e4-431a-b3f7-559852084d9a,5,438.9367,440.8355,,0,0,27,27,22,1,W,space,,,,,,,,,,,,
,,,,,R_41BwrIZaN0kisLr,001,2025-09-11_22h42.12.118,continuous_performance_test,2024.2.4,MacIntel,59.88023952,aa5f7cc4-14e4-431a-b3f7-559852084d9a,5,440.8368,442.8355,,0,0,28,28,5,1,F,space,,,,,,,,,,,,
,,,,,R_41BwrIZaN0kisLr,001,2025-09-11_22h42.12.118,continuous_performance_test,2024.2.4,MacIntel,59.88023952,aa5f7cc4-14e4-431a-b3f7-559852084d9a,5,442.8367,444.6354,,0,0,29,29,11,1,L,space,,,,,,,,,,,,
,,,,,R_41BwrIZaN0kisLr,001,2025-09-11_22h42.12.118,continuous_performance_test,2024.2.4,MacIntel,59.88023952,aa5f7cc4-14e4-431a-b3f7-559852084d9a,5,459.6432,461.3352,,0,0,0,0,8,1,I,space,,,444.636,459.6362,,,,,,,,
,,,,,R_41BwrIZaN0kisLr,001,2025-09-11_22h42.12.118,continuous_performance_test,2024.2.4,MacIntel,59.88023952,aa5f7cc4-14e4-431a-b3f7-559852084d9a,5,461.3365,462.8523,,0,0,1,1,4,1,E,space,,,,,,,,,,,,
,,,,,R_41BwrIZaN0kisLr,001,2025-09-11_22h42.12.118,continuous_performance_test,2024.2.4,MacIntel,59.88023952,aa5f7cc4-14e4-431a-b3f7-559852084d9a,5,462.8534,464.8029,,0,0,2,2,11,1,L,space,,,,,,,,,,,,
,,,,,R_41BwrIZaN0kisLr,001,2025-09-11_22h42.12.118,continuous_performance_test,2024.2.4,MacIntel,59.88023952,aa5f7cc4-14e4-431a-b3f7-559852084d9a,5,464.8042,466.4526,,0,0,3,3,24,1,Z,space,,,,,,,,,,,,
,,,,,R_41BwrIZaN0kisLr,001,2025-09-11_22h42.12.118,continuous_performance_test,2024.2.4,MacIntel,59.88023952,aa5f7cc4-14e4-431a-b3f7-559852084d9a,5,466.4533,468.203,,0,0,4,4,2,1,C,space,,,,,,,,,,,,
,,,,,R_41BwrIZaN0kisLr,001,2025-09-11_22h42.12.118,continuous_performance_test,2024.2.4,MacIntel,59.88023952,aa5f7cc4-14e4-431a-b3f7-559852084d9a,5,468.2042,469.903,,0,0,5,5,10,1,K,space,,,,,,,,,,,,
,,,,,R_41BwrIZaN0kisLr,001,2025-09-11_22h42.12.118,continuous_performance_test,2024.2.4,MacIntel,59.88023952,aa5f7cc4-14e4-431a-b3f7-559852084d9a,5,469.9043,471.6531,,0,0,6,6,14,1,O,space,,,,,,,,,,,,
,,,,,R_41BwrIZaN0kisLr,001,2025-09-11_22h42.12.118,continuous_performance_test,2024.2.4,MacIntel,59.88023952,aa5f7cc4-14e4-431a-b3f7-559852084d9a,5,471.6547,473.5531,,0,0,7,7,18,1,S,space,,,,,,,,,,,,
,,,,,R_41BwrIZaN0kisLr,001,2025-09-11_22h42.12.118,continuous_performance_test,2024.2.4,MacIntel,59.88023952,aa5f7cc4-14e4-431a-b3f7-559852084d9a,5,473.5544,475.2531,,0,0,8,8,1,1,B,space,,,,,,,,,,,,
,,,,,R_41BwrIZaN0kisLr,001,2025-09-11_22h42.12.118,continuous_performance_test,2024.2.4,MacIntel,59.88023952,aa5f7cc4-14e4-431a-b3f7-559852084d9a,5,475.2545,478.0924,,0,0,9,9,13,1,N,space,,,,,,,,,,,,
,,,,,R_41BwrIZaN0kisLr,001,2025-09-11_22h42.12.118,continuous_performance_test,2024.2.4,MacIntel,59.88023952,aa5f7cc4-14e4-431a-b3f7-559852084d9a,5,478.0941,479.934,,0,0,10,10,20,1,U,space,,,,,,,,,,,,
,,,,,R_41BwrIZaN0kisLr,001,2025-09-11_22h42.12.118,continuous_performance_test,2024.2.4,MacIntel,59.88023952,aa5f7cc4-14e4-431a-b3f7-559852084d9a,5,479.9351,481.9352,space,1,0,11,11,6,1,G,space,0.3305,,,,,,,,,,,
,,,,,R_41BwrIZaN0kisLr,001,2025-09-11_22h42.12.118,continuous_performance_test,2024.2.4,MacIntel,59.88023952,aa5f7cc4-14e4-431a-b3f7-559852084d9a,5,481.9367,483.8853,space,0,0,12,12,27,1,X,,0.3317,,,,,,,,,,,
,,,,,R_41BwrIZaN0kisLr,001,2025-09-11_22h42.12.118,continuous_performance_test,2024.2.4,MacIntel,59.88023952,aa5f7cc4-14e4-431a-b3f7-559852084d9a,5,483.8863,485.8854,space,0,0,13,13,28,1,X,,0.2993,,,,,,,,,,,
,,,,,R_41BwrIZaN0kisLr,001,2025-09-11_22h42.12.118,continuous_performance_test,2024.2.4,MacIntel,59.88023952,aa5f7cc4-14e4-431a-b3f7-559852084d9a,5,485.8866,487.6411,space,0,0,14,14,25,1,X,,0.3028,,,,,,,,,,,
,,,,,R_41BwrIZaN0kisLr,001,2025-09-11_22h42.12.118,continuous_performance_test,2024.2.4,MacIntel,59.88023952,aa5f7cc4-14e4-431a-b3f7-559852084d9a,5,487.6422,489.4856,space,1,0,15,15,22,1,W,space,0.5566,,,,,,,,,,,
,,,,,R_41BwrIZaN0kisLr,001,2025-09-11_22h42.12.118,continuous_performance_test,2024.2.4,MacIntel,59.88023952,aa5f7cc4-14e4-431a-b3f7-559852084d9a,5,489.4876,491.3353,space,1,0,16,16,23,1,Y,space,0.4047,,,,,,,,,,,
,,,,,R_41BwrIZaN0kisLr,001,2025-09-11_22h42.12.118,continuous_performance_test,2024.2.4,MacIntel,59.88023952,aa5f7cc4-14e4-431a-b3f7-559852084d9a,5,491.3369,492.8856,space,1,0,17,17,17,1,R,space,0.3781,,,,,,,,,,,
,,,,,R_41BwrIZaN0kisLr,001,2025-09-11_22h42.12.118,continuous_performance_test,2024.2.4,MacIntel,59.88023952,aa5f7cc4-14e4-431a-b3f7-559852084d9a,5,492.8872,494.4854,space,1,0,18,18,12,1,M,space,0.3814,,,,,,,,,,,
,,,,,R_41BwrIZaN0kisLr,001,2025-09-11_22h42.12.118,continuous_performance_test,2024.2.4,MacIntel,59.88023952,aa5f7cc4-14e4-431a-b3f7-559852084d9a,5,494.4869,496.1357,space,1,0,19,19,5,1,F,space,0.3115,,,,,,,,,,,
,,,,,R_41BwrIZaN0kisLr,001,2025-09-11_22h42.12.118,continuous_performance_test,2024.2.4,MacIntel,59.88023952,aa5f7cc4-14e4-431a-b3f7-559852084d9a,5,496.1374,498.1356,space,1,0,20,20,0,1,A,space,0.3051,,,,,,,,,,,
,,,,,R_41BwrIZaN0kisLr,001,2025-09-11_22h42.12.118,continuous_performance_test,2024.2.4,MacIntel,59.88023952,aa5f7cc4-14e4-431a-b3f7-559852084d9a,5,498.1373,500.0357,space,1,0,21,21,19,1,T,space,0.2875,,,,,,,,,,,
,,,,,R_41BwrIZaN0kisLr,001,2025-09-11_22h42.12.118,continuous_performance_test,2024.2.4,MacIntel,59.88023952,aa5f7cc4-14e4-431a-b3f7-559852084d9a,5,500.0372,501.9859,space,1,0,22,22,21,1,V,space,0.4124,,,,,,,,,,,
,,,,,R_41BwrIZaN0kisLr,001,2025-09-11_22h42.12.118,continuous_performance_test,2024.2.4,MacIntel,59.88023952,aa5f7cc4-14e4-431a-b3f7-559852084d9a,5,501.9872,503.7857,space,1,0,23,23,9,1,J,space,0.3229,,,,,,,,,,,
,,,,,R_41BwrIZaN0kisLr,001,2025-09-11_22h42.12.118,continuous_performance_test,2024.2.4,MacIntel,59.88023952,aa5f7cc4-14e4-431a-b3f7-559852084d9a,5,503.7871,505.7361,space,1,0,24,24,15,1,P,space,0.0438,,,,,,,,,,,
,,,,,R_41BwrIZaN0kisLr,001,2025-09-11_22h42.12.118,continuous_performance_test,2024.2.4,MacIntel,59.88023952,aa5f7cc4-14e4-431a-b3f7-559852084d9a,5,505.7374,507.386,space,1,0,25,25,16,1,Q,space,0.365,,,,,,,,,,,
,,,,,R_41BwrIZaN0kisLr,001,2025-09-11_22h42.12.118,continuous_performance_test,2024.2.4,MacIntel,59.88023952,aa5f7cc4-14e4-431a-b3f7-559852084d9a,5,507.3873,509.2862,space,0,0,26,26,29,1,X,,0.363,,,,,,,,,,,
,,,,,R_41BwrIZaN0kisLr,001,2025-09-11_22h42.12.118,continuous_performance_test,2024.2.4,MacIntel,59.88023952,aa5f7cc4-14e4-431a-b3f7-559852084d9a,5,509.2873,511.186,space,0,0,27,27,26,1,X,,0.32,,,,,,,,,,,
,,,,,R_41BwrIZaN0kisLr,001,2025-09-11_22h42.12.118,continuous_performance_test,2024.2.4,MacIntel,59.88023952,aa5f7cc4-14e4-431a-b3f7-559852084d9a,5,511.1877,512.8361,space,1,0,28,28,7,1,H,space,0.3424,,,,,,,,,,,
,,,,,R_41BwrIZaN0kisLr,001,2025-09-11_22h42.12.118,continuous_performance_test,2024.2.4,MacIntel,59.88023952,aa5f7cc4-14e4-431a-b3f7-559852084d9a,5,512.8375,514.8363,space,1,0,29,29,3,1,D,space,0.2903,,,,,,,,,,,
,,,,,R_41BwrIZaN0kisLr,001,2025-09-11_22h42.12.118,continuous_performance_test,2024.2.4,MacIntel,59.88023952,aa5f7cc4-14e4-431a-b3f7-559852084d9a,5,520.2271,522.1197,space,1,0,0,0,15,1,P,space,0.2831,,514.8379,520.2196,space,5.3555,,,,,,
,,,,,R_41BwrIZaN0kisLr,001,2025-09-11_22h42.12.118,continuous_performance_test,2024.2.4,MacIntel,59.88023952,aa5f7cc4-14e4-431a-b3f7-559852084d9a,5,522.1212,523.9694,space,1,0,1,1,6,1,G,space,0.3296,,,,,,,,,,,
,,,,,R_41BwrIZaN0kisLr,001,2025-09-11_22h42.12.118,continuous_performance_test,2024.2.4,MacIntel,59.88023952,aa5f7cc4-14e4-431a-b3f7-559852084d9a,5,523.9708,525.9699,space,1,0,2,2,18,1,S,space,0.3967,,,,,,,,,,,
,,,,,R_41BwrIZaN0kisLr,001,2025-09-11_22h42.12.118,continuous_performance_test,2024.2.4,MacIntel,59.88023952,aa5f7cc4-14e4-431a-b3f7-559852084d9a,5,525.9711,527.87,space,1,0,3,3,5,1,F,space,0.3305,,,,,,,,,,,
,,,,,R_41BwrIZaN0kisLr,001,2025-09-11_22h42.12.118,continuous_performance_test,2024.2.4,MacIntel,59.88023952,aa5f7cc4-14e4-431a-b3f7-559852084d9a,5,527.871,529.7692,space,1,0,4,4,12,1,M,space,0.2459,,,,,,,,,,,
,,,,,R_41BwrIZaN0kisLr,001,2025-09-11_22h42.12.118,continuous_performance_test,2024.2.4,MacIntel,59.88023952,aa5f7cc4-14e4-431a-b3f7-559852084d9a,5,529.7703,531.57,space,1,0,5,5,24,1,Z,space,0.2918,,,,,,,,,,,
,,,,,R_41BwrIZaN0kisLr,001,2025-09-11_22h42.12.118,continuous_performance_test,2024.2.4,MacIntel,59.88023952,aa5f7cc4-14e4-431a-b3f7-559852084d9a,5,531.5713,533.3201,space,0,0,6,6,25,1,X,,0.2929,,,,,,,,,,,
,,,,,R_41BwrIZaN0kisLr,001,2025-09-11_22h42.12.118,continuous_performance_test,2024.2.4,MacIntel,59.88023952,aa5f7cc4-14e4-431a-b3f7-559852084d9a,5,533.3213,535.1202,space,1,0,7,7,14,1,O,space,0.362,,,,,,,,,,,
,,,,,R_41BwrIZaN0kisLr,001,2025-09-11_22h42.12.118,continuous_performance_test,2024.2.4,MacIntel,59.88023952,aa5f7cc4-14e4-431a-b3f7-559852084d9a,5,535.1214,536.9198,space,0,0,8,8,29,1,X,,0.2938,,,,,,,,,,,
,,,,,R_41BwrIZaN0kisLr,001,2025-09-11_22h42.12.118,continuous_performance_test,2024.2.4,MacIntel,59.88023952,aa5f7cc4-14e4-431a-b3f7-559852084d9a,5,536.9209,538.7701,space,1,0,9,9,4,1,E,space,0.447,,,,,,,,,,,
,,,,,R_41BwrIZaN0kisLr,001,2025-09-11_22h42.12.118,continuous_performance_test,2024.2.4,MacIntel,59.88023952,aa5f7cc4-14e4-431a-b3f7-559852084d9a,5,538.7712,540.7203,space,1,0,10,10,17,1,R,space,0.3639,,,,,,,,,,,
,,,,,R_41BwrIZaN0kisLr,001,2025-09-11_22h42.12.118,continuous_performance_test,2024.2.4,MacIntel,59.88023952,aa5f7cc4-14e4-431a-b3f7-559852084d9a,5,540.7214,542.3702,space,0,0,11,11,27,1,X,,0.2897,,,,,,,,,,,
,,,,,R_41BwrIZaN0kisLr,001,2025-09-11_22h42.12.118,continuous_performance_test,2024.2.4,MacIntel,59.88023952,aa5f7cc4-14e4-431a-b3f7-559852084d9a,5,542.3716,544.1193,space,1,0,12,12,20,1,U,space,0.2963,,,,,,,,,,,
,,,,,R_41BwrIZaN0kisLr,001,2025-09-11_22h42.12.118,continuous_performance_test,2024.2.4,MacIntel,59.88023952,aa5f7cc4-14e4-431a-b3f7-559852084d9a,5,544.1205,545.6704,space,1,0,13,13,21,1,V,space,0.2954,,,,,,,,,,,
,,,,,R_41BwrIZaN0kisLr,001,2025-09-11_22h42.12.118,continuous_performance_test,2024.2.4,MacIntel,59.88023952,aa5f7cc4-14e4-431a-b3f7-559852084d9a,5,545.6715,547.4205,space,1,0,14,14,19,1,T,space,0.2964,,,,,,,,,,,
,,,,,R_41BwrIZaN0kisLr,001,2025-09-11_22h42.12.118,continuous_performance_test,2024.2.4,MacIntel,59.88023952,aa5f7cc4-14e4-431a-b3f7-559852084d9a,5,547.422,549.1706,space,1,0,15,15,23,1,Y,space,0.392,,,,,,,,,,,
,,,,,R_41BwrIZaN0kisLr,001,2025-09-11_22h42.12.118,continuous_performance_test,2024.2.4,MacIntel,59.88023952,aa5f7cc4-14e4-431a-b3f7-559852084d9a,5,549.1721,550.7205,space,1,0,16,16,13,1,N,space,0.3254,,,,,,,,,,,
,,,,,R_41BwrIZaN0kisLr,001,2025-09-11_22h42.12.118,continuous_performance_test,2024.2.4,MacIntel,59.88023952,aa5f7cc4-14e4-431a-b3f7-559852084d9a,5,550.7218,552.4705,space,1,0,17,17,0,1,A,space,0.2727,,,,,,,,,,,
,,,,,R_41BwrIZaN0kisLr,001,2025-09-11_22h42.12.118,continuous_performance_test,2024.2.4,MacIntel,59.88023952,aa5f7cc4-14e4-431a-b3f7-559852084d9a,5,552.4718,554.4706,space,1,0,18,18,11,1,L,space,0.064,,,,,,,,,,,
,,,,,R_41BwrIZaN0kisLr,001,2025-09-11_22h42.12.118,continuous_performance_test,2024.2.4,MacIntel,59.88023952,aa5f7cc4-14e4-431a-b3f7-559852084d9a,5,554.4721,556.3709,space,1,0,19,19,2,1,C,space,0.2635,,,,,,,,,,,
,,,,,R_41BwrIZaN0kisLr,001,2025-09-11_22h42.12.118,continuous_performance_test,2024.2.4,MacIntel,59.88023952,aa5f7cc4-14e4-431a-b3f7-559852084d9a,5,556.3726,558.3708,space,0,0,20,20,28,1,X,,0.3298,,,,,,,,,,,
,,,,,R_41BwrIZaN0kisLr,001,2025-09-11_22h42.12.118,continuous_performance_test,2024.2.4,MacIntel,59.88023952,aa5f7cc4-14e4-431a-b3f7-559852084d9a,5,558.3722,560.1209,space,1,0,21,21,16,1,Q,space,0.3288,,,,,,,,,,,
,,,,,R_41BwrIZaN0kisLr,001,2025-09-11_22h42.12.118,continuous_performance_test,2024.2.4,MacIntel,59.88023952,aa5f7cc4-14e4-431a-b3f7-559852084d9a,5,560.1222,561.7208,space,1,0,22,22,9,1,J,space,0.399,,,,,,,,,,,
,,,,,R_41BwrIZaN0kisLr,001,2025-09-11_22h42.12.118,continuous_performance_test,2024.2.4,MacIntel,59.88023952,aa5f7cc4-14e4-431a-b3f7-559852084d9a,5,561.7219,563.4705,space,1,0,23,23,7,1,H,space,0.3185,,,,,,,,,,,
,,,,,R_41BwrIZaN0kisLr,001,2025-09-11_22h42.12.118,continuous_performance_test,2024.2.4,MacIntel,59.88023952,aa5f7cc4-14e4-431a-b3f7-559852084d9a,5,563.4717,565.0711,space,1,0,24,24,1,1,B,space,0.2126,,,,,,,,,,,
,,,,,R_41BwrIZaN0kisLr,001,2025-09-11_22h42.12.118,continuous_performance_test,2024.2.4,MacIntel,59.88023952,aa5f7cc4-14e4-431a-b3f7-559852084d9a,5,565.0722,566.921,,0,0,25,25,10,1,K,space,,,,,,,,,,,,
,,,,,R_41BwrIZaN0kisLr,001,2025-09-11_22h42.12.118,continuous_performance_test,2024.2.4,MacIntel,59.88023952,aa5f7cc4-14e4-431a-b3f7-559852084d9a,5,566.9224,568.5868,space,1,0,26,26,3,1,D,space,0.3849,,,,,,,,,,,
,,,,,R_41BwrIZaN0kisLr,001,2025-09-11_22h42.12.118,continuous_performance_test,2024.2.4,MacIntel,59.88023952,aa5f7cc4-14e4-431a-b3f7-559852084d9a,5,568.5878,570.3871,space,1,0,27,27,8,1,I,space,0.3825,,,,,,,,,,,
,,,,,R_41BwrIZaN0kisLr,001,2025-09-11_22h42.12.118,continuous_performance_test,2024.2.4,MacIntel,59.88023952,aa5f7cc4-14e4-431a-b3f7-559852084d9a,5,570.3884,571.9879,space,1,0,28,28,22,1,W,space,0.3297,,,,,,,,,,,
,,,,,R_41BwrIZaN0kisLr,001,2025-09-11_22h42.12.118,continuous_performance_test,2024.2.4,MacIntel,59.88023952,aa5f7cc4-14e4-431a-b3f7-559852084d9a,5,571.9891,573.887,space,0,0,29,29,26,1,X,,0.2858,,,,,,,,,,,
,,,,,R_41BwrIZaN0kisLr,001,2025-09-11_22h42.12.118,continuous_performance_test,2024.2.4,MacIntel,59.88023952,aa5f7cc4-14e4-431a-b3f7-559852084d9a,5,577.0955,578.7381,space,1,0,0,0,7,1,H,space,0.4137,,573.888,577.0889,space,3.1893,,,,,,
,,,,,R_41BwrIZaN0kisLr,001,2025-09-11_22h42.12.118,continuous_performance_test,2024.2.4,MacIntel,59.88023952,aa5f7cc4-14e4-431a-b3f7-559852084d9a,5,578.7396,580.5382,space,1,0,1,1,5,1,F,space,0.3805,,,,,,,,,,,
,,,,,R_41BwrIZaN0kisLr,001,2025-09-11_22h42.12.118,continuous_performance_test,2024.2.4,MacIntel,59.88023952,aa5f7cc4-14e4-431a-b3f7-559852084d9a,5,580.5395,582.288,space,1,0,2,2,16,1,Q,space,0.2728,,,,,,,,,,,
,,,,,R_41BwrIZaN0kisLr,001,2025-09-11_22h42.12.118,continuous_performance_test,2024.2.4,MacIntel,59.88023952,aa5f7cc4-14e4-431a-b3f7-559852084d9a,5,582.2893,583.8379,space,1,0,3,3,6,1,G,space,0.2972,,,,,,,,,,,
,,,,,R_41BwrIZaN0kisLr,001,2025-09-11_22h42.12.118,continuous_performance_test,2024.2.4,MacIntel,59.88023952,aa5f7cc4-14e4-431a-b3f7-559852084d9a,5,583.8384,585.4382,space,1,0,4,4,18,1,S,space,0.3814,,,,,,,,,,,
,,,,,R_41BwrIZaN0kisLr,001,2025-09-11_22h42.12.118,continuous_performance_test,2024.2.4,MacIntel,59.88023952,aa5f7cc4-14e4-431a-b3f7-559852084d9a,5,585.4395,586.9884,,1,0,5,5,28,1,X,,,,,,,,,,,,,
,,,,,R_41BwrIZaN0kisLr,001,2025-09-11_22h42.12.118,continuous_performance_test,2024.2.4,MacIntel,59.88023952,aa5f7cc4-14e4-431a-b3f7-559852084d9a,5,586.9897,588.8324,space,1,0,6,6,1,1,B,space,0.4148,,,,,,,,,,,
,,,,,R_41BwrIZaN0kisLr,001,2025-09-11_22h42.12.118,continuous_performance_test,2024.2.4,MacIntel,59.88023952,aa5f7cc4-14e4-431a-b3f7-559852084d9a,5,588.8335,590.5217,space,1,0,7,7,23,1,Y,space,0.3302,,,,,,,,,,,
,,,,,R_41BwrIZaN0kisLr,001,2025-09-11_22h42.12.118,continuous_performance_test,2024.2.4,MacIntel,59.88023952,aa5f7cc4-14e4-431a-b3f7-559852084d9a,5,590.5229,592.2219,space,1,0,8,8,10,1,K,space,0.3022,,,,,,,,,,,
,,,,,R_41BwrIZaN0kisLr,001,2025-09-11_22h42.12.118,continuous_performance_test,2024.2.4,MacIntel,59.88023952,aa5f7cc4-14e4-431a-b3f7-559852084d9a,5,592.2231,594.1719,space,1,0,9,9,13,1,N,space,0.5476,,,,,,,,,,,
,,,,,R_41BwrIZaN0kisLr,001,2025-09-11_22h42.12.118,continuous_performance_test,2024.2.4,MacIntel,59.88023952,aa5f7cc4-14e4-431a-b3f7-559852084d9a,5,594.1733,596.1719,space,1,0,10,10,11,1,L,space,0.3238,,,,,,,,,,,
,,,,,R_41BwrIZaN0kisLr,001,2025-09-11_22h42.12.118,continuous_performance_test,2024.2.4,MacIntel,59.88023952,aa5f7cc4-14e4-431a-b3f7-559852084d9a,5,596.173,597.972,space,1,0,11,11,14,1,O,space,0.3179,,,,,,,,,,,
,,,,,R_41BwrIZaN0kisLr,001,2025-09-11_22h42.12.118,continuous_performance_test,2024.2.4,MacIntel,59.88023952,aa5f7cc4-14e4-431a-b3f7-559852084d9a,5,597.973,599.722,space,1,0,12,12,12,1,M,space,0.295,,,,,,,,,,,
,,,,,R_41BwrIZaN0kisLr,001,2025-09-11_22h42.12.118,continuous_performance_test,2024.2.4,MacIntel,59.88023952,aa5f7cc4-14e4-431a-b3f7-559852084d9a,5,599.7234,601.5217,space,1,0,13,13,19,1,T,space,0.3298,,,,,,,,,,,
,,,,,R_41BwrIZaN0kisLr,001,2025-09-11_22h42.12.118,continuous_performance_test,2024.2.4,MacIntel,59.88023952,aa5f7cc4-14e4-431a-b3f7-559852084d9a,5,601.5231,603.1712,space,1,0,14,14,15,1,P,space,0.5631,,,,,,,,,,,
,,,,,R_41BwrIZaN0kisLr,001,2025-09-11_22h42.12.118,continuous_performance_test,2024.2.4,MacIntel,59.88023952,aa5f7cc4-14e4-431a-b3f7-559852084d9a,5,603.1726,605.1721,space,1,0,15,15,21,1,V,space,0.3146,,,,,,,,,,,
,,,,,R_41BwrIZaN0kisLr,001,2025-09-11_22h42.12.118,continuous_performance_test,2024.2.4,MacIntel,59.88023952,aa5f7cc4-14e4-431a-b3f7-559852084d9a,5,605.1734,607.1215,space,0,0,16,16,29,1,X,,0.2586,,,,,,,,,,,
,,,,,R_41BwrIZaN0kisLr,001,2025-09-11_22h42.12.118,continuous_performance_test,2024.2.4,MacIntel,59.88023952,aa5f7cc4-14e4-431a-b3f7-559852084d9a,5,607.1219,608.8724,space,1,0,17,17,4,1,E,space,0.3808,,,,,,,,,,,
,,,,,R_41BwrIZaN0kisLr,001,2025-09-11_22h42.12.118,continuous_performance_test,2024.2.4,MacIntel,59.88023952,aa5f7cc4-14e4-431a-b3f7-559852084d9a,5,608.8737,610.6725,space,0,0,18,18,27,1,X,,0.3344,,,,,,,,,,,
,,,,,R_41BwrIZaN0kisLr,001,2025-09-11_22h42.12.118,continuous_performance_test,2024.2.4,MacIntel,59.88023952,aa5f7cc4-14e4-431a-b3f7-559852084d9a,5,610.6737,612.6725,space,1,0,19,19,8,1,I,space,0.3023,,,,,,,,,,,
,,,,,R_41BwrIZaN0kisLr,001,2025-09-11_22h42.12.118,continuous_performance_test,2024.2.4,MacIntel,59.88023952,aa5f7cc4-14e4-431a-b3f7-559852084d9a,5,612.6738,614.3227,space,1,0,20,20,24,1,Z,space,0.3655,,,,,,,,,,,
,,,,,R_41BwrIZaN0kisLr,001,2025-09-11_22h42.12.118,continuous_performance_test,2024.2.4,MacIntel,59.88023952,aa5f7cc4-14e4-431a-b3f7-559852084d9a,5,614.3239,616.2723,space,1,0,21,21,2,1,C,space,0.3258,,,,,,,,,,,
,,,,,R_41BwrIZaN0kisLr,001,2025-09-11_22h42.12.118,continuous_performance_test,2024.2.4,MacIntel,59.88023952,aa5f7cc4-14e4-431a-b3f7-559852084d9a,5,616.2732,618.1059,space,1,0,22,22,17,1,R,space,0.3132,,,,,,,,,,,
,,,,,R_41BwrIZaN0kisLr,001,2025-09-11_22h42.12.118,continuous_performance_test,2024.2.4,MacIntel,59.88023952,aa5f7cc4-14e4-431a-b3f7-559852084d9a,5,618.1067,620.0061,space,0,0,23,23,26,1,X,,0.2991,,,,,,,,,,,
,,,,,R_41BwrIZaN0kisLr,001,2025-09-11_22h42.12.118,continuous_performance_test,2024.2.4,MacIntel,59.88023952,aa5f7cc4-14e4-431a-b3f7-559852084d9a,5,620.0074,621.5562,space,1,0,24,24,3,1,D,space,0.325,,,,,,,,,,,
,,,,,R_41BwrIZaN0kisLr,001,2025-09-11_22h42.12.118,continuous_performance_test,2024.2.4,MacIntel,59.88023952,aa5f7cc4-14e4-431a-b3f7-559852084d9a,5,621.5575,623.1061,space,1,0,25,25,0,1,A,space,0.3503,,,,,,,,,,,
,,,,,R_41BwrIZaN0kisLr,001,2025-09-11_22h42.12.118,continuous_performance_test,2024.2.4,MacIntel,59.88023952,aa5f7cc4-14e4-431a-b3f7-559852084d9a,5,623.1074,625.0062,space,1,0,26,26,9,1,J,space,0.295,,,,,,,,,,,
,,,,,R_41BwrIZaN0kisLr,001,2025-09-11_22h42.12.118,continuous_performance_test,2024.2.4,MacIntel,59.88023952,aa5f7cc4-14e4-431a-b3f7-559852084d9a,5,625.0074,626.9055,space,1,0,27,27,22,1,W,space,0.2965,,,,,,,,,,,
,,,,,R_41BwrIZaN0kisLr,001,2025-09-11_22h42.12.118,continuous_performance_test,2024.2.4,MacIntel,59.88023952,aa5f7cc4-14e4-431a-b3f7-559852084d9a,5,626.9068,628.5563,space,0,0,28,28,25,1,X,,0.3638,,,,,,,,,,,
,,,,,R_41BwrIZaN0kisLr,001,2025-09-11_22h42.12.118,continuous_performance_test,2024.2.4,MacIntel,59.88023952,aa5f7cc4-14e4-431a-b3f7-559852084d9a,5,628.5574,630.2562,space,1,0,29,29,20,1,U,space,0.3961,,,,,,,,,,,
,,,,,R_41BwrIZaN0kisLr,001,2025-09-11_22h42.12.118,continuous_performance_test,2024.2.4,MacIntel,59.88023952,aa5f7cc4-14e4-431a-b3f7-559852084d9a,5,,,,,,,,,,,,,,630.2574,630.2584,,,,630.259,634.9237,space,4.6384,
