Instructions.started,Instructions.stopped,key_resp.keys,key_resp.rt,key_resp.duration,participant,session,date,expName,psychopyVersion,OS,frameRate,realeye-tester-id,realeye-tester-quality_grade,Trial_noX.started,Trial_noX.stopped,response.keys,response.corr,response.rt,response.duration,trials_noX.thisRepN,trials_noX.thisTrialN,trials_noX.thisN,trials_noX.thisIndex,trials_noX.ran,letter,corrAns,BlockBreak.started,BlockBreak.stopped,key_instruct.keys,key_instruct.rt,key_instruct.duration,End_NoX.started,End_NoX.stopped,key_resp_end_noX.keys,key_resp_end_noX.rt,key_resp_end_noX.duration
0.0002,15.6658,space,15.6428,,R_41uEAMr6slIWbf5,001,2025-08-30_10h41.41.346,continuous_performance_test,2024.2.4,MacIntel,57.80346821,a6b7d723-2f35-40e3-a7d4-3a6ace14245b,6,,,,,,,,,,,,,,,,,,,,,,,
,,,,,R_41uEAMr6slIWbf5,001,2025-08-30_10h41.41.346,continuous_performance_test,2024.2.4,MacIntel,57.80346821,a6b7d723-2f35-40e3-a7d4-3a6ace14245b,6,15.6896,17.4305,space,1,0.3376,,0,0,0,22,1,W,space,,,,,,,,,,
,,,,,R_41uEAMr6slIWbf5,001,2025-08-30_10h41.41.346,continuous_performance_test,2024.2.4,MacIntel,57.80346821,a6b7d723-2f35-40e3-a7d4-3a6ace14245b,6,17.4313,19.4311,space,1,0.4553,,0,1,1,15,1,P,space,,,,,,,,,,
,,,,,R_41uEAMr6slIWbf5,001,2025-08-30_10h41.41.346,continuous_performance_test,2024.2.4,MacIntel,57.80346821,a6b7d723-2f35-40e3-a7d4-3a6ace14245b,6,19.4326,21.2317,,0,,,0,2,2,16,1,Q,space,,,,,,,,,,
,,,,,R_41uEAMr6slIWbf5,001,2025-08-30_10h41.41.346,continuous_performance_test,2024.2.4,MacIntel,57.80346821,a6b7d723-2f35-40e3-a7d4-3a6ace14245b,6,21.2331,23.1818,space,1,0.3897,,0,3,3,18,1,S,space,,,,,,,,,,
,,,,,R_41uEAMr6slIWbf5,001,2025-08-30_10h41.41.346,continuous_performance_test,2024.2.4,MacIntel,57.80346821,a6b7d723-2f35-40e3-a7d4-3a6ace14245b,6,23.1835,25.1319,,0,,,0,4,4,4,1,E,space,,,,,,,,,,
,,,,,R_41uEAMr6slIWbf5,001,2025-08-30_10h41.41.346,continuous_performance_test,2024.2.4,MacIntel,57.80346821,a6b7d723-2f35-40e3-a7d4-3a6ace14245b,6,25.1336,26.982,space,1,0.9227,,0,5,5,13,1,N,space,,,,,,,,,,
,,,,,R_41uEAMr6slIWbf5,001,2025-08-30_10h41.41.346,continuous_performance_test,2024.2.4,MacIntel,57.80346821,a6b7d723-2f35-40e3-a7d4-3a6ace14245b,6,26.9836,28.5311,space,1,0.6833,,0,6,6,21,1,V,space,,,,,,,,,,
,,,,,R_41uEAMr6slIWbf5,001,2025-08-30_10h41.41.346,continuous_performance_test,2024.2.4,MacIntel,57.80346821,a6b7d723-2f35-40e3-a7d4-3a6ace14245b,6,28.5327,30.282,space,1,0.7954,,0,7,7,6,1,G,space,,,,,,,,,,
,,,,,R_41uEAMr6slIWbf5,001,2025-08-30_10h41.41.346,continuous_performance_test,2024.2.4,MacIntel,57.80346821,a6b7d723-2f35-40e3-a7d4-3a6ace14245b,6,30.2837,31.8314,space,0,0.3241,,0,8,8,28,1,X,,,,,,,,,,,
,,,,,R_41uEAMr6slIWbf5,001,2025-08-30_10h41.41.346,continuous_performance_test,2024.2.4,MacIntel,57.80346821,a6b7d723-2f35-40e3-a7d4-3a6ace14245b,6,31.8327,33.6318,space,0,0.2655,,0,9,9,29,1,X,,,,,,,,,,,
,,,,,R_41uEAMr6slIWbf5,001,2025-08-30_10h41.41.346,continuous_performance_test,2024.2.4,MacIntel,57.80346821,a6b7d723-2f35-40e3-a7d4-3a6ace14245b,6,33.6329,35.2315,space,0,0.9005,,0,10,10,26,1,X,,,,,,,,,,,
,,,,,R_41uEAMr6slIWbf5,001,2025-08-30_10h41.41.346,continuous_performance_test,2024.2.4,MacIntel,57.80346821,a6b7d723-2f35-40e3-a7d4-3a6ace14245b,6,35.2329,37.0311,space,1,0.5724,,0,11,11,1,1,B,space,,,,,,,,,,
,,,,,R_41uEAMr6slIWbf5,001,2025-08-30_10h41.41.346,continuous_performance_test,2024.2.4,MacIntel,57.80346821,a6b7d723-2f35-40e3-a7d4-3a6ace14245b,6,37.0327,38.9818,space,1,0.2754,,0,12,12,19,1,T,space,,,,,,,,,,
,,,,,R_41uEAMr6slIWbf5,001,2025-08-30_10h41.41.346,continuous_performance_test,2024.2.4,MacIntel,57.80346821,a6b7d723-2f35-40e3-a7d4-3a6ace14245b,6,38.9832,40.8811,,0,,,0,13,13,5,1,F,space,,,,,,,,,,
,,,,,R_41uEAMr6slIWbf5,001,2025-08-30_10h41.41.346,continuous_performance_test,2024.2.4,MacIntel,57.80346821,a6b7d723-2f35-40e3-a7d4-3a6ace14245b,6,40.8828,42.8817,space,1,0.6947,,0,14,14,24,1,Z,space,,,,,,,,,,
,,,,,R_41uEAMr6slIWbf5,001,2025-08-30_10h41.41.346,continuous_performance_test,2024.2.4,MacIntel,57.80346821,a6b7d723-2f35-40e3-a7d4-3a6ace14245b,6,42.8831,44.4314,space,1,0.4076,,0,15,15,9,1,J,space,,,,,,,,,,
,,,,,R_41uEAMr6slIWbf5,001,2025-08-30_10h41.41.346,continuous_performance_test,2024.2.4,MacIntel,57.80346821,a6b7d723-2f35-40e3-a7d4-3a6ace14245b,6,44.4329,46.3823,space,0,0.318,,0,16,16,27,1,X,,,,,,,,,,,
,,,,,R_41uEAMr6slIWbf5,001,2025-08-30_10h41.41.346,continuous_performance_test,2024.2.4,MacIntel,57.80346821,a6b7d723-2f35-40e3-a7d4-3a6ace14245b,6,46.3842,48.2324,space,1,0.288,,0,17,17,7,1,H,space,,,,,,,,,,
,,,,,R_41uEAMr6slIWbf5,001,2025-08-30_10h41.41.346,continuous_performance_test,2024.2.4,MacIntel,57.80346821,a6b7d723-2f35-40e3-a7d4-3a6ace14245b,6,48.2342,50.0325,space,1,0.6403,,0,18,18,2,1,C,space,,,,,,,,,,
,,,,,R_41uEAMr6slIWbf5,001,2025-08-30_10h41.41.346,continuous_performance_test,2024.2.4,MacIntel,57.80346821,a6b7d723-2f35-40e3-a7d4-3a6ace14245b,6,50.0345,51.7822,space,1,0.272,,0,19,19,23,1,Y,space,,,,,,,,,,
,,,,,R_41uEAMr6slIWbf5,001,2025-08-30_10h41.41.346,continuous_performance_test,2024.2.4,MacIntel,57.80346821,a6b7d723-2f35-40e3-a7d4-3a6ace14245b,6,51.7839,53.3323,space,1,0.1264,,0,20,20,12,1,M,space,,,,,,,,,,
,,,,,R_41uEAMr6slIWbf5,001,2025-08-30_10h41.41.346,continuous_performance_test,2024.2.4,MacIntel,57.80346821,a6b7d723-2f35-40e3-a7d4-3a6ace14245b,6,53.3334,55.3324,space,0,0.7101,,0,21,21,25,1,X,,,,,,,,,,,
,,,,,R_41uEAMr6slIWbf5,001,2025-08-30_10h41.41.346,continuous_performance_test,2024.2.4,MacIntel,57.80346821,a6b7d723-2f35-40e3-a7d4-3a6ace14245b,6,55.3339,56.8823,space,1,0.4062,,0,22,22,20,1,U,space,,,,,,,,,,
,,,,,R_41uEAMr6slIWbf5,001,2025-08-30_10h41.41.346,continuous_performance_test,2024.2.4,MacIntel,57.80346821,a6b7d723-2f35-40e3-a7d4-3a6ace14245b,6,56.8838,58.4815,space,1,0.2231,,0,23,23,17,1,R,space,,,,,,,,,,
,,,,,R_41uEAMr6slIWbf5,001,2025-08-30_10h41.41.346,continuous_performance_test,2024.2.4,MacIntel,57.80346821,a6b7d723-2f35-40e3-a7d4-3a6ace14245b,6,58.4833,60.2825,space,1,0.6331,,0,24,24,3,1,D,space,,,,,,,,,,
,,,,,R_41uEAMr6slIWbf5,001,2025-08-30_10h41.41.346,continuous_performance_test,2024.2.4,MacIntel,57.80346821,a6b7d723-2f35-40e3-a7d4-3a6ace14245b,6,60.2843,61.9326,space,1,0.2776,,0,25,25,0,1,A,space,,,,,,,,,,
,,,,,R_41uEAMr6slIWbf5,001,2025-08-30_10h41.41.346,continuous_performance_test,2024.2.4,MacIntel,57.80346821,a6b7d723-2f35-40e3-a7d4-3a6ace14245b,6,61.9344,63.9325,,0,,,0,26,26,11,1,L,space,,,,,,,,,,
,,,,,R_41uEAMr6slIWbf5,001,2025-08-30_10h41.41.346,continuous_performance_test,2024.2.4,MacIntel,57.80346821,a6b7d723-2f35-40e3-a7d4-3a6ace14245b,6,63.9344,65.8822,space,1,0.2955,,0,27,27,8,1,I,space,,,,,,,,,,
,,,,,R_41uEAMr6slIWbf5,001,2025-08-30_10h41.41.346,continuous_performance_test,2024.2.4,MacIntel,57.80346821,a6b7d723-2f35-40e3-a7d4-3a6ace14245b,6,65.8832,67.6327,space,1,0.2935,,0,28,28,10,1,K,space,,,,,,,,,,
,,,,,R_41uEAMr6slIWbf5,001,2025-08-30_10h41.41.346,continuous_performance_test,2024.2.4,MacIntel,57.80346821,a6b7d723-2f35-40e3-a7d4-3a6ace14245b,6,67.6344,69.4327,space,1,0.2385,,0,29,29,14,1,O,space,,,,,,,,,,
,,,,,R_41uEAMr6slIWbf5,001,2025-08-30_10h41.41.346,continuous_performance_test,2024.2.4,MacIntel,57.80346821,a6b7d723-2f35-40e3-a7d4-3a6ace14245b,6,73.244,74.9327,space,1,0.4301,,0,0,0,21,1,V,space,69.4337,73.233,space,3.7711,,,,,,
,,,,,R_41uEAMr6slIWbf5,001,2025-08-30_10h41.41.346,continuous_performance_test,2024.2.4,MacIntel,57.80346821,a6b7d723-2f35-40e3-a7d4-3a6ace14245b,6,74.9345,76.8823,space,1,0.3135,,0,1,1,19,1,T,space,,,,,,,,,,
,,,,,R_41uEAMr6slIWbf5,001,2025-08-30_10h41.41.346,continuous_performance_test,2024.2.4,MacIntel,57.80346821,a6b7d723-2f35-40e3-a7d4-3a6ace14245b,6,76.8839,78.4328,space,1,0.4179,,0,2,2,23,1,Y,space,,,,,,,,,,
,,,,,R_41uEAMr6slIWbf5,001,2025-08-30_10h41.41.346,continuous_performance_test,2024.2.4,MacIntel,57.80346821,a6b7d723-2f35-40e3-a7d4-3a6ace14245b,6,78.4344,80.3329,space,0,0.3127,,0,3,3,29,1,X,,,,,,,,,,,
,,,,,R_41uEAMr6slIWbf5,001,2025-08-30_10h41.41.346,continuous_performance_test,2024.2.4,MacIntel,57.80346821,a6b7d723-2f35-40e3-a7d4-3a6ace14245b,6,80.3346,81.8829,space,1,0.414,,0,4,4,12,1,M,space,,,,,,,,,,
,,,,,R_41uEAMr6slIWbf5,001,2025-08-30_10h41.41.346,continuous_performance_test,2024.2.4,MacIntel,57.80346821,a6b7d723-2f35-40e3-a7d4-3a6ace14245b,6,81.8843,83.832,space,1,0.4588,,0,5,5,2,1,C,space,,,,,,,,,,
,,,,,R_41uEAMr6slIWbf5,001,2025-08-30_10h41.41.346,continuous_performance_test,2024.2.4,MacIntel,57.80346821,a6b7d723-2f35-40e3-a7d4-3a6ace14245b,6,83.8337,85.533,space,1,0.3645,,0,6,6,16,1,Q,space,,,,,,,,,,
,,,,,R_41uEAMr6slIWbf5,001,2025-08-30_10h41.41.346,continuous_performance_test,2024.2.4,MacIntel,57.80346821,a6b7d723-2f35-40e3-a7d4-3a6ace14245b,6,85.5349,87.133,space,0,0.3802,,0,7,7,27,1,X,,,,,,,,,,,
,,,,,R_41uEAMr6slIWbf5,001,2025-08-30_10h41.41.346,continuous_performance_test,2024.2.4,MacIntel,57.80346821,a6b7d723-2f35-40e3-a7d4-3a6ace14245b,6,87.1348,89.133,space,1,0.8142,,0,8,8,8,1,I,space,,,,,,,,,,
,,,,,R_41uEAMr6slIWbf5,001,2025-08-30_10h41.41.346,continuous_performance_test,2024.2.4,MacIntel,57.80346821,a6b7d723-2f35-40e3-a7d4-3a6ace14245b,6,89.1347,90.833,space,1,0.5812,,0,9,9,4,1,E,space,,,,,,,,,,
,,,,,R_41uEAMr6slIWbf5,001,2025-08-30_10h41.41.346,continuous_performance_test,2024.2.4,MacIntel,57.80346821,a6b7d723-2f35-40e3-a7d4-3a6ace14245b,6,90.8343,92.3823,space,1,0.3805,,0,10,10,7,1,H,space,,,,,,,,,,
,,,,,R_41uEAMr6slIWbf5,001,2025-08-30_10h41.41.346,continuous_performance_test,2024.2.4,MacIntel,57.80346821,a6b7d723-2f35-40e3-a7d4-3a6ace14245b,6,92.3837,94.0832,space,1,0.3636,,0,11,11,6,1,G,space,,,,,,,,,,
,,,,,R_41uEAMr6slIWbf5,001,2025-08-30_10h41.41.346,continuous_performance_test,2024.2.4,MacIntel,57.80346821,a6b7d723-2f35-40e3-a7d4-3a6ace14245b,6,94.0847,95.983,space,1,0.5954,,0,12,12,15,1,P,space,,,,,,,,,,
,,,,,R_41uEAMr6slIWbf5,001,2025-08-30_10h41.41.346,continuous_performance_test,2024.2.4,MacIntel,57.80346821,a6b7d723-2f35-40e3-a7d4-3a6ace14245b,6,95.9845,97.8322,space,1,0.5794,,0,13,13,22,1,W,space,,,,,,,,,,
,,,,,R_41uEAMr6slIWbf5,001,2025-08-30_10h41.41.346,continuous_performance_test,2024.2.4,MacIntel,57.80346821,a6b7d723-2f35-40e3-a7d4-3a6ace14245b,6,97.8336,99.7832,space,1,0.4987,,0,14,14,13,1,N,space,,,,,,,,,,
,,,,,R_41uEAMr6slIWbf5,001,2025-08-30_10h41.41.346,continuous_performance_test,2024.2.4,MacIntel,57.80346821,a6b7d723-2f35-40e3-a7d4-3a6ace14245b,6,99.7844,101.5333,space,1,0.3467,,0,15,15,20,1,U,space,,,,,,,,,,
,,,,,R_41uEAMr6slIWbf5,001,2025-08-30_10h41.41.346,continuous_performance_test,2024.2.4,MacIntel,57.80346821,a6b7d723-2f35-40e3-a7d4-3a6ace14245b,6,101.5348,103.3823,space,1,0.3318,,0,16,16,17,1,R,space,,,,,,,,,,
,,,,,R_41uEAMr6slIWbf5,001,2025-08-30_10h41.41.346,continuous_performance_test,2024.2.4,MacIntel,57.80346821,a6b7d723-2f35-40e3-a7d4-3a6ace14245b,6,103.3835,105.0831,space,1,0.3969,,0,17,17,10,1,K,space,,,,,,,,,,
,,,,,R_41uEAMr6slIWbf5,001,2025-08-30_10h41.41.346,continuous_performance_test,2024.2.4,MacIntel,57.80346821,a6b7d723-2f35-40e3-a7d4-3a6ace14245b,6,105.0843,106.6834,space,1,0.3574,,0,18,18,24,1,Z,space,,,,,,,,,,
,,,,,R_41uEAMr6slIWbf5,001,2025-08-30_10h41.41.346,continuous_performance_test,2024.2.4,MacIntel,57.80346821,a6b7d723-2f35-40e3-a7d4-3a6ace14245b,6,106.6851,108.6334,space,1,0.3469,,0,19,19,9,1,J,space,,,,,,,,,,
,,,,,R_41uEAMr6slIWbf5,001,2025-08-30_10h41.41.346,continuous_performance_test,2024.2.4,MacIntel,57.80346821,a6b7d723-2f35-40e3-a7d4-3a6ace14245b,6,108.6351,110.4833,space,0,0.2968,,0,20,20,26,1,X,,,,,,,,,,,
,,,,,R_41uEAMr6slIWbf5,001,2025-08-30_10h41.41.346,continuous_performance_test,2024.2.4,MacIntel,57.80346821,a6b7d723-2f35-40e3-a7d4-3a6ace14245b,6,110.4846,112.3333,space,1,0.358,,0,21,21,18,1,S,space,,,,,,,,,,
,,,,,R_41uEAMr6slIWbf5,001,2025-08-30_10h41.41.346,continuous_performance_test,2024.2.4,MacIntel,57.80346821,a6b7d723-2f35-40e3-a7d4-3a6ace14245b,6,112.3345,114.3326,space,1,0.3143,,0,22,22,5,1,F,space,,,,,,,,,,
,,,,,R_41uEAMr6slIWbf5,001,2025-08-30_10h41.41.346,continuous_performance_test,2024.2.4,MacIntel,57.80346821,a6b7d723-2f35-40e3-a7d4-3a6ace14245b,6,114.3339,116.0334,space,1,0.3603,,0,23,23,1,1,B,space,,,,,,,,,,
,,,,,R_41uEAMr6slIWbf5,001,2025-08-30_10h41.41.346,continuous_performance_test,2024.2.4,MacIntel,57.80346821,a6b7d723-2f35-40e3-a7d4-3a6ace14245b,6,116.0347,117.7333,space,1,0.2909,,0,24,24,14,1,O,space,,,,,,,,,,
,,,,,R_41uEAMr6slIWbf5,001,2025-08-30_10h41.41.346,continuous_performance_test,2024.2.4,MacIntel,57.80346821,a6b7d723-2f35-40e3-a7d4-3a6ace14245b,6,117.7346,119.7336,space,0,0.4645,,0,25,25,25,1,X,,,,,,,,,,,
,,,,,R_41uEAMr6slIWbf5,001,2025-08-30_10h41.41.346,continuous_performance_test,2024.2.4,MacIntel,57.80346821,a6b7d723-2f35-40e3-a7d4-3a6ace14245b,6,119.7353,121.4836,space,1,0.6493,,0,26,26,11,1,L,space,,,,,,,,,,
,,,,,R_41uEAMr6slIWbf5,001,2025-08-30_10h41.41.346,continuous_performance_test,2024.2.4,MacIntel,57.80346821,a6b7d723-2f35-40e3-a7d4-3a6ace14245b,6,121.4853,123.1337,space,1,0.3416,,0,27,27,0,1,A,space,,,,,,,,,,
,,,,,R_41uEAMr6slIWbf5,001,2025-08-30_10h41.41.346,continuous_performance_test,2024.2.4,MacIntel,57.80346821,a6b7d723-2f35-40e3-a7d4-3a6ace14245b,6,123.135,124.8836,space,1,0.313,,0,28,28,3,1,D,space,,,,,,,,,,
,,,,,R_41uEAMr6slIWbf5,001,2025-08-30_10h41.41.346,continuous_performance_test,2024.2.4,MacIntel,57.80346821,a6b7d723-2f35-40e3-a7d4-3a6ace14245b,6,124.8853,126.7837,space,0,0.3499,,0,29,29,28,1,X,,,,,,,,,,,
,,,,,R_41uEAMr6slIWbf5,001,2025-08-30_10h41.41.346,continuous_performance_test,2024.2.4,MacIntel,57.80346821,a6b7d723-2f35-40e3-a7d4-3a6ace14245b,6,140.3588,142.2505,space,1,0.3676,,0,0,0,14,1,O,space,126.7853,140.3509,space,13.5398,,,,,,
,,,,,R_41uEAMr6slIWbf5,001,2025-08-30_10h41.41.346,continuous_performance_test,2024.2.4,MacIntel,57.80346821,a6b7d723-2f35-40e3-a7d4-3a6ace14245b,6,142.2516,144.0001,space,1,0.4128,,0,1,1,22,1,W,space,,,,,,,,,,
,,,,,R_41uEAMr6slIWbf5,001,2025-08-30_10h41.41.346,continuous_performance_test,2024.2.4,MacIntel,57.80346821,a6b7d723-2f35-40e3-a7d4-3a6ace14245b,6,144.0015,145.6005,space,1,0.3656,,0,2,2,12,1,M,space,,,,,,,,,,
,,,,,R_41uEAMr6slIWbf5,001,2025-08-30_10h41.41.346,continuous_performance_test,2024.2.4,MacIntel,57.80346821,a6b7d723-2f35-40e3-a7d4-3a6ace14245b,6,145.6018,147.4008,space,1,0.3797,,0,3,3,20,1,U,space,,,,,,,,,,
,,,,,R_41uEAMr6slIWbf5,001,2025-08-30_10h41.41.346,continuous_performance_test,2024.2.4,MacIntel,57.80346821,a6b7d723-2f35-40e3-a7d4-3a6ace14245b,6,147.4022,149.2008,space,1,0.3305,,0,4,4,8,1,I,space,,,,,,,,,,
,,,,,R_41uEAMr6slIWbf5,001,2025-08-30_10h41.41.346,continuous_performance_test,2024.2.4,MacIntel,57.80346821,a6b7d723-2f35-40e3-a7d4-3a6ace14245b,6,149.2025,150.8008,space,0,0.3798,,0,5,5,28,1,X,,,,,,,,,,,
,,,,,R_41uEAMr6slIWbf5,001,2025-08-30_10h41.41.346,continuous_performance_test,2024.2.4,MacIntel,57.80346821,a6b7d723-2f35-40e3-a7d4-3a6ace14245b,6,150.8023,152.6509,space,1,0.4812,,0,6,6,16,1,Q,space,,,,,,,,,,
,,,,,R_41uEAMr6slIWbf5,001,2025-08-30_10h41.41.346,continuous_performance_test,2024.2.4,MacIntel,57.80346821,a6b7d723-2f35-40e3-a7d4-3a6ace14245b,6,152.6524,154.3499,space,1,0.3501,,0,7,7,19,1,T,space,,,,,,,,,,
,,,,,R_41uEAMr6slIWbf5,001,2025-08-30_10h41.41.346,continuous_performance_test,2024.2.4,MacIntel,57.80346821,a6b7d723-2f35-40e3-a7d4-3a6ace14245b,6,154.3513,155.9011,space,1,0.4649,,0,8,8,24,1,Z,space,,,,,,,,,,
,,,,,R_41uEAMr6slIWbf5,001,2025-08-30_10h41.41.346,continuous_performance_test,2024.2.4,MacIntel,57.80346821,a6b7d723-2f35-40e3-a7d4-3a6ace14245b,6,155.9026,157.8012,space,0,0.5299,,0,9,9,25,1,X,,,,,,,,,,,
,,,,,R_41uEAMr6slIWbf5,001,2025-08-30_10h41.41.346,continuous_performance_test,2024.2.4,MacIntel,57.80346821,a6b7d723-2f35-40e3-a7d4-3a6ace14245b,6,157.8024,159.451,space,0,0.5432,,0,10,10,26,1,X,,,,,,,,,,,
,,,,,R_41uEAMr6slIWbf5,001,2025-08-30_10h41.41.346,continuous_performance_test,2024.2.4,MacIntel,57.80346821,a6b7d723-2f35-40e3-a7d4-3a6ace14245b,6,159.4522,161.4501,space,1,0.4288,,0,11,11,15,1,P,space,,,,,,,,,,
,,,,,R_41uEAMr6slIWbf5,001,2025-08-30_10h41.41.346,continuous_performance_test,2024.2.4,MacIntel,57.80346821,a6b7d723-2f35-40e3-a7d4-3a6ace14245b,6,161.4518,163.2512,space,1,0.3516,,0,12,12,1,1,B,space,,,,,,,,,,
,,,,,R_41uEAMr6slIWbf5,001,2025-08-30_10h41.41.346,continuous_performance_test,2024.2.4,MacIntel,57.80346821,a6b7d723-2f35-40e3-a7d4-3a6ace14245b,6,163.2527,165.0512,space,1,0.3135,,0,13,13,21,1,V,space,,,,,,,,,,
,,,,,R_41uEAMr6slIWbf5,001,2025-08-30_10h41.41.346,continuous_performance_test,2024.2.4,MacIntel,57.80346821,a6b7d723-2f35-40e3-a7d4-3a6ace14245b,6,165.0527,166.9003,space,1,0.3418,,0,14,14,23,1,Y,space,,,,,,,,,,
,,,,,R_41uEAMr6slIWbf5,001,2025-08-30_10h41.41.346,continuous_performance_test,2024.2.4,MacIntel,57.80346821,a6b7d723-2f35-40e3-a7d4-3a6ace14245b,6,166.9018,168.6512,space,1,0.3628,,0,15,15,11,1,L,space,,,,,,,,,,
,,,,,R_41uEAMr6slIWbf5,001,2025-08-30_10h41.41.346,continuous_performance_test,2024.2.4,MacIntel,57.80346821,a6b7d723-2f35-40e3-a7d4-3a6ace14245b,6,168.6528,170.651,space,1,0.433,,0,16,16,7,1,H,space,,,,,,,,,,
,,,,,R_41uEAMr6slIWbf5,001,2025-08-30_10h41.41.346,continuous_performance_test,2024.2.4,MacIntel,57.80346821,a6b7d723-2f35-40e3-a7d4-3a6ace14245b,6,170.6519,172.6012,space,1,0.496,,0,17,17,13,1,N,space,,,,,,,,,,
,,,,,R_41uEAMr6slIWbf5,001,2025-08-30_10h41.41.346,continuous_performance_test,2024.2.4,MacIntel,57.80346821,a6b7d723-2f35-40e3-a7d4-3a6ace14245b,6,172.6025,174.3013,,1,,,0,18,18,29,1,X,,,,,,,,,,,
,,,,,R_41uEAMr6slIWbf5,001,2025-08-30_10h41.41.346,continuous_performance_test,2024.2.4,MacIntel,57.80346821,a6b7d723-2f35-40e3-a7d4-3a6ace14245b,6,174.303,176.0015,space,1,0.3332,,0,19,19,18,1,S,space,,,,,,,,,,
,,,,,R_41uEAMr6slIWbf5,001,2025-08-30_10h41.41.346,continuous_performance_test,2024.2.4,MacIntel,57.80346821,a6b7d723-2f35-40e3-a7d4-3a6ace14245b,6,176.0026,177.6514,space,1,0.3909,,0,20,20,0,1,A,space,,,,,,,,,,
,,,,,R_41uEAMr6slIWbf5,001,2025-08-30_10h41.41.346,continuous_performance_test,2024.2.4,MacIntel,57.80346821,a6b7d723-2f35-40e3-a7d4-3a6ace14245b,6,177.6529,179.5514,space,1,0.4083,,0,21,21,5,1,F,space,,,,,,,,,,
,,,,,R_41uEAMr6slIWbf5,001,2025-08-30_10h41.41.346,continuous_performance_test,2024.2.4,MacIntel,57.80346821,a6b7d723-2f35-40e3-a7d4-3a6ace14245b,6,179.5527,181.4015,space,1,0.2968,,0,22,22,2,1,C,space,,,,,,,,,,
,,,,,R_41uEAMr6slIWbf5,001,2025-08-30_10h41.41.346,continuous_performance_test,2024.2.4,MacIntel,57.80346821,a6b7d723-2f35-40e3-a7d4-3a6ace14245b,6,181.4035,183.1014,space,1,0.3458,,0,23,23,4,1,E,space,,,,,,,,,,
,,,,,R_41uEAMr6slIWbf5,001,2025-08-30_10h41.41.346,continuous_performance_test,2024.2.4,MacIntel,57.80346821,a6b7d723-2f35-40e3-a7d4-3a6ace14245b,6,183.1027,184.8514,space,1,0.3789,,0,24,24,3,1,D,space,,,,,,,,,,
,,,,,R_41uEAMr6slIWbf5,001,2025-08-30_10h41.41.346,continuous_performance_test,2024.2.4,MacIntel,57.80346821,a6b7d723-2f35-40e3-a7d4-3a6ace14245b,6,184.8527,186.8014,space,1,0.4132,,0,25,25,6,1,G,space,,,,,,,,,,
,,,,,R_41uEAMr6slIWbf5,001,2025-08-30_10h41.41.346,continuous_performance_test,2024.2.4,MacIntel,57.80346821,a6b7d723-2f35-40e3-a7d4-3a6ace14245b,6,186.8029,188.4015,space,1,0.4183,,0,26,26,9,1,J,space,,,,,,,,,,
,,,,,R_41uEAMr6slIWbf5,001,2025-08-30_10h41.41.346,continuous_performance_test,2024.2.4,MacIntel,57.80346821,a6b7d723-2f35-40e3-a7d4-3a6ace14245b,6,188.4031,190.0506,space,0,0.6915,,0,27,27,27,1,X,,,,,,,,,,,
,,,,,R_41uEAMr6slIWbf5,001,2025-08-30_10h41.41.346,continuous_performance_test,2024.2.4,MacIntel,57.80346821,a6b7d723-2f35-40e3-a7d4-3a6ace14245b,6,190.0516,191.8006,space,1,0.9003,,0,28,28,10,1,K,space,,,,,,,,,,
,,,,,R_41uEAMr6slIWbf5,001,2025-08-30_10h41.41.346,continuous_performance_test,2024.2.4,MacIntel,57.80346821,a6b7d723-2f35-40e3-a7d4-3a6ace14245b,6,191.8016,193.8017,space,1,0.5472,,0,29,29,17,1,R,space,,,,,,,,,,
,,,,,R_41uEAMr6slIWbf5,001,2025-08-30_10h41.41.346,continuous_performance_test,2024.2.4,MacIntel,57.80346821,a6b7d723-2f35-40e3-a7d4-3a6ace14245b,6,208.811,210.402,space,0,0.8694,,0,0,0,28,1,X,,193.8035,208.8022,,,,,,,,
,,,,,R_41uEAMr6slIWbf5,001,2025-08-30_10h41.41.346,continuous_performance_test,2024.2.4,MacIntel,57.80346821,a6b7d723-2f35-40e3-a7d4-3a6ace14245b,6,210.4035,212.302,space,1,0.5461,,0,1,1,1,1,B,space,,,,,,,,,,
,,,,,R_41uEAMr6slIWbf5,001,2025-08-30_10h41.41.346,continuous_performance_test,2024.2.4,MacIntel,57.80346821,a6b7d723-2f35-40e3-a7d4-3a6ace14245b,6,212.3031,214.1522,space,1,0.4982,,0,2,2,15,1,P,space,,,,,,,,,,
,,,,,R_41uEAMr6slIWbf5,001,2025-08-30_10h41.41.346,continuous_performance_test,2024.2.4,MacIntel,57.80346821,a6b7d723-2f35-40e3-a7d4-3a6ace14245b,6,214.1534,215.8512,space,1,0.398,,0,3,3,14,1,O,space,,,,,,,,,,
,,,,,R_41uEAMr6slIWbf5,001,2025-08-30_10h41.41.346,continuous_performance_test,2024.2.4,MacIntel,57.80346821,a6b7d723-2f35-40e3-a7d4-3a6ace14245b,6,215.8527,217.5021,space,1,0.3619,,0,4,4,9,1,J,space,,,,,,,,,,
,,,,,R_41uEAMr6slIWbf5,001,2025-08-30_10h41.41.346,continuous_performance_test,2024.2.4,MacIntel,57.80346821,a6b7d723-2f35-40e3-a7d4-3a6ace14245b,6,217.5035,219.5021,space,0,0.3304,,0,5,5,29,1,X,,,,,,,,,,,
,,,,,R_41uEAMr6slIWbf5,001,2025-08-30_10h41.41.346,continuous_performance_test,2024.2.4,MacIntel,57.80346821,a6b7d723-2f35-40e3-a7d4-3a6ace14245b,6,219.5035,221.052,space,1,0.5905,,0,6,6,4,1,E,space,,,,,,,,,,
,,,,,R_41uEAMr6slIWbf5,001,2025-08-30_10h41.41.346,continuous_performance_test,2024.2.4,MacIntel,57.80346821,a6b7d723-2f35-40e3-a7d4-3a6ace14245b,6,221.0531,223.0021,,1,,,0,7,7,27,1,X,,,,,,,,,,,
,,,,,R_41uEAMr6slIWbf5,001,2025-08-30_10h41.41.346,continuous_performance_test,2024.2.4,MacIntel,57.80346821,a6b7d723-2f35-40e3-a7d4-3a6ace14245b,6,223.0034,224.8022,space,1,0.3141,,0,8,8,13,1,N,space,,,,,,,,,,
,,,,,R_41uEAMr6slIWbf5,001,2025-08-30_10h41.41.346,continuous_performance_test,2024.2.4,MacIntel,57.80346821,a6b7d723-2f35-40e3-a7d4-3a6ace14245b,6,224.8037,226.5513,space,1,0.4597,,0,9,9,5,1,F,space,,,,,,,,,,
,,,,,R_41uEAMr6slIWbf5,001,2025-08-30_10h41.41.346,continuous_performance_test,2024.2.4,MacIntel,57.80346821,a6b7d723-2f35-40e3-a7d4-3a6ace14245b,6,226.5529,228.5023,space,1,0.3788,,0,10,10,12,1,M,space,,,,,,,,,,
,,,,,R_41uEAMr6slIWbf5,001,2025-08-30_10h41.41.346,continuous_performance_test,2024.2.4,MacIntel,57.80346821,a6b7d723-2f35-40e3-a7d4-3a6ace14245b,6,228.5038,230.0524,space,1,0.3478,,0,11,11,18,1,S,space,,,,,,,,,,
,,,,,R_41uEAMr6slIWbf5,001,2025-08-30_10h41.41.346,continuous_performance_test,2024.2.4,MacIntel,57.80346821,a6b7d723-2f35-40e3-a7d4-3a6ace14245b,6,230.0539,231.7023,space,1,0.382,,0,12,12,8,1,I,space,,,,,,,,,,
,,,,,R_41uEAMr6slIWbf5,001,2025-08-30_10h41.41.346,continuous_performance_test,2024.2.4,MacIntel,57.80346821,a6b7d723-2f35-40e3-a7d4-3a6ace14245b,6,231.7037,233.3014,space,1,0.331,,0,13,13,6,1,G,space,,,,,,,,,,
,,,,,R_41uEAMr6slIWbf5,001,2025-08-30_10h41.41.346,continuous_performance_test,2024.2.4,MacIntel,57.80346821,a6b7d723-2f35-40e3-a7d4-3a6ace14245b,6,233.303,235.2524,space,1,0.3302,,0,14,14,2,1,C,space,,,,,,,,,,
,,,,,R_41uEAMr6slIWbf5,001,2025-08-30_10h41.41.346,continuous_performance_test,2024.2.4,MacIntel,57.80346821,a6b7d723-2f35-40e3-a7d4-3a6ace14245b,6,235.2539,237.1015,space,1,0.3623,,0,15,15,11,1,L,space,,,,,,,,,,
,,,,,R_41uEAMr6slIWbf5,001,2025-08-30_10h41.41.346,continuous_performance_test,2024.2.4,MacIntel,57.80346821,a6b7d723-2f35-40e3-a7d4-3a6ace14245b,6,237.103,239.0025,space,1,0.4003,,0,16,16,22,1,W,space,,,,,,,,,,
,,,,,R_41uEAMr6slIWbf5,001,2025-08-30_10h41.41.346,continuous_performance_test,2024.2.4,MacIntel,57.80346821,a6b7d723-2f35-40e3-a7d4-3a6ace14245b,6,239.0041,240.5525,space,1,0.3452,,0,17,17,24,1,Z,space,,,,,,,,,,
,,,,,R_41uEAMr6slIWbf5,001,2025-08-30_10h41.41.346,continuous_performance_test,2024.2.4,MacIntel,57.80346821,a6b7d723-2f35-40e3-a7d4-3a6ace14245b,6,240.5541,242.2525,space,1,0.3496,,0,18,18,19,1,T,space,,,,,,,,,,
,,,,,R_41uEAMr6slIWbf5,001,2025-08-30_10h41.41.346,continuous_performance_test,2024.2.4,MacIntel,57.80346821,a6b7d723-2f35-40e3-a7d4-3a6ace14245b,6,242.2541,244.1515,space,0,0.2968,,0,19,19,25,1,X,,,,,,,,,,,
,,,,,R_41uEAMr6slIWbf5,001,2025-08-30_10h41.41.346,continuous_performance_test,2024.2.4,MacIntel,57.80346821,a6b7d723-2f35-40e3-a7d4-3a6ace14245b,6,244.1526,246.1026,space,1,0.4475,,0,20,20,16,1,Q,space,,,,,,,,,,
,,,,,R_41uEAMr6slIWbf5,001,2025-08-30_10h41.41.346,continuous_performance_test,2024.2.4,MacIntel,57.80346821,a6b7d723-2f35-40e3-a7d4-3a6ace14245b,6,246.1041,247.7026,space,1,0.3635,,0,21,21,10,1,K,space,,,,,,,,,,
,,,,,R_41uEAMr6slIWbf5,001,2025-08-30_10h41.41.346,continuous_performance_test,2024.2.4,MacIntel,57.80346821,a6b7d723-2f35-40e3-a7d4-3a6ace14245b,6,247.7041,249.7026,space,1,0.4147,,0,22,22,0,1,A,space,,,,,,,,,,
,,,,,R_41uEAMr6slIWbf5,001,2025-08-30_10h41.41.346,continuous_performance_test,2024.2.4,MacIntel,57.80346821,a6b7d723-2f35-40e3-a7d4-3a6ace14245b,6,249.7042,251.4527,space,1,0.3966,,0,23,23,17,1,R,space,,,,,,,,,,
,,,,,R_41uEAMr6slIWbf5,001,2025-08-30_10h41.41.346,continuous_performance_test,2024.2.4,MacIntel,57.80346821,a6b7d723-2f35-40e3-a7d4-3a6ace14245b,6,251.4543,253.4516,space,1,0.3917,,0,24,24,3,1,D,space,,,,,,,,,,
,,,,,R_41uEAMr6slIWbf5,001,2025-08-30_10h41.41.346,continuous_performance_test,2024.2.4,MacIntel,57.80346821,a6b7d723-2f35-40e3-a7d4-3a6ace14245b,6,253.453,255.1527,space,0,0.4145,,0,25,25,26,1,X,,,,,,,,,,,
,,,,,R_41uEAMr6slIWbf5,001,2025-08-30_10h41.41.346,continuous_performance_test,2024.2.4,MacIntel,57.80346821,a6b7d723-2f35-40e3-a7d4-3a6ace14245b,6,255.1543,257.0018,space,1,0.463,,0,26,26,21,1,V,space,,,,,,,,,,
,,,,,R_41uEAMr6slIWbf5,001,2025-08-30_10h41.41.346,continuous_performance_test,2024.2.4,MacIntel,57.80346821,a6b7d723-2f35-40e3-a7d4-3a6ace14245b,6,257.0033,258.8018,space,1,0.4923,,0,27,27,20,1,U,space,,,,,,,,,,
,,,,,R_41uEAMr6slIWbf5,001,2025-08-30_10h41.41.346,continuous_performance_test,2024.2.4,MacIntel,57.80346821,a6b7d723-2f35-40e3-a7d4-3a6ace14245b,6,258.8034,260.4518,space,1,0.5129,,0,28,28,23,1,Y,space,,,,,,,,,,
,,,,,R_41uEAMr6slIWbf5,001,2025-08-30_10h41.41.346,continuous_performance_test,2024.2.4,MacIntel,57.80346821,a6b7d723-2f35-40e3-a7d4-3a6ace14245b,6,260.4534,262.4529,space,1,0.5459,,0,29,29,7,1,H,space,,,,,,,,,,
,,,,,R_41uEAMr6slIWbf5,001,2025-08-30_10h41.41.346,continuous_performance_test,2024.2.4,MacIntel,57.80346821,a6b7d723-2f35-40e3-a7d4-3a6ace14245b,6,277.4618,279.4532,space,1,0.3987,,0,0,0,8,1,I,space,262.4542,277.4532,,,,,,,,
,,,,,R_41uEAMr6slIWbf5,001,2025-08-30_10h41.41.346,continuous_performance_test,2024.2.4,MacIntel,57.80346821,a6b7d723-2f35-40e3-a7d4-3a6ace14245b,6,279.4547,281.2023,space,1,0.3679,,0,1,1,10,1,K,space,,,,,,,,,,
,,,,,R_41uEAMr6slIWbf5,001,2025-08-30_10h41.41.346,continuous_performance_test,2024.2.4,MacIntel,57.80346821,a6b7d723-2f35-40e3-a7d4-3a6ace14245b,6,281.2038,283.0525,space,1,0.3754,,0,2,2,20,1,U,space,,,,,,,,,,
,,,,,R_41uEAMr6slIWbf5,001,2025-08-30_10h41.41.346,continuous_performance_test,2024.2.4,MacIntel,57.80346821,a6b7d723-2f35-40e3-a7d4-3a6ace14245b,6,283.0539,284.6023,space,1,0.4004,,0,3,3,5,1,F,space,,,,,,,,,,
,,,,,R_41uEAMr6slIWbf5,001,2025-08-30_10h41.41.346,continuous_performance_test,2024.2.4,MacIntel,57.80346821,a6b7d723-2f35-40e3-a7d4-3a6ace14245b,6,284.6037,286.2522,,1,,,0,4,4,25,1,X,,,,,,,,,,,
,,,,,R_41uEAMr6slIWbf5,001,2025-08-30_10h41.41.346,continuous_performance_test,2024.2.4,MacIntel,57.80346821,a6b7d723-2f35-40e3-a7d4-3a6ace14245b,6,286.2536,288.0535,space,1,0.334,,0,5,5,2,1,C,space,,,,,,,,,,
,,,,,R_41uEAMr6slIWbf5,001,2025-08-30_10h41.41.346,continuous_performance_test,2024.2.4,MacIntel,57.80346821,a6b7d723-2f35-40e3-a7d4-3a6ace14245b,6,288.0551,289.9025,space,1,0.3673,,0,6,6,0,1,A,space,,,,,,,,,,
,,,,,R_41uEAMr6slIWbf5,001,2025-08-30_10h41.41.346,continuous_performance_test,2024.2.4,MacIntel,57.80346821,a6b7d723-2f35-40e3-a7d4-3a6ace14245b,6,289.904,291.4534,space,1,0.3802,,0,7,7,18,1,S,space,,,,,,,,,,
,,,,,R_41uEAMr6slIWbf5,001,2025-08-30_10h41.41.346,continuous_performance_test,2024.2.4,MacIntel,57.80346821,a6b7d723-2f35-40e3-a7d4-3a6ace14245b,6,291.455,293.4536,space,1,0.2992,,0,8,8,17,1,R,space,,,,,,,,,,
,,,,,R_41uEAMr6slIWbf5,001,2025-08-30_10h41.41.346,continuous_performance_test,2024.2.4,MacIntel,57.80346821,a6b7d723-2f35-40e3-a7d4-3a6ace14245b,6,293.4551,295.1535,space,1,0.3124,,0,9,9,1,1,B,space,,,,,,,,,,
,,,,,R_41uEAMr6slIWbf5,001,2025-08-30_10h41.41.346,continuous_performance_test,2024.2.4,MacIntel,57.80346821,a6b7d723-2f35-40e3-a7d4-3a6ace14245b,6,295.1549,297.0036,space,1,0.3635,,0,10,10,12,1,M,space,,,,,,,,,,
,,,,,R_41uEAMr6slIWbf5,001,2025-08-30_10h41.41.346,continuous_performance_test,2024.2.4,MacIntel,57.80346821,a6b7d723-2f35-40e3-a7d4-3a6ace14245b,6,297.0049,298.5534,space,1,0.2983,,0,11,11,3,1,D,space,,,,,,,,,,
,,,,,R_41uEAMr6slIWbf5,001,2025-08-30_10h41.41.346,continuous_performance_test,2024.2.4,MacIntel,57.80346821,a6b7d723-2f35-40e3-a7d4-3a6ace14245b,6,298.5551,300.1526,space,0,0.341,,0,12,12,28,1,X,,,,,,,,,,,
,,,,,R_41uEAMr6slIWbf5,001,2025-08-30_10h41.41.346,continuous_performance_test,2024.2.4,MacIntel,57.80346821,a6b7d723-2f35-40e3-a7d4-3a6ace14245b,6,300.1537,301.9537,space,0,0.3841,,0,13,13,26,1,X,,,,,,,,,,,
,,,,,R_41uEAMr6slIWbf5,001,2025-08-30_10h41.41.346,continuous_performance_test,2024.2.4,MacIntel,57.80346821,a6b7d723-2f35-40e3-a7d4-3a6ace14245b,6,301.9553,303.9039,space,1,0.3787,,0,14,14,7,1,H,space,,,,,,,,,,
,,,,,R_41uEAMr6slIWbf5,001,2025-08-30_10h41.41.346,continuous_performance_test,2024.2.4,MacIntel,57.80346821,a6b7d723-2f35-40e3-a7d4-3a6ace14245b,6,303.9054,305.6539,,1,,,0,15,15,27,1,X,,,,,,,,,,,
,,,,,R_41uEAMr6slIWbf5,001,2025-08-30_10h41.41.346,continuous_performance_test,2024.2.4,MacIntel,57.80346821,a6b7d723-2f35-40e3-a7d4-3a6ace14245b,6,305.6553,307.5038,space,1,0.4658,,0,16,16,6,1,G,space,,,,,,,,,,
,,,,,R_41uEAMr6slIWbf5,001,2025-08-30_10h41.41.346,continuous_performance_test,2024.2.4,MacIntel,57.80346821,a6b7d723-2f35-40e3-a7d4-3a6ace14245b,6,307.505,309.1028,space,1,0.447,,0,17,17,14,1,O,space,,,,,,,,,,
,,,,,R_41uEAMr6slIWbf5,001,2025-08-30_10h41.41.346,continuous_performance_test,2024.2.4,MacIntel,57.80346821,a6b7d723-2f35-40e3-a7d4-3a6ace14245b,6,309.1042,311.0038,space,1,0.3453,,0,18,18,13,1,N,space,,,,,,,,,,
,,,,,R_41uEAMr6slIWbf5,001,2025-08-30_10h41.41.346,continuous_performance_test,2024.2.4,MacIntel,57.80346821,a6b7d723-2f35-40e3-a7d4-3a6ace14245b,6,311.0055,312.8029,space,1,0.3973,,0,19,19,23,1,Y,space,,,,,,,,,,
,,,,,R_41uEAMr6slIWbf5,001,2025-08-30_10h41.41.346,continuous_performance_test,2024.2.4,MacIntel,57.80346821,a6b7d723-2f35-40e3-a7d4-3a6ace14245b,6,312.8043,314.704,space,1,0.2967,,0,20,20,21,1,V,space,,,,,,,,,,
,,,,,R_41uEAMr6slIWbf5,001,2025-08-30_10h41.41.346,continuous_performance_test,2024.2.4,MacIntel,57.80346821,a6b7d723-2f35-40e3-a7d4-3a6ace14245b,6,314.7056,316.3541,space,1,0.3139,,0,21,21,9,1,J,space,,,,,,,,,,
,,,,,R_41uEAMr6slIWbf5,001,2025-08-30_10h41.41.346,continuous_performance_test,2024.2.4,MacIntel,57.80346821,a6b7d723-2f35-40e3-a7d4-3a6ace14245b,6,316.3558,318.0041,space,1,0.2999,,0,22,22,19,1,T,space,,,,,,,,,,
,,,,,R_41uEAMr6slIWbf5,001,2025-08-30_10h41.41.346,continuous_performance_test,2024.2.4,MacIntel,57.80346821,a6b7d723-2f35-40e3-a7d4-3a6ace14245b,6,318.0057,319.9041,space,1,0.3637,,0,23,23,22,1,W,space,,,,,,,,,,
,,,,,R_41uEAMr6slIWbf5,001,2025-08-30_10h41.41.346,continuous_performance_test,2024.2.4,MacIntel,57.80346821,a6b7d723-2f35-40e3-a7d4-3a6ace14245b,6,319.9057,321.8542,space,1,0.3623,,0,24,24,24,1,Z,space,,,,,,,,,,
,,,,,R_41uEAMr6slIWbf5,001,2025-08-30_10h41.41.346,continuous_performance_test,2024.2.4,MacIntel,57.80346821,a6b7d723-2f35-40e3-a7d4-3a6ace14245b,6,321.8559,323.5032,space,1,0.4817,,0,25,25,16,1,Q,space,,,,,,,,,,
,,,,,R_41uEAMr6slIWbf5,001,2025-08-30_10h41.41.346,continuous_performance_test,2024.2.4,MacIntel,57.80346821,a6b7d723-2f35-40e3-a7d4-3a6ace14245b,6,323.5048,325.2532,space,1,0.5304,,0,26,26,15,1,P,space,,,,,,,,,,
,,,,,R_41uEAMr6slIWbf5,001,2025-08-30_10h41.41.346,continuous_performance_test,2024.2.4,MacIntel,57.80346821,a6b7d723-2f35-40e3-a7d4-3a6ace14245b,6,325.2545,326.8042,space,1,0.4745,,0,27,27,11,1,L,space,,,,,,,,,,
,,,,,R_41uEAMr6slIWbf5,001,2025-08-30_10h41.41.346,continuous_performance_test,2024.2.4,MacIntel,57.80346821,a6b7d723-2f35-40e3-a7d4-3a6ace14245b,6,326.8059,328.4532,space,1,0.3621,,0,28,28,4,1,E,space,,,,,,,,,,
,,,,,R_41uEAMr6slIWbf5,001,2025-08-30_10h41.41.346,continuous_performance_test,2024.2.4,MacIntel,57.80346821,a6b7d723-2f35-40e3-a7d4-3a6ace14245b,6,328.4549,330.2038,space,0,0.3297,,0,29,29,29,1,X,,,,,,,,,,,
,,,,,R_41uEAMr6slIWbf5,001,2025-08-30_10h41.41.346,continuous_performance_test,2024.2.4,MacIntel,57.80346821,a6b7d723-2f35-40e3-a7d4-3a6ace14245b,6,344.4467,346.4379,space,1,0.6489,,0,0,0,9,1,J,space,330.2054,344.4382,space,14.2076,,,,,,
,,,,,R_41uEAMr6slIWbf5,001,2025-08-30_10h41.41.346,continuous_performance_test,2024.2.4,MacIntel,57.80346821,a6b7d723-2f35-40e3-a7d4-3a6ace14245b,6,346.4395,348.138,space,1,0.415,,0,1,1,14,1,O,space,,,,,,,,,,
,,,,,R_41uEAMr6slIWbf5,001,2025-08-30_10h41.41.346,continuous_performance_test,2024.2.4,MacIntel,57.80346821,a6b7d723-2f35-40e3-a7d4-3a6ace14245b,6,348.1396,349.6879,space,1,0.4419,,0,2,2,10,1,K,space,,,,,,,,,,
,,,,,R_41uEAMr6slIWbf5,001,2025-08-30_10h41.41.346,continuous_performance_test,2024.2.4,MacIntel,57.80346821,a6b7d723-2f35-40e3-a7d4-3a6ace14245b,6,349.6895,351.338,space,1,0.3581,,0,3,3,3,1,D,space,,,,,,,,,,
,,,,,R_41uEAMr6slIWbf5,001,2025-08-30_10h41.41.346,continuous_performance_test,2024.2.4,MacIntel,57.80346821,a6b7d723-2f35-40e3-a7d4-3a6ace14245b,6,351.3395,353.1381,space,1,0.3137,,0,4,4,13,1,N,space,,,,,,,,,,
,,,,,R_41uEAMr6slIWbf5,001,2025-08-30_10h41.41.346,continuous_performance_test,2024.2.4,MacIntel,57.80346821,a6b7d723-2f35-40e3-a7d4-3a6ace14245b,6,353.1395,355.0371,space,1,0.347,,0,5,5,24,1,Z,space,,,,,,,,,,
,,,,,R_41uEAMr6slIWbf5,001,2025-08-30_10h41.41.346,continuous_performance_test,2024.2.4,MacIntel,57.80346821,a6b7d723-2f35-40e3-a7d4-3a6ace14245b,6,355.0388,356.7379,space,1,0.3771,,0,6,6,0,1,A,space,,,,,,,,,,
,,,,,R_41uEAMr6slIWbf5,001,2025-08-30_10h41.41.346,continuous_performance_test,2024.2.4,MacIntel,57.80346821,a6b7d723-2f35-40e3-a7d4-3a6ace14245b,6,356.7398,358.2881,space,1,0.4636,,0,7,7,15,1,P,space,,,,,,,,,,
,,,,,R_41uEAMr6slIWbf5,001,2025-08-30_10h41.41.346,continuous_performance_test,2024.2.4,MacIntel,57.80346821,a6b7d723-2f35-40e3-a7d4-3a6ace14245b,6,358.2896,360.1881,space,1,0.3308,,0,8,8,6,1,G,space,,,,,,,,,,
,,,,,R_41uEAMr6slIWbf5,001,2025-08-30_10h41.41.346,continuous_performance_test,2024.2.4,MacIntel,57.80346821,a6b7d723-2f35-40e3-a7d4-3a6ace14245b,6,360.1896,361.7871,space,0,0.3796,,0,9,9,28,1,X,,,,,,,,,,,
,,,,,R_41uEAMr6slIWbf5,001,2025-08-30_10h41.41.346,continuous_performance_test,2024.2.4,MacIntel,57.80346821,a6b7d723-2f35-40e3-a7d4-3a6ace14245b,6,361.7887,363.3382,space,1,0.3929,,0,10,10,11,1,L,space,,,,,,,,,,
,,,,,R_41uEAMr6slIWbf5,001,2025-08-30_10h41.41.346,continuous_performance_test,2024.2.4,MacIntel,57.80346821,a6b7d723-2f35-40e3-a7d4-3a6ace14245b,6,363.3397,365.1882,,1,,,0,11,11,27,1,X,,,,,,,,,,,
,,,,,R_41uEAMr6slIWbf5,001,2025-08-30_10h41.41.346,continuous_performance_test,2024.2.4,MacIntel,57.80346821,a6b7d723-2f35-40e3-a7d4-3a6ace14245b,6,365.1898,366.9371,space,1,0.3311,,0,12,12,5,1,F,space,,,,,,,,,,
,,,,,R_41uEAMr6slIWbf5,001,2025-08-30_10h41.41.346,continuous_performance_test,2024.2.4,MacIntel,57.80346821,a6b7d723-2f35-40e3-a7d4-3a6ace14245b,6,366.9389,368.5883,,1,,,0,13,13,29,1,X,,,,,,,,,,,
,,,,,R_41uEAMr6slIWbf5,001,2025-08-30_10h41.41.346,continuous_performance_test,2024.2.4,MacIntel,57.80346821,a6b7d723-2f35-40e3-a7d4-3a6ace14245b,6,368.5899,370.1384,space,1,0.3963,,0,14,14,2,1,C,space,,,,,,,,,,
,,,,,R_41uEAMr6slIWbf5,001,2025-08-30_10h41.41.346,continuous_performance_test,2024.2.4,MacIntel,57.80346821,a6b7d723-2f35-40e3-a7d4-3a6ace14245b,6,370.14,371.8383,space,1,0.33,,0,15,15,23,1,Y,space,,,,,,,,,,
,,,,,R_41uEAMr6slIWbf5,001,2025-08-30_10h41.41.346,continuous_performance_test,2024.2.4,MacIntel,57.80346821,a6b7d723-2f35-40e3-a7d4-3a6ace14245b,6,371.8398,373.3884,space,1,0.4082,,0,16,16,1,1,B,space,,,,,,,,,,
,,,,,R_41uEAMr6slIWbf5,001,2025-08-30_10h41.41.346,continuous_performance_test,2024.2.4,MacIntel,57.80346821,a6b7d723-2f35-40e3-a7d4-3a6ace14245b,6,373.3899,375.2884,,1,,,0,17,17,26,1,X,,,,,,,,,,,
,,,,,R_41uEAMr6slIWbf5,001,2025-08-30_10h41.41.346,continuous_performance_test,2024.2.4,MacIntel,57.80346821,a6b7d723-2f35-40e3-a7d4-3a6ace14245b,6,375.2899,377.2376,space,1,0.4091,,0,18,18,20,1,U,space,,,,,,,,,,
,,,,,R_41uEAMr6slIWbf5,001,2025-08-30_10h41.41.346,continuous_performance_test,2024.2.4,MacIntel,57.80346821,a6b7d723-2f35-40e3-a7d4-3a6ace14245b,6,377.2391,378.7885,space,1,0.4486,,0,19,19,4,1,E,space,,,,,,,,,,
,,,,,R_41uEAMr6slIWbf5,001,2025-08-30_10h41.41.346,continuous_performance_test,2024.2.4,MacIntel,57.80346821,a6b7d723-2f35-40e3-a7d4-3a6ace14245b,6,378.7902,380.6886,space,1,0.5962,,0,20,20,8,1,I,space,,,,,,,,,,
,,,,,R_41uEAMr6slIWbf5,001,2025-08-30_10h41.41.346,continuous_performance_test,2024.2.4,MacIntel,57.80346821,a6b7d723-2f35-40e3-a7d4-3a6ace14245b,6,380.6902,382.3885,space,1,0.4152,,0,21,21,12,1,M,space,,,,,,,,,,
,,,,,R_41uEAMr6slIWbf5,001,2025-08-30_10h41.41.346,continuous_performance_test,2024.2.4,MacIntel,57.80346821,a6b7d723-2f35-40e3-a7d4-3a6ace14245b,6,382.3901,384.3384,space,0,0.3632,,0,22,22,25,1,X,,,,,,,,,,,
,,,,,R_41uEAMr6slIWbf5,001,2025-08-30_10h41.41.346,continuous_performance_test,2024.2.4,MacIntel,57.80346821,a6b7d723-2f35-40e3-a7d4-3a6ace14245b,6,384.3399,386.1876,space,1,0.4149,,0,23,23,16,1,Q,space,,,,,,,,,,
,,,,,R_41uEAMr6slIWbf5,001,2025-08-30_10h41.41.346,continuous_performance_test,2024.2.4,MacIntel,57.80346821,a6b7d723-2f35-40e3-a7d4-3a6ace14245b,6,386.1892,387.8886,space,1,0.3636,,0,24,24,7,1,H,space,,,,,,,,,,
,,,,,R_41uEAMr6slIWbf5,001,2025-08-30_10h41.41.346,continuous_performance_test,2024.2.4,MacIntel,57.80346821,a6b7d723-2f35-40e3-a7d4-3a6ace14245b,6,387.8902,389.7886,space,1,0.3484,,0,25,25,22,1,W,space,,,,,,,,,,
,,,,,R_41uEAMr6slIWbf5,001,2025-08-30_10h41.41.346,continuous_performance_test,2024.2.4,MacIntel,57.80346821,a6b7d723-2f35-40e3-a7d4-3a6ace14245b,6,389.7902,391.5377,space,1,0.3507,,0,26,26,19,1,T,space,,,,,,,,,,
,,,,,R_41uEAMr6slIWbf5,001,2025-08-30_10h41.41.346,continuous_performance_test,2024.2.4,MacIntel,57.80346821,a6b7d723-2f35-40e3-a7d4-3a6ace14245b,6,391.5393,393.1386,space,1,0.3129,,0,27,27,17,1,R,space,,,,,,,,,,
,,,,,R_41uEAMr6slIWbf5,001,2025-08-30_10h41.41.346,continuous_performance_test,2024.2.4,MacIntel,57.80346821,a6b7d723-2f35-40e3-a7d4-3a6ace14245b,6,393.1401,394.6878,space,1,0.3627,,0,28,28,21,1,V,space,,,,,,,,,,
,,,,,R_41uEAMr6slIWbf5,001,2025-08-30_10h41.41.346,continuous_performance_test,2024.2.4,MacIntel,57.80346821,a6b7d723-2f35-40e3-a7d4-3a6ace14245b,6,394.6894,396.5387,space,1,0.3786,,0,29,29,18,1,S,space,,,,,,,,,,
,,,,,R_41uEAMr6slIWbf5,001,2025-08-30_10h41.41.346,continuous_performance_test,2024.2.4,MacIntel,57.80346821,a6b7d723-2f35-40e3-a7d4-3a6ace14245b,6,409.6461,411.3882,space,1,0.4002,,0,0,0,12,1,M,space,396.5404,409.6392,space,13.075,,,,,,
,,,,,R_41uEAMr6slIWbf5,001,2025-08-30_10h41.41.346,continuous_performance_test,2024.2.4,MacIntel,57.80346821,a6b7d723-2f35-40e3-a7d4-3a6ace14245b,6,411.3898,412.9889,space,1,0.4565,,0,1,1,15,1,P,space,,,,,,,,,,
,,,,,R_41uEAMr6slIWbf5,001,2025-08-30_10h41.41.346,continuous_performance_test,2024.2.4,MacIntel,57.80346821,a6b7d723-2f35-40e3-a7d4-3a6ace14245b,6,412.9902,414.8391,space,1,0.3449,,0,2,2,0,1,A,space,,,,,,,,,,
,,,,,R_41uEAMr6slIWbf5,001,2025-08-30_10h41.41.346,continuous_performance_test,2024.2.4,MacIntel,57.80346821,a6b7d723-2f35-40e3-a7d4-3a6ace14245b,6,414.8408,416.6892,space,1,0.3342,,0,3,3,18,1,S,space,,,,,,,,,,
,,,,,R_41uEAMr6slIWbf5,001,2025-08-30_10h41.41.346,continuous_performance_test,2024.2.4,MacIntel,57.80346821,a6b7d723-2f35-40e3-a7d4-3a6ace14245b,6,416.6908,418.6892,,1,,,0,4,4,26,1,X,,,,,,,,,,,
,,,,,R_41uEAMr6slIWbf5,001,2025-08-30_10h41.41.346,continuous_performance_test,2024.2.4,MacIntel,57.80346821,a6b7d723-2f35-40e3-a7d4-3a6ace14245b,6,418.6909,420.3894,space,1,0.3963,,0,5,5,24,1,Z,space,,,,,,,,,,
,,,,,R_41uEAMr6slIWbf5,001,2025-08-30_10h41.41.346,continuous_performance_test,2024.2.4,MacIntel,57.80346821,a6b7d723-2f35-40e3-a7d4-3a6ace14245b,6,420.391,422.1883,space,0,0.368,,0,6,6,27,1,X,,,,,,,,,,,
,,,,,R_41uEAMr6slIWbf5,001,2025-08-30_10h41.41.346,continuous_performance_test,2024.2.4,MacIntel,57.80346821,a6b7d723-2f35-40e3-a7d4-3a6ace14245b,6,422.1898,423.8894,space,1,0.4132,,0,7,7,6,1,G,space,,,,,,,,,,
,,,,,R_41uEAMr6slIWbf5,001,2025-08-30_10h41.41.346,continuous_performance_test,2024.2.4,MacIntel,57.80346821,a6b7d723-2f35-40e3-a7d4-3a6ace14245b,6,423.8908,425.6394,space,1,0.495,,0,8,8,4,1,E,space,,,,,,,,,,
,,,,,R_41uEAMr6slIWbf5,001,2025-08-30_10h41.41.346,continuous_performance_test,2024.2.4,MacIntel,57.80346821,a6b7d723-2f35-40e3-a7d4-3a6ace14245b,6,425.6409,427.1885,space,0,0.3304,,0,9,9,28,1,X,,,,,,,,,,,
,,,,,R_41uEAMr6slIWbf5,001,2025-08-30_10h41.41.346,continuous_performance_test,2024.2.4,MacIntel,57.80346821,a6b7d723-2f35-40e3-a7d4-3a6ace14245b,6,427.1901,429.0394,space,1,0.3653,,0,10,10,1,1,B,space,,,,,,,,,,
,,,,,R_41uEAMr6slIWbf5,001,2025-08-30_10h41.41.346,continuous_performance_test,2024.2.4,MacIntel,57.80346821,a6b7d723-2f35-40e3-a7d4-3a6ace14245b,6,429.041,431.0385,space,1,0.3171,,0,11,11,20,1,U,space,,,,,,,,,,
,,,,,R_41uEAMr6slIWbf5,001,2025-08-30_10h41.41.346,continuous_performance_test,2024.2.4,MacIntel,57.80346821,a6b7d723-2f35-40e3-a7d4-3a6ace14245b,6,431.0402,432.7891,space,1,0.4144,,0,12,12,14,1,O,space,,,,,,,,,,
,,,,,R_41uEAMr6slIWbf5,001,2025-08-30_10h41.41.346,continuous_performance_test,2024.2.4,MacIntel,57.80346821,a6b7d723-2f35-40e3-a7d4-3a6ace14245b,6,432.7906,434.6395,space,1,0.4489,,0,13,13,5,1,F,space,,,,,,,,,,
,,,,,R_41uEAMr6slIWbf5,001,2025-08-30_10h41.41.346,continuous_performance_test,2024.2.4,MacIntel,57.80346821,a6b7d723-2f35-40e3-a7d4-3a6ace14245b,6,434.6411,436.3386,space,1,0.366,,0,14,14,7,1,H,space,,,,,,,,,,
,,,,,R_41uEAMr6slIWbf5,001,2025-08-30_10h41.41.346,continuous_performance_test,2024.2.4,MacIntel,57.80346821,a6b7d723-2f35-40e3-a7d4-3a6ace14245b,6,436.3404,437.9895,space,1,0.3415,,0,15,15,3,1,D,space,,,,,,,,,,
,,,,,R_41uEAMr6slIWbf5,001,2025-08-30_10h41.41.346,continuous_performance_test,2024.2.4,MacIntel,57.80346821,a6b7d723-2f35-40e3-a7d4-3a6ace14245b,6,437.9908,439.7896,,1,,,0,16,16,29,1,X,,,,,,,,,,,
,,,,,R_41uEAMr6slIWbf5,001,2025-08-30_10h41.41.346,continuous_performance_test,2024.2.4,MacIntel,57.80346821,a6b7d723-2f35-40e3-a7d4-3a6ace14245b,6,439.7911,441.739,space,1,0.4956,,0,17,17,13,1,N,space,,,,,,,,,,
,,,,,R_41uEAMr6slIWbf5,001,2025-08-30_10h41.41.346,continuous_performance_test,2024.2.4,MacIntel,57.80346821,a6b7d723-2f35-40e3-a7d4-3a6ace14245b,6,441.7406,443.4898,space,1,0.4014,,0,18,18,2,1,C,space,,,,,,,,,,
,,,,,R_41uEAMr6slIWbf5,001,2025-08-30_10h41.41.346,continuous_performance_test,2024.2.4,MacIntel,57.80346821,a6b7d723-2f35-40e3-a7d4-3a6ace14245b,6,443.4914,445.3397,space,0,0.3141,,0,19,19,25,1,X,,,,,,,,,,,
,,,,,R_41uEAMr6slIWbf5,001,2025-08-30_10h41.41.346,continuous_performance_test,2024.2.4,MacIntel,57.80346821,a6b7d723-2f35-40e3-a7d4-3a6ace14245b,6,445.3414,446.9889,space,1,0.3588,,0,20,20,17,1,R,space,,,,,,,,,,
,,,,,R_41uEAMr6slIWbf5,001,2025-08-30_10h41.41.346,continuous_performance_test,2024.2.4,MacIntel,57.80346821,a6b7d723-2f35-40e3-a7d4-3a6ace14245b,6,446.9905,448.9889,space,1,0.3792,,0,21,21,11,1,L,space,,,,,,,,,,
,,,,,R_41uEAMr6slIWbf5,001,2025-08-30_10h41.41.346,continuous_performance_test,2024.2.4,MacIntel,57.80346821,a6b7d723-2f35-40e3-a7d4-3a6ace14245b,6,448.9905,450.64,space,1,0.3081,,0,22,22,19,1,T,space,,,,,,,,,,
,,,,,R_41uEAMr6slIWbf5,001,2025-08-30_10h41.41.346,continuous_performance_test,2024.2.4,MacIntel,57.80346821,a6b7d723-2f35-40e3-a7d4-3a6ace14245b,6,450.6418,452.4392,space,1,0.35,,0,23,23,21,1,V,space,,,,,,,,,,
,,,,,R_41uEAMr6slIWbf5,001,2025-08-30_10h41.41.346,continuous_performance_test,2024.2.4,MacIntel,57.80346821,a6b7d723-2f35-40e3-a7d4-3a6ace14245b,6,452.4407,454.3899,space,1,0.3797,,0,24,24,16,1,Q,space,,,,,,,,,,
,,,,,R_41uEAMr6slIWbf5,001,2025-08-30_10h41.41.346,continuous_performance_test,2024.2.4,MacIntel,57.80346821,a6b7d723-2f35-40e3-a7d4-3a6ace14245b,6,454.3916,456.1899,space,1,0.4144,,0,25,25,9,1,J,space,,,,,,,,,,
,,,,,R_41uEAMr6slIWbf5,001,2025-08-30_10h41.41.346,continuous_performance_test,2024.2.4,MacIntel,57.80346821,a6b7d723-2f35-40e3-a7d4-3a6ace14245b,6,456.1915,457.7391,space,1,0.3458,,0,26,26,10,1,K,space,,,,,,,,,,
,,,,,R_41uEAMr6slIWbf5,001,2025-08-30_10h41.41.346,continuous_performance_test,2024.2.4,MacIntel,57.80346821,a6b7d723-2f35-40e3-a7d4-3a6ace14245b,6,457.7406,459.6901,space,1,0.3286,,0,27,27,22,1,W,space,,,,,,,,,,
,,,,,R_41uEAMr6slIWbf5,001,2025-08-30_10h41.41.346,continuous_performance_test,2024.2.4,MacIntel,57.80346821,a6b7d723-2f35-40e3-a7d4-3a6ace14245b,6,459.6918,461.3402,space,1,0.3624,,0,28,28,23,1,Y,space,,,,,,,,,,
,,,,,R_41uEAMr6slIWbf5,001,2025-08-30_10h41.41.346,continuous_performance_test,2024.2.4,MacIntel,57.80346821,a6b7d723-2f35-40e3-a7d4-3a6ace14245b,6,461.3418,462.8898,space,1,0.3314,,0,29,29,8,1,I,space,,,,,,,,,,
,,,,,R_41uEAMr6slIWbf5,001,2025-08-30_10h41.41.346,continuous_performance_test,2024.2.4,MacIntel,57.80346821,a6b7d723-2f35-40e3-a7d4-3a6ace14245b,6,468.0309,469.9226,space,1,0.3297,,0,0,0,13,1,N,space,462.8916,468.0235,space,5.1073,,,,,,
,,,,,R_41uEAMr6slIWbf5,001,2025-08-30_10h41.41.346,continuous_performance_test,2024.2.4,MacIntel,57.80346821,a6b7d723-2f35-40e3-a7d4-3a6ace14245b,6,469.9241,471.6226,space,1,0.2802,,0,1,1,14,1,O,space,,,,,,,,,,
,,,,,R_41uEAMr6slIWbf5,001,2025-08-30_10h41.41.346,continuous_performance_test,2024.2.4,MacIntel,57.80346821,a6b7d723-2f35-40e3-a7d4-3a6ace14245b,6,471.6243,473.2735,space,1,0.3174,,0,2,2,16,1,Q,space,,,,,,,,,,
,,,,,R_41uEAMr6slIWbf5,001,2025-08-30_10h41.41.346,continuous_performance_test,2024.2.4,MacIntel,57.80346821,a6b7d723-2f35-40e3-a7d4-3a6ace14245b,6,473.2753,474.8235,space,1,0.3628,,0,3,3,19,1,T,space,,,,,,,,,,
,,,,,R_41uEAMr6slIWbf5,001,2025-08-30_10h41.41.346,continuous_performance_test,2024.2.4,MacIntel,57.80346821,a6b7d723-2f35-40e3-a7d4-3a6ace14245b,6,474.825,476.3739,space,1,0.3336,,0,4,4,8,1,I,space,,,,,,,,,,
,,,,,R_41uEAMr6slIWbf5,001,2025-08-30_10h41.41.346,continuous_performance_test,2024.2.4,MacIntel,57.80346821,a6b7d723-2f35-40e3-a7d4-3a6ace14245b,6,476.3752,478.0738,space,1,0.3302,,0,5,5,17,1,R,space,,,,,,,,,,
,,,,,R_41uEAMr6slIWbf5,001,2025-08-30_10h41.41.346,continuous_performance_test,2024.2.4,MacIntel,57.80346821,a6b7d723-2f35-40e3-a7d4-3a6ace14245b,6,478.0753,479.9238,space,1,0.4233,,0,6,6,0,1,A,space,,,,,,,,,,
,,,,,R_41uEAMr6slIWbf5,001,2025-08-30_10h41.41.346,continuous_performance_test,2024.2.4,MacIntel,57.80346821,a6b7d723-2f35-40e3-a7d4-3a6ace14245b,6,479.9253,481.8239,space,1,0.3684,,0,7,7,20,1,U,space,,,,,,,,,,
,,,,,R_41uEAMr6slIWbf5,001,2025-08-30_10h41.41.346,continuous_performance_test,2024.2.4,MacIntel,57.80346821,a6b7d723-2f35-40e3-a7d4-3a6ace14245b,6,481.8251,483.7238,space,1,0.3487,,0,8,8,12,1,M,space,,,,,,,,,,
,,,,,R_41uEAMr6slIWbf5,001,2025-08-30_10h41.41.346,continuous_performance_test,2024.2.4,MacIntel,57.80346821,a6b7d723-2f35-40e3-a7d4-3a6ace14245b,6,483.7252,485.724,space,1,0.5624,,0,9,9,22,1,W,space,,,,,,,,,,
,,,,,R_41uEAMr6slIWbf5,001,2025-08-30_10h41.41.346,continuous_performance_test,2024.2.4,MacIntel,57.80346821,a6b7d723-2f35-40e3-a7d4-3a6ace14245b,6,485.7253,487.2729,,1,,,0,10,10,26,1,X,,,,,,,,,,,
,,,,,R_41uEAMr6slIWbf5,001,2025-08-30_10h41.41.346,continuous_performance_test,2024.2.4,MacIntel,57.80346821,a6b7d723-2f35-40e3-a7d4-3a6ace14245b,6,487.2741,489.1238,space,1,0.2967,,0,11,11,6,1,G,space,,,,,,,,,,
,,,,,R_41uEAMr6slIWbf5,001,2025-08-30_10h41.41.346,continuous_performance_test,2024.2.4,MacIntel,57.80346821,a6b7d723-2f35-40e3-a7d4-3a6ace14245b,6,489.1253,490.8231,,1,,,0,12,12,27,1,X,,,,,,,,,,,
,,,,,R_41uEAMr6slIWbf5,001,2025-08-30_10h41.41.346,continuous_performance_test,2024.2.4,MacIntel,57.80346821,a6b7d723-2f35-40e3-a7d4-3a6ace14245b,6,490.8244,492.773,space,1,0.3969,,0,13,13,9,1,J,space,,,,,,,,,,
,,,,,R_41uEAMr6slIWbf5,001,2025-08-30_10h41.41.346,continuous_performance_test,2024.2.4,MacIntel,57.80346821,a6b7d723-2f35-40e3-a7d4-3a6ace14245b,6,492.7745,494.4233,space,1,0.3997,,0,14,14,21,1,V,space,,,,,,,,,,
,,,,,R_41uEAMr6slIWbf5,001,2025-08-30_10h41.41.346,continuous_performance_test,2024.2.4,MacIntel,57.80346821,a6b7d723-2f35-40e3-a7d4-3a6ace14245b,6,494.4247,496.224,space,0,0.342,,0,15,15,28,1,X,,,,,,,,,,,
,,,,,R_41uEAMr6slIWbf5,001,2025-08-30_10h41.41.346,continuous_performance_test,2024.2.4,MacIntel,57.80346821,a6b7d723-2f35-40e3-a7d4-3a6ace14245b,6,496.2255,498.0231,space,1,0.3752,,0,16,16,24,1,Z,space,,,,,,,,,,
,,,,,R_41uEAMr6slIWbf5,001,2025-08-30_10h41.41.346,continuous_performance_test,2024.2.4,MacIntel,57.80346821,a6b7d723-2f35-40e3-a7d4-3a6ace14245b,6,498.0247,499.9241,space,1,0.4297,,0,17,17,5,1,F,space,,,,,,,,,,
,,,,,R_41uEAMr6slIWbf5,001,2025-08-30_10h41.41.346,continuous_performance_test,2024.2.4,MacIntel,57.80346821,a6b7d723-2f35-40e3-a7d4-3a6ace14245b,6,499.9257,501.5742,space,1,0.3961,,0,18,18,11,1,L,space,,,,,,,,,,
,,,,,R_41uEAMr6slIWbf5,001,2025-08-30_10h41.41.346,continuous_performance_test,2024.2.4,MacIntel,57.80346821,a6b7d723-2f35-40e3-a7d4-3a6ace14245b,6,501.5758,503.1735,space,1,0.395,,0,19,19,23,1,Y,space,,,,,,,,,,
,,,,,R_41uEAMr6slIWbf5,001,2025-08-30_10h41.41.346,continuous_performance_test,2024.2.4,MacIntel,57.80346821,a6b7d723-2f35-40e3-a7d4-3a6ace14245b,6,503.1752,505.074,space,1,0.3121,,0,20,20,3,1,D,space,,,,,,,,,,
,,,,,R_41uEAMr6slIWbf5,001,2025-08-30_10h41.41.346,continuous_performance_test,2024.2.4,MacIntel,57.80346821,a6b7d723-2f35-40e3-a7d4-3a6ace14245b,6,505.0752,506.8242,space,1,0.3973,,0,21,21,4,1,E,space,,,,,,,,,,
,,,,,R_41uEAMr6slIWbf5,001,2025-08-30_10h41.41.346,continuous_performance_test,2024.2.4,MacIntel,57.80346821,a6b7d723-2f35-40e3-a7d4-3a6ace14245b,6,506.8257,508.6241,space,1,0.3347,,0,22,22,10,1,K,space,,,,,,,,,,
,,,,,R_41uEAMr6slIWbf5,001,2025-08-30_10h41.41.346,continuous_performance_test,2024.2.4,MacIntel,57.80346821,a6b7d723-2f35-40e3-a7d4-3a6ace14245b,6,508.6258,510.4732,space,1,0.4143,,0,23,23,15,1,P,space,,,,,,,,,,
,,,,,R_41uEAMr6slIWbf5,001,2025-08-30_10h41.41.346,continuous_performance_test,2024.2.4,MacIntel,57.80346821,a6b7d723-2f35-40e3-a7d4-3a6ace14245b,6,510.4744,512.1744,,1,,,0,24,24,25,1,X,,,,,,,,,,,
,,,,,R_41uEAMr6slIWbf5,001,2025-08-30_10h41.41.346,continuous_performance_test,2024.2.4,MacIntel,57.80346821,a6b7d723-2f35-40e3-a7d4-3a6ace14245b,6,512.1759,514.0743,space,0,0.2726,,0,25,25,29,1,X,,,,,,,,,,,
,,,,,R_41uEAMr6slIWbf5,001,2025-08-30_10h41.41.346,continuous_performance_test,2024.2.4,MacIntel,57.80346821,a6b7d723-2f35-40e3-a7d4-3a6ace14245b,6,514.0758,515.7244,space,1,0.4918,,0,26,26,1,1,B,space,,,,,,,,,,
,,,,,R_41uEAMr6slIWbf5,001,2025-08-30_10h41.41.346,continuous_performance_test,2024.2.4,MacIntel,57.80346821,a6b7d723-2f35-40e3-a7d4-3a6ace14245b,6,515.7259,517.4242,space,1,0.4319,,0,27,27,7,1,H,space,,,,,,,,,,
,,,,,R_41uEAMr6slIWbf5,001,2025-08-30_10h41.41.346,continuous_performance_test,2024.2.4,MacIntel,57.80346821,a6b7d723-2f35-40e3-a7d4-3a6ace14245b,6,517.4256,519.1745,space,1,0.3796,,0,28,28,2,1,C,space,,,,,,,,,,
,,,,,R_41uEAMr6slIWbf5,001,2025-08-30_10h41.41.346,continuous_performance_test,2024.2.4,MacIntel,57.80346821,a6b7d723-2f35-40e3-a7d4-3a6ace14245b,6,519.1761,520.9745,space,1,0.3819,,0,29,29,18,1,S,space,,,,,,,,,,
,,,,,R_41uEAMr6slIWbf5,001,2025-08-30_10h41.41.346,continuous_performance_test,2024.2.4,MacIntel,57.80346821,a6b7d723-2f35-40e3-a7d4-3a6ace14245b,6,535.983,537.6246,,1,,,0,0,0,29,1,X,,520.9762,535.9748,,,,,,,,
,,,,,R_41uEAMr6slIWbf5,001,2025-08-30_10h41.41.346,continuous_performance_test,2024.2.4,MacIntel,57.80346821,a6b7d723-2f35-40e3-a7d4-3a6ace14245b,6,537.6257,539.5749,,1,,,0,1,1,28,1,X,,,,,,,,,,,
,,,,,R_41uEAMr6slIWbf5,001,2025-08-30_10h41.41.346,continuous_performance_test,2024.2.4,MacIntel,57.80346821,a6b7d723-2f35-40e3-a7d4-3a6ace14245b,6,539.5764,541.4248,space,1,0.4136,,0,2,2,9,1,J,space,,,,,,,,,,
,,,,,R_41uEAMr6slIWbf5,001,2025-08-30_10h41.41.346,continuous_performance_test,2024.2.4,MacIntel,57.80346821,a6b7d723-2f35-40e3-a7d4-3a6ace14245b,6,541.4265,542.9749,space,1,0.3635,,0,3,3,4,1,E,space,,,,,,,,,,
,,,,,R_41uEAMr6slIWbf5,001,2025-08-30_10h41.41.346,continuous_performance_test,2024.2.4,MacIntel,57.80346821,a6b7d723-2f35-40e3-a7d4-3a6ace14245b,6,542.9764,544.9249,space,1,0.3803,,0,4,4,23,1,Y,space,,,,,,,,,,
,,,,,R_41uEAMr6slIWbf5,001,2025-08-30_10h41.41.346,continuous_performance_test,2024.2.4,MacIntel,57.80346821,a6b7d723-2f35-40e3-a7d4-3a6ace14245b,6,544.9263,546.775,space,1,0.3417,,0,5,5,15,1,P,space,,,,,,,,,,
,,,,,R_41uEAMr6slIWbf5,001,2025-08-30_10h41.41.346,continuous_performance_test,2024.2.4,MacIntel,57.80346821,a6b7d723-2f35-40e3-a7d4-3a6ace14245b,6,546.7764,548.425,space,1,0.3478,,0,6,6,21,1,V,space,,,,,,,,,,
,,,,,R_41uEAMr6slIWbf5,001,2025-08-30_10h41.41.346,continuous_performance_test,2024.2.4,MacIntel,57.80346821,a6b7d723-2f35-40e3-a7d4-3a6ace14245b,6,548.4265,550.025,space,1,0.3466,,0,7,7,20,1,U,space,,,,,,,,,,
,,,,,R_41uEAMr6slIWbf5,001,2025-08-30_10h41.41.346,continuous_performance_test,2024.2.4,MacIntel,57.80346821,a6b7d723-2f35-40e3-a7d4-3a6ace14245b,6,550.0266,551.774,space,1,0.3468,,0,8,8,19,1,T,space,,,,,,,,,,
,,,,,R_41uEAMr6slIWbf5,001,2025-08-30_10h41.41.346,continuous_performance_test,2024.2.4,MacIntel,57.80346821,a6b7d723-2f35-40e3-a7d4-3a6ace14245b,6,551.7756,553.675,space,0,0.3462,,0,9,9,27,1,X,,,,,,,,,,,
,,,,,R_41uEAMr6slIWbf5,001,2025-08-30_10h41.41.346,continuous_performance_test,2024.2.4,MacIntel,57.80346821,a6b7d723-2f35-40e3-a7d4-3a6ace14245b,6,553.6766,555.325,space,1,0.4798,,0,10,10,24,1,Z,space,,,,,,,,,,
,,,,,R_41uEAMr6slIWbf5,001,2025-08-30_10h41.41.346,continuous_performance_test,2024.2.4,MacIntel,57.80346821,a6b7d723-2f35-40e3-a7d4-3a6ace14245b,6,555.3266,556.9751,space,1,0.3919,,0,11,11,16,1,Q,space,,,,,,,,,,
,,,,,R_41uEAMr6slIWbf5,001,2025-08-30_10h41.41.346,continuous_performance_test,2024.2.4,MacIntel,57.80346821,a6b7d723-2f35-40e3-a7d4-3a6ace14245b,6,556.9767,558.5751,space,1,0.3962,,0,12,12,6,1,G,space,,,,,,,,,,
,,,,,R_41uEAMr6slIWbf5,001,2025-08-30_10h41.41.346,continuous_performance_test,2024.2.4,MacIntel,57.80346821,a6b7d723-2f35-40e3-a7d4-3a6ace14245b,6,558.5768,560.2752,,1,,,0,13,13,26,1,X,,,,,,,,,,,
,,,,,R_41uEAMr6slIWbf5,001,2025-08-30_10h41.41.346,continuous_performance_test,2024.2.4,MacIntel,57.80346821,a6b7d723-2f35-40e3-a7d4-3a6ace14245b,6,560.277,561.9253,space,1,0.5466,,0,14,14,12,1,M,space,,,,,,,,,,
,,,,,R_41uEAMr6slIWbf5,001,2025-08-30_10h41.41.346,continuous_performance_test,2024.2.4,MacIntel,57.80346821,a6b7d723-2f35-40e3-a7d4-3a6ace14245b,6,561.9267,563.5755,space,1,0.397,,0,15,15,5,1,F,space,,,,,,,,,,
,,,,,R_41uEAMr6slIWbf5,001,2025-08-30_10h41.41.346,continuous_performance_test,2024.2.4,MacIntel,57.80346821,a6b7d723-2f35-40e3-a7d4-3a6ace14245b,6,563.577,565.3253,space,1,0.3496,,0,16,16,17,1,R,space,,,,,,,,,,
,,,,,R_41uEAMr6slIWbf5,001,2025-08-30_10h41.41.346,continuous_performance_test,2024.2.4,MacIntel,57.80346821,a6b7d723-2f35-40e3-a7d4-3a6ace14245b,6,565.3268,566.925,,1,,,0,17,17,25,1,X,,,,,,,,,,,
,,,,,R_41uEAMr6slIWbf5,001,2025-08-30_10h41.41.346,continuous_performance_test,2024.2.4,MacIntel,57.80346821,a6b7d723-2f35-40e3-a7d4-3a6ace14245b,6,566.9265,568.7756,space,1,0.4469,,0,18,18,3,1,D,space,,,,,,,,,,
,,,,,R_41uEAMr6slIWbf5,001,2025-08-30_10h41.41.346,continuous_performance_test,2024.2.4,MacIntel,57.80346821,a6b7d723-2f35-40e3-a7d4-3a6ace14245b,6,568.777,570.6255,space,1,0.3747,,0,19,19,7,1,H,space,,,,,,,,,,
,,,,,R_41uEAMr6slIWbf5,001,2025-08-30_10h41.41.346,continuous_performance_test,2024.2.4,MacIntel,57.80346821,a6b7d723-2f35-40e3-a7d4-3a6ace14245b,6,570.6269,572.4254,space,1,0.415,,0,20,20,10,1,K,space,,,,,,,,,,
,,,,,R_41uEAMr6slIWbf5,001,2025-08-30_10h41.41.346,continuous_performance_test,2024.2.4,MacIntel,57.80346821,a6b7d723-2f35-40e3-a7d4-3a6ace14245b,6,572.4269,574.1756,space,1,0.3638,,0,21,21,2,1,C,space,,,,,,,,,,
,,,,,R_41uEAMr6slIWbf5,001,2025-08-30_10h41.41.346,continuous_performance_test,2024.2.4,MacIntel,57.80346821,a6b7d723-2f35-40e3-a7d4-3a6ace14245b,6,574.177,575.8746,space,1,0.4965,,0,22,22,8,1,I,space,,,,,,,,,,
,,,,,R_41uEAMr6slIWbf5,001,2025-08-30_10h41.41.346,continuous_performance_test,2024.2.4,MacIntel,57.80346821,a6b7d723-2f35-40e3-a7d4-3a6ace14245b,6,575.8761,577.5246,space,1,0.3619,,0,23,23,0,1,A,space,,,,,,,,,,
,,,,,R_41uEAMr6slIWbf5,001,2025-08-30_10h41.41.346,continuous_performance_test,2024.2.4,MacIntel,57.80346821,a6b7d723-2f35-40e3-a7d4-3a6ace14245b,6,577.5264,579.2256,space,1,0.3493,,0,24,24,22,1,W,space,,,,,,,,,,
,,,,,R_41uEAMr6slIWbf5,001,2025-08-30_10h41.41.346,continuous_performance_test,2024.2.4,MacIntel,57.80346821,a6b7d723-2f35-40e3-a7d4-3a6ace14245b,6,579.2271,580.9256,space,1,0.2966,,0,25,25,1,1,B,space,,,,,,,,,,
,,,,,R_41uEAMr6slIWbf5,001,2025-08-30_10h41.41.346,continuous_performance_test,2024.2.4,MacIntel,57.80346821,a6b7d723-2f35-40e3-a7d4-3a6ace14245b,6,580.9272,582.5757,space,1,0.3144,,0,26,26,11,1,L,space,,,,,,,,,,
,,,,,R_41uEAMr6slIWbf5,001,2025-08-30_10h41.41.346,continuous_performance_test,2024.2.4,MacIntel,57.80346821,a6b7d723-2f35-40e3-a7d4-3a6ace14245b,6,582.5769,584.3256,space,1,0.4288,,0,27,27,14,1,O,space,,,,,,,,,,
,,,,,R_41uEAMr6slIWbf5,001,2025-08-30_10h41.41.346,continuous_performance_test,2024.2.4,MacIntel,57.80346821,a6b7d723-2f35-40e3-a7d4-3a6ace14245b,6,584.3271,585.9747,space,1,0.3465,,0,28,28,13,1,N,space,,,,,,,,,,
,,,,,R_41uEAMr6slIWbf5,001,2025-08-30_10h41.41.346,continuous_performance_test,2024.2.4,MacIntel,57.80346821,a6b7d723-2f35-40e3-a7d4-3a6ace14245b,6,585.9763,587.7757,space,1,0.3293,,0,29,29,18,1,S,space,,,,,,,,,,
,,,,,R_41uEAMr6slIWbf5,001,2025-08-30_10h41.41.346,continuous_performance_test,2024.2.4,MacIntel,57.80346821,a6b7d723-2f35-40e3-a7d4-3a6ace14245b,6,602.7835,604.3252,space,1,0.7402,,0,0,0,15,1,P,space,587.7772,602.7761,,,,,,,,
,,,,,R_41uEAMr6slIWbf5,001,2025-08-30_10h41.41.346,continuous_performance_test,2024.2.4,MacIntel,57.80346821,a6b7d723-2f35-40e3-a7d4-3a6ace14245b,6,604.3268,606.1261,space,1,0.3633,,0,1,1,20,1,U,space,,,,,,,,,,
,,,,,R_41uEAMr6slIWbf5,001,2025-08-30_10h41.41.346,continuous_performance_test,2024.2.4,MacIntel,57.80346821,a6b7d723-2f35-40e3-a7d4-3a6ace14245b,6,606.1277,607.9261,,1,,,0,2,2,25,1,X,,,,,,,,,,,
,,,,,R_41uEAMr6slIWbf5,001,2025-08-30_10h41.41.346,continuous_performance_test,2024.2.4,MacIntel,57.80346821,a6b7d723-2f35-40e3-a7d4-3a6ace14245b,6,607.9275,609.5262,,1,,,0,3,3,26,1,X,,,,,,,,,,,
,,,,,R_41uEAMr6slIWbf5,001,2025-08-30_10h41.41.346,continuous_performance_test,2024.2.4,MacIntel,57.80346821,a6b7d723-2f35-40e3-a7d4-3a6ace14245b,6,609.5278,611.1762,space,1,0.3798,,0,4,4,1,1,B,space,,,,,,,,,,
,,,,,R_41uEAMr6slIWbf5,001,2025-08-30_10h41.41.346,continuous_performance_test,2024.2.4,MacIntel,57.80346821,a6b7d723-2f35-40e3-a7d4-3a6ace14245b,6,611.1779,612.9763,space,1,0.4006,,0,5,5,23,1,Y,space,,,,,,,,,,
,,,,,R_41uEAMr6slIWbf5,001,2025-08-30_10h41.41.346,continuous_performance_test,2024.2.4,MacIntel,57.80346821,a6b7d723-2f35-40e3-a7d4-3a6ace14245b,6,612.9778,614.8263,space,1,0.315,,0,6,6,9,1,J,space,,,,,,,,,,
,,,,,R_41uEAMr6slIWbf5,001,2025-08-30_10h41.41.346,continuous_performance_test,2024.2.4,MacIntel,57.80346821,a6b7d723-2f35-40e3-a7d4-3a6ace14245b,6,614.828,616.7754,space,0,0.3324,,0,7,7,28,1,X,,,,,,,,,,,
,,,,,R_41uEAMr6slIWbf5,001,2025-08-30_10h41.41.346,continuous_performance_test,2024.2.4,MacIntel,57.80346821,a6b7d723-2f35-40e3-a7d4-3a6ace14245b,6,616.7769,618.5264,space,1,0.397,,0,8,8,11,1,L,space,,,,,,,,,,
,,,,,R_41uEAMr6slIWbf5,001,2025-08-30_10h41.41.346,continuous_performance_test,2024.2.4,MacIntel,57.80346821,a6b7d723-2f35-40e3-a7d4-3a6ace14245b,6,618.5281,620.0763,space,1,0.3655,,0,9,9,19,1,T,space,,,,,,,,,,
,,,,,R_41uEAMr6slIWbf5,001,2025-08-30_10h41.41.346,continuous_performance_test,2024.2.4,MacIntel,57.80346821,a6b7d723-2f35-40e3-a7d4-3a6ace14245b,6,620.0779,622.0264,space,1,0.3979,,0,10,10,13,1,N,space,,,,,,,,,,
,,,,,R_41uEAMr6slIWbf5,001,2025-08-30_10h41.41.346,continuous_performance_test,2024.2.4,MacIntel,57.80346821,a6b7d723-2f35-40e3-a7d4-3a6ace14245b,6,622.028,623.9764,space,1,0.3304,,0,11,11,12,1,M,space,,,,,,,,,,
,,,,,R_41uEAMr6slIWbf5,001,2025-08-30_10h41.41.346,continuous_performance_test,2024.2.4,MacIntel,57.80346821,a6b7d723-2f35-40e3-a7d4-3a6ace14245b,6,623.9781,625.5754,space,1,0.4836,,0,12,12,14,1,O,space,,,,,,,,,,
,,,,,R_41uEAMr6slIWbf5,001,2025-08-30_10h41.41.346,continuous_performance_test,2024.2.4,MacIntel,57.80346821,a6b7d723-2f35-40e3-a7d4-3a6ace14245b,6,625.5768,627.4765,space,1,0.4155,,0,13,13,24,1,Z,space,,,,,,,,,,
,,,,,R_41uEAMr6slIWbf5,001,2025-08-30_10h41.41.346,continuous_performance_test,2024.2.4,MacIntel,57.80346821,a6b7d723-2f35-40e3-a7d4-3a6ace14245b,6,627.4782,629.4765,space,1,0.3293,,0,14,14,22,1,W,space,,,,,,,,,,
,,,,,R_41uEAMr6slIWbf5,001,2025-08-30_10h41.41.346,continuous_performance_test,2024.2.4,MacIntel,57.80346821,a6b7d723-2f35-40e3-a7d4-3a6ace14245b,6,629.4781,631.2766,space,1,0.3506,,0,15,15,16,1,Q,space,,,,,,,,,,
,,,,,R_41uEAMr6slIWbf5,001,2025-08-30_10h41.41.346,continuous_performance_test,2024.2.4,MacIntel,57.80346821,a6b7d723-2f35-40e3-a7d4-3a6ace14245b,6,631.278,633.0766,space,1,0.2968,,0,16,16,10,1,K,space,,,,,,,,,,
,,,,,R_41uEAMr6slIWbf5,001,2025-08-30_10h41.41.346,continuous_performance_test,2024.2.4,MacIntel,57.80346821,a6b7d723-2f35-40e3-a7d4-3a6ace14245b,6,633.0778,634.8265,space,1,0.315,,0,17,17,7,1,H,space,,,,,,,,,,
,,,,,R_41uEAMr6slIWbf5,001,2025-08-30_10h41.41.346,continuous_performance_test,2024.2.4,MacIntel,57.80346821,a6b7d723-2f35-40e3-a7d4-3a6ace14245b,6,634.8283,636.3766,space,1,0.3458,,0,18,18,3,1,D,space,,,,,,,,,,
,,,,,R_41uEAMr6slIWbf5,001,2025-08-30_10h41.41.346,continuous_performance_test,2024.2.4,MacIntel,57.80346821,a6b7d723-2f35-40e3-a7d4-3a6ace14245b,6,636.378,638.3766,space,0,0.3129,,0,19,19,29,1,X,,,,,,,,,,,
,,,,,R_41uEAMr6slIWbf5,001,2025-08-30_10h41.41.346,continuous_performance_test,2024.2.4,MacIntel,57.80346821,a6b7d723-2f35-40e3-a7d4-3a6ace14245b,6,638.3782,640.2267,space,1,0.3133,,0,20,20,21,1,V,space,,,,,,,,,,
,,,,,R_41uEAMr6slIWbf5,001,2025-08-30_10h41.41.346,continuous_performance_test,2024.2.4,MacIntel,57.80346821,a6b7d723-2f35-40e3-a7d4-3a6ace14245b,6,640.2283,642.0268,space,1,0.113,,0,21,21,4,1,E,space,,,,,,,,,,
,,,,,R_41uEAMr6slIWbf5,001,2025-08-30_10h41.41.346,continuous_performance_test,2024.2.4,MacIntel,57.80346821,a6b7d723-2f35-40e3-a7d4-3a6ace14245b,6,642.0283,643.8267,space,1,0.363,,0,22,22,5,1,F,space,,,,,,,,,,
,,,,,R_41uEAMr6slIWbf5,001,2025-08-30_10h41.41.346,continuous_performance_test,2024.2.4,MacIntel,57.80346821,a6b7d723-2f35-40e3-a7d4-3a6ace14245b,6,643.8282,645.6757,space,1,0.3311,,0,23,23,2,1,C,space,,,,,,,,,,
,,,,,R_41uEAMr6slIWbf5,001,2025-08-30_10h41.41.346,continuous_performance_test,2024.2.4,MacIntel,57.80346821,a6b7d723-2f35-40e3-a7d4-3a6ace14245b,6,645.6772,647.2768,space,1,0.3431,,0,24,24,0,1,A,space,,,,,,,,,,
,,,,,R_41uEAMr6slIWbf5,001,2025-08-30_10h41.41.346,continuous_performance_test,2024.2.4,MacIntel,57.80346821,a6b7d723-2f35-40e3-a7d4-3a6ace14245b,6,647.2784,648.9768,,1,,,0,25,25,27,1,X,,,,,,,,,,,
,,,,,R_41uEAMr6slIWbf5,001,2025-08-30_10h41.41.346,continuous_performance_test,2024.2.4,MacIntel,57.80346821,a6b7d723-2f35-40e3-a7d4-3a6ace14245b,6,648.9782,650.9769,space,1,0.3445,,0,26,26,6,1,G,space,,,,,,,,,,
,,,,,R_41uEAMr6slIWbf5,001,2025-08-30_10h41.41.346,continuous_performance_test,2024.2.4,MacIntel,57.80346821,a6b7d723-2f35-40e3-a7d4-3a6ace14245b,6,650.9788,652.7769,space,1,0.3649,,0,27,27,8,1,I,space,,,,,,,,,,
,,,,,R_41uEAMr6slIWbf5,001,2025-08-30_10h41.41.346,continuous_performance_test,2024.2.4,MacIntel,57.80346821,a6b7d723-2f35-40e3-a7d4-3a6ace14245b,6,652.7785,654.6769,space,1,0.3301,,0,28,28,17,1,R,space,,,,,,,,,,
,,,,,R_41uEAMr6slIWbf5,001,2025-08-30_10h41.41.346,continuous_performance_test,2024.2.4,MacIntel,57.80346821,a6b7d723-2f35-40e3-a7d4-3a6ace14245b,6,654.6785,656.5269,space,1,0.313,,0,29,29,18,1,S,space,,,,,,,,,,
,,,,,R_41uEAMr6slIWbf5,001,2025-08-30_10h41.41.346,continuous_performance_test,2024.2.4,MacIntel,57.80346821,a6b7d723-2f35-40e3-a7d4-3a6ace14245b,6,,,,,,,,,,,,,,656.5286,656.5296,,,,656.5301,661.561,space,5.0021,
