Instructions.started,Instructions.stopped,key_resp.keys,key_resp.rt,key_resp.duration,participant,session,date,expName,psychopyVersion,OS,frameRate,realeye-tester-id,realeye-tester-quality_grade,Trial_noX.started,Trial_noX.stopped,response.keys,response.corr,response.rt,response.duration,trials_noX.thisRepN,trials_noX.thisTrialN,trials_noX.thisN,trials_noX.thisIndex,trials_noX.ran,letter,corrAns,BlockBreak.started,BlockBreak.stopped,key_instruct.keys,key_instruct.rt,key_instruct.duration,End_NoX.started,End_NoX.stopped,key_resp_end_noX.keys,key_resp_end_noX.rt,key_resp_end_noX.duration
0.0007,13.0902,space,13.021,,R_49ojbe481GcNvdn,001,2025-07-31_12h43.16.314,continuous_performance_test,2024.2.4,Win32,59.52380952,e4edd504-f738-4b89-9cfb-7ce6b354e8f2,4,,,,,,,,,,,,,,,,,,,,,,,
,,,,,R_49ojbe481GcNvdn,001,2025-07-31_12h43.16.314,continuous_performance_test,2024.2.4,Win32,59.52380952,e4edd504-f738-4b89-9cfb-7ce6b354e8f2,4,13.1214,14.9736,space,1,0.3596,,0,0,0,7,1,H,space,,,,,,,,,,
,,,,,R_49ojbe481GcNvdn,001,2025-07-31_12h43.16.314,continuous_performance_test,2024.2.4,Win32,59.52380952,e4edd504-f738-4b89-9cfb-7ce6b354e8f2,4,14.9774,16.5727,space,1,0.2468,,0,1,1,6,1,G,space,,,,,,,,,,
,,,,,R_49ojbe481GcNvdn,001,2025-07-31_12h43.16.314,continuous_performance_test,2024.2.4,Win32,59.52380952,e4edd504-f738-4b89-9cfb-7ce6b354e8f2,4,16.5757,18.4732,space,1,0.2486,,0,2,2,0,1,A,space,,,,,,,,,,
,,,,,R_49ojbe481GcNvdn,001,2025-07-31_12h43.16.314,continuous_performance_test,2024.2.4,Win32,59.52380952,e4edd504-f738-4b89-9cfb-7ce6b354e8f2,4,18.4771,20.2729,space,1,0.2462,,0,3,3,12,1,M,space,,,,,,,,,,
,,,,,R_49ojbe481GcNvdn,001,2025-07-31_12h43.16.314,continuous_performance_test,2024.2.4,Win32,59.52380952,e4edd504-f738-4b89-9cfb-7ce6b354e8f2,4,20.2766,22.0231,space,1,0.246,,0,4,4,10,1,K,space,,,,,,,,,,
,,,,,R_49ojbe481GcNvdn,001,2025-07-31_12h43.16.314,continuous_performance_test,2024.2.4,Win32,59.52380952,e4edd504-f738-4b89-9cfb-7ce6b354e8f2,4,22.0269,23.7229,space,1,0.2162,,0,5,5,21,1,V,space,,,,,,,,,,
,,,,,R_49ojbe481GcNvdn,001,2025-07-31_12h43.16.314,continuous_performance_test,2024.2.4,Win32,59.52380952,e4edd504-f738-4b89-9cfb-7ce6b354e8f2,4,23.7265,25.2728,space,1,0.2667,,0,6,6,18,1,S,space,,,,,,,,,,
,,,,,R_49ojbe481GcNvdn,001,2025-07-31_12h43.16.314,continuous_performance_test,2024.2.4,Win32,59.52380952,e4edd504-f738-4b89-9cfb-7ce6b354e8f2,4,25.2763,27.1226,space,1,0.2458,,0,7,7,24,1,Z,space,,,,,,,,,,
,,,,,R_49ojbe481GcNvdn,001,2025-07-31_12h43.16.314,continuous_performance_test,2024.2.4,Win32,59.52380952,e4edd504-f738-4b89-9cfb-7ce6b354e8f2,4,27.1268,28.923,space,1,0.2327,,0,8,8,13,1,N,space,,,,,,,,,,
,,,,,R_49ojbe481GcNvdn,001,2025-07-31_12h43.16.314,continuous_performance_test,2024.2.4,Win32,59.52380952,e4edd504-f738-4b89-9cfb-7ce6b354e8f2,4,28.9261,30.6226,space,0,0.2782,,0,9,9,28,1,X,,,,,,,,,,,
,,,,,R_49ojbe481GcNvdn,001,2025-07-31_12h43.16.314,continuous_performance_test,2024.2.4,Win32,59.52380952,e4edd504-f738-4b89-9cfb-7ce6b354e8f2,4,30.6258,32.5228,space,1,0.23,,0,10,10,15,1,P,space,,,,,,,,,,
,,,,,R_49ojbe481GcNvdn,001,2025-07-31_12h43.16.314,continuous_performance_test,2024.2.4,Win32,59.52380952,e4edd504-f738-4b89-9cfb-7ce6b354e8f2,4,32.5258,34.3726,space,1,0.2982,,0,11,11,9,1,J,space,,,,,,,,,,
,,,,,R_49ojbe481GcNvdn,001,2025-07-31_12h43.16.314,continuous_performance_test,2024.2.4,Win32,59.52380952,e4edd504-f738-4b89-9cfb-7ce6b354e8f2,4,34.3757,35.9228,space,1,0.3528,,0,12,12,23,1,Y,space,,,,,,,,,,
,,,,,R_49ojbe481GcNvdn,001,2025-07-31_12h43.16.314,continuous_performance_test,2024.2.4,Win32,59.52380952,e4edd504-f738-4b89-9cfb-7ce6b354e8f2,4,35.9253,37.4729,space,0,0.2318,,0,13,13,26,1,X,,,,,,,,,,,
,,,,,R_49ojbe481GcNvdn,001,2025-07-31_12h43.16.314,continuous_performance_test,2024.2.4,Win32,59.52380952,e4edd504-f738-4b89-9cfb-7ce6b354e8f2,4,37.476,39.123,space,1,0.2456,,0,14,14,14,1,O,space,,,,,,,,,,
,,,,,R_49ojbe481GcNvdn,001,2025-07-31_12h43.16.314,continuous_performance_test,2024.2.4,Win32,59.52380952,e4edd504-f738-4b89-9cfb-7ce6b354e8f2,4,39.126,40.8227,space,0,0.2796,,0,15,15,27,1,X,,,,,,,,,,,
,,,,,R_49ojbe481GcNvdn,001,2025-07-31_12h43.16.314,continuous_performance_test,2024.2.4,Win32,59.52380952,e4edd504-f738-4b89-9cfb-7ce6b354e8f2,4,40.8263,42.5225,space,1,0.298,,0,16,16,17,1,R,space,,,,,,,,,,
,,,,,R_49ojbe481GcNvdn,001,2025-07-31_12h43.16.314,continuous_performance_test,2024.2.4,Win32,59.52380952,e4edd504-f738-4b89-9cfb-7ce6b354e8f2,4,42.5255,44.2721,space,1,0.2983,,0,17,17,1,1,B,space,,,,,,,,,,
,,,,,R_49ojbe481GcNvdn,001,2025-07-31_12h43.16.314,continuous_performance_test,2024.2.4,Win32,59.52380952,e4edd504-f738-4b89-9cfb-7ce6b354e8f2,4,44.2745,45.9223,space,0,0.3466,,0,18,18,25,1,X,,,,,,,,,,,
,,,,,R_49ojbe481GcNvdn,001,2025-07-31_12h43.16.314,continuous_performance_test,2024.2.4,Win32,59.52380952,e4edd504-f738-4b89-9cfb-7ce6b354e8f2,4,45.9251,47.7727,space,1,0.2645,,0,19,19,5,1,F,space,,,,,,,,,,
,,,,,R_49ojbe481GcNvdn,001,2025-07-31_12h43.16.314,continuous_performance_test,2024.2.4,Win32,59.52380952,e4edd504-f738-4b89-9cfb-7ce6b354e8f2,4,47.7766,49.4227,space,1,0.2466,,0,20,20,16,1,Q,space,,,,,,,,,,
,,,,,R_49ojbe481GcNvdn,001,2025-07-31_12h43.16.314,continuous_performance_test,2024.2.4,Win32,59.52380952,e4edd504-f738-4b89-9cfb-7ce6b354e8f2,4,49.4261,51.2722,space,0,0.2503,,0,21,21,29,1,X,,,,,,,,,,,
,,,,,R_49ojbe481GcNvdn,001,2025-07-31_12h43.16.314,continuous_performance_test,2024.2.4,Win32,59.52380952,e4edd504-f738-4b89-9cfb-7ce6b354e8f2,4,51.2757,53.2226,space,1,0.4131,,0,22,22,4,1,E,space,,,,,,,,,,
,,,,,R_49ojbe481GcNvdn,001,2025-07-31_12h43.16.314,continuous_performance_test,2024.2.4,Win32,59.52380952,e4edd504-f738-4b89-9cfb-7ce6b354e8f2,4,53.2262,54.8223,space,1,0.5626,,0,23,23,19,1,T,space,,,,,,,,,,
,,,,,R_49ojbe481GcNvdn,001,2025-07-31_12h43.16.314,continuous_performance_test,2024.2.4,Win32,59.52380952,e4edd504-f738-4b89-9cfb-7ce6b354e8f2,4,54.8256,56.7218,space,1,0.2841,,0,24,24,20,1,U,space,,,,,,,,,,
,,,,,R_49ojbe481GcNvdn,001,2025-07-31_12h43.16.314,continuous_performance_test,2024.2.4,Win32,59.52380952,e4edd504-f738-4b89-9cfb-7ce6b354e8f2,4,56.7247,58.5223,space,1,0.3484,,0,25,25,8,1,I,space,,,,,,,,,,
,,,,,R_49ojbe481GcNvdn,001,2025-07-31_12h43.16.314,continuous_performance_test,2024.2.4,Win32,59.52380952,e4edd504-f738-4b89-9cfb-7ce6b354e8f2,4,58.526,60.4224,space,1,0.3298,,0,26,26,2,1,C,space,,,,,,,,,,
,,,,,R_49ojbe481GcNvdn,001,2025-07-31_12h43.16.314,continuous_performance_test,2024.2.4,Win32,59.52380952,e4edd504-f738-4b89-9cfb-7ce6b354e8f2,4,60.4257,61.9723,space,1,0.3634,,0,27,27,11,1,L,space,,,,,,,,,,
,,,,,R_49ojbe481GcNvdn,001,2025-07-31_12h43.16.314,continuous_performance_test,2024.2.4,Win32,59.52380952,e4edd504-f738-4b89-9cfb-7ce6b354e8f2,4,61.9758,63.7225,space,1,0.2996,,0,28,28,3,1,D,space,,,,,,,,,,
,,,,,R_49ojbe481GcNvdn,001,2025-07-31_12h43.16.314,continuous_performance_test,2024.2.4,Win32,59.52380952,e4edd504-f738-4b89-9cfb-7ce6b354e8f2,4,63.7262,65.3223,space,1,0.2949,,0,29,29,22,1,W,space,,,,,,,,,,
,,,,,R_49ojbe481GcNvdn,001,2025-07-31_12h43.16.314,continuous_performance_test,2024.2.4,Win32,59.52380952,e4edd504-f738-4b89-9cfb-7ce6b354e8f2,4,73.1404,75.139,space,1,0.3471,,0,0,0,23,1,Y,space,65.3235,73.1232,space,7.7803,,,,,,
,,,,,R_49ojbe481GcNvdn,001,2025-07-31_12h43.16.314,continuous_performance_test,2024.2.4,Win32,59.52380952,e4edd504-f738-4b89-9cfb-7ce6b354e8f2,4,75.1419,77.0392,space,0,0.2365,,0,1,1,27,1,X,,,,,,,,,,,
,,,,,R_49ojbe481GcNvdn,001,2025-07-31_12h43.16.314,continuous_performance_test,2024.2.4,Win32,59.52380952,e4edd504-f738-4b89-9cfb-7ce6b354e8f2,4,77.0415,78.6887,space,0,0.3019,,0,2,2,26,1,X,,,,,,,,,,,
,,,,,R_49ojbe481GcNvdn,001,2025-07-31_12h43.16.314,continuous_performance_test,2024.2.4,Win32,59.52380952,e4edd504-f738-4b89-9cfb-7ce6b354e8f2,4,78.6916,80.2383,space,1,0.3476,,0,3,3,9,1,J,space,,,,,,,,,,
,,,,,R_49ojbe481GcNvdn,001,2025-07-31_12h43.16.314,continuous_performance_test,2024.2.4,Win32,59.52380952,e4edd504-f738-4b89-9cfb-7ce6b354e8f2,4,80.2412,82.0887,space,0,0.2634,,0,4,4,28,1,X,,,,,,,,,,,
,,,,,R_49ojbe481GcNvdn,001,2025-07-31_12h43.16.314,continuous_performance_test,2024.2.4,Win32,59.52380952,e4edd504-f738-4b89-9cfb-7ce6b354e8f2,4,82.0914,83.9887,space,1,0.2805,,0,5,5,24,1,Z,space,,,,,,,,,,
,,,,,R_49ojbe481GcNvdn,001,2025-07-31_12h43.16.314,continuous_performance_test,2024.2.4,Win32,59.52380952,e4edd504-f738-4b89-9cfb-7ce6b354e8f2,4,83.9918,85.6884,space,1,0.3948,,0,6,6,4,1,E,space,,,,,,,,,,
,,,,,R_49ojbe481GcNvdn,001,2025-07-31_12h43.16.314,continuous_performance_test,2024.2.4,Win32,59.52380952,e4edd504-f738-4b89-9cfb-7ce6b354e8f2,4,85.6907,87.3377,space,1,0.3003,,0,7,7,5,1,F,space,,,,,,,,,,
,,,,,R_49ojbe481GcNvdn,001,2025-07-31_12h43.16.314,continuous_performance_test,2024.2.4,Win32,59.52380952,e4edd504-f738-4b89-9cfb-7ce6b354e8f2,4,87.3387,89.1387,space,1,0.3031,,0,8,8,0,1,A,space,,,,,,,,,,
,,,,,R_49ojbe481GcNvdn,001,2025-07-31_12h43.16.314,continuous_performance_test,2024.2.4,Win32,59.52380952,e4edd504-f738-4b89-9cfb-7ce6b354e8f2,4,89.1414,90.9881,,1,,,0,9,9,25,1,X,,,,,,,,,,,
,,,,,R_49ojbe481GcNvdn,001,2025-07-31_12h43.16.314,continuous_performance_test,2024.2.4,Win32,59.52380952,e4edd504-f738-4b89-9cfb-7ce6b354e8f2,4,90.9904,92.6885,space,1,0.2484,,0,10,10,1,1,B,space,,,,,,,,,,
,,,,,R_49ojbe481GcNvdn,001,2025-07-31_12h43.16.314,continuous_performance_test,2024.2.4,Win32,59.52380952,e4edd504-f738-4b89-9cfb-7ce6b354e8f2,4,92.6916,94.6386,space,1,0.2523,,0,11,11,18,1,S,space,,,,,,,,,,
,,,,,R_49ojbe481GcNvdn,001,2025-07-31_12h43.16.314,continuous_performance_test,2024.2.4,Win32,59.52380952,e4edd504-f738-4b89-9cfb-7ce6b354e8f2,4,94.6416,96.5386,space,1,0.4169,,0,12,12,22,1,W,space,,,,,,,,,,
,,,,,R_49ojbe481GcNvdn,001,2025-07-31_12h43.16.314,continuous_performance_test,2024.2.4,Win32,59.52380952,e4edd504-f738-4b89-9cfb-7ce6b354e8f2,4,96.5412,98.0885,space,1,0.3637,,0,13,13,21,1,V,space,,,,,,,,,,
,,,,,R_49ojbe481GcNvdn,001,2025-07-31_12h43.16.314,continuous_performance_test,2024.2.4,Win32,59.52380952,e4edd504-f738-4b89-9cfb-7ce6b354e8f2,4,98.0912,99.7385,space,1,0.3183,,0,14,14,2,1,C,space,,,,,,,,,,
,,,,,R_49ojbe481GcNvdn,001,2025-07-31_12h43.16.314,continuous_performance_test,2024.2.4,Win32,59.52380952,e4edd504-f738-4b89-9cfb-7ce6b354e8f2,4,99.742,101.4884,space,1,0.3301,,0,15,15,19,1,T,space,,,,,,,,,,
,,,,,R_49ojbe481GcNvdn,001,2025-07-31_12h43.16.314,continuous_performance_test,2024.2.4,Win32,59.52380952,e4edd504-f738-4b89-9cfb-7ce6b354e8f2,4,101.4916,103.1384,space,1,0.3159,,0,16,16,17,1,R,space,,,,,,,,,,
,,,,,R_49ojbe481GcNvdn,001,2025-07-31_12h43.16.314,continuous_performance_test,2024.2.4,Win32,59.52380952,e4edd504-f738-4b89-9cfb-7ce6b354e8f2,4,103.1414,104.8386,space,1,0.3161,,0,17,17,10,1,K,space,,,,,,,,,,
,,,,,R_49ojbe481GcNvdn,001,2025-07-31_12h43.16.314,continuous_performance_test,2024.2.4,Win32,59.52380952,e4edd504-f738-4b89-9cfb-7ce6b354e8f2,4,104.8412,106.8385,space,1,0.2669,,0,18,18,13,1,N,space,,,,,,,,,,
,,,,,R_49ojbe481GcNvdn,001,2025-07-31_12h43.16.314,continuous_performance_test,2024.2.4,Win32,59.52380952,e4edd504-f738-4b89-9cfb-7ce6b354e8f2,4,106.8414,108.5387,space,1,0.312,,0,19,19,14,1,O,space,,,,,,,,,,
,,,,,R_49ojbe481GcNvdn,001,2025-07-31_12h43.16.314,continuous_performance_test,2024.2.4,Win32,59.52380952,e4edd504-f738-4b89-9cfb-7ce6b354e8f2,4,108.5416,110.0883,space,1,0.2964,,0,20,20,16,1,Q,space,,,,,,,,,,
,,,,,R_49ojbe481GcNvdn,001,2025-07-31_12h43.16.314,continuous_performance_test,2024.2.4,Win32,59.52380952,e4edd504-f738-4b89-9cfb-7ce6b354e8f2,4,110.0914,111.8384,space,1,0.2311,,0,21,21,6,1,G,space,,,,,,,,,,
,,,,,R_49ojbe481GcNvdn,001,2025-07-31_12h43.16.314,continuous_performance_test,2024.2.4,Win32,59.52380952,e4edd504-f738-4b89-9cfb-7ce6b354e8f2,4,111.8412,113.5881,space,1,0.265,,0,22,22,11,1,L,space,,,,,,,,,,
,,,,,R_49ojbe481GcNvdn,001,2025-07-31_12h43.16.314,continuous_performance_test,2024.2.4,Win32,59.52380952,e4edd504-f738-4b89-9cfb-7ce6b354e8f2,4,113.591,115.438,space,1,0.2351,,0,23,23,15,1,P,space,,,,,,,,,,
,,,,,R_49ojbe481GcNvdn,001,2025-07-31_12h43.16.314,continuous_performance_test,2024.2.4,Win32,59.52380952,e4edd504-f738-4b89-9cfb-7ce6b354e8f2,4,115.4412,117.0882,space,1,0.2368,,0,24,24,8,1,I,space,,,,,,,,,,
,,,,,R_49ojbe481GcNvdn,001,2025-07-31_12h43.16.314,continuous_performance_test,2024.2.4,Win32,59.52380952,e4edd504-f738-4b89-9cfb-7ce6b354e8f2,4,117.0906,118.9883,space,1,0.2629,,0,25,25,12,1,M,space,,,,,,,,,,
,,,,,R_49ojbe481GcNvdn,001,2025-07-31_12h43.16.314,continuous_performance_test,2024.2.4,Win32,59.52380952,e4edd504-f738-4b89-9cfb-7ce6b354e8f2,4,118.9913,120.7383,space,1,0.2677,,0,26,26,7,1,H,space,,,,,,,,,,
,,,,,R_49ojbe481GcNvdn,001,2025-07-31_12h43.16.314,continuous_performance_test,2024.2.4,Win32,59.52380952,e4edd504-f738-4b89-9cfb-7ce6b354e8f2,4,120.7407,122.7383,space,0,0.2472,,0,27,27,29,1,X,,,,,,,,,,,
,,,,,R_49ojbe481GcNvdn,001,2025-07-31_12h43.16.314,continuous_performance_test,2024.2.4,Win32,59.52380952,e4edd504-f738-4b89-9cfb-7ce6b354e8f2,4,122.7412,124.2883,space,1,0.2631,,0,28,28,20,1,U,space,,,,,,,,,,
,,,,,R_49ojbe481GcNvdn,001,2025-07-31_12h43.16.314,continuous_performance_test,2024.2.4,Win32,59.52380952,e4edd504-f738-4b89-9cfb-7ce6b354e8f2,4,124.2918,126.1383,space,1,0.2509,,0,29,29,3,1,D,space,,,,,,,,,,
,,,,,R_49ojbe481GcNvdn,001,2025-07-31_12h43.16.314,continuous_performance_test,2024.2.4,Win32,59.52380952,e4edd504-f738-4b89-9cfb-7ce6b354e8f2,4,132.0317,133.8715,space,1,0.4508,,0,0,0,13,1,N,space,126.1402,132.0224,space,5.8645,,,,,,
,,,,,R_49ojbe481GcNvdn,001,2025-07-31_12h43.16.314,continuous_performance_test,2024.2.4,Win32,59.52380952,e4edd504-f738-4b89-9cfb-7ce6b354e8f2,4,133.8746,135.4711,space,1,0.3197,,0,1,1,20,1,U,space,,,,,,,,,,
,,,,,R_49ojbe481GcNvdn,001,2025-07-31_12h43.16.314,continuous_performance_test,2024.2.4,Win32,59.52380952,e4edd504-f738-4b89-9cfb-7ce6b354e8f2,4,135.4741,137.4214,space,1,0.2677,,0,2,2,24,1,Z,space,,,,,,,,,,
,,,,,R_49ojbe481GcNvdn,001,2025-07-31_12h43.16.314,continuous_performance_test,2024.2.4,Win32,59.52380952,e4edd504-f738-4b89-9cfb-7ce6b354e8f2,4,137.4248,139.0213,space,1,0.2909,,0,3,3,3,1,D,space,,,,,,,,,,
,,,,,R_49ojbe481GcNvdn,001,2025-07-31_12h43.16.314,continuous_performance_test,2024.2.4,Win32,59.52380952,e4edd504-f738-4b89-9cfb-7ce6b354e8f2,4,139.0245,140.9711,space,1,0.3167,,0,4,4,17,1,R,space,,,,,,,,,,
,,,,,R_49ojbe481GcNvdn,001,2025-07-31_12h43.16.314,continuous_performance_test,2024.2.4,Win32,59.52380952,e4edd504-f738-4b89-9cfb-7ce6b354e8f2,4,140.9741,142.7212,,1,,,0,5,5,26,1,X,,,,,,,,,,,
,,,,,R_49ojbe481GcNvdn,001,2025-07-31_12h43.16.314,continuous_performance_test,2024.2.4,Win32,59.52380952,e4edd504-f738-4b89-9cfb-7ce6b354e8f2,4,142.7246,144.5711,space,1,0.2683,,0,6,6,5,1,F,space,,,,,,,,,,
,,,,,R_49ojbe481GcNvdn,001,2025-07-31_12h43.16.314,continuous_performance_test,2024.2.4,Win32,59.52380952,e4edd504-f738-4b89-9cfb-7ce6b354e8f2,4,144.5738,146.4208,space,1,0.3872,,0,7,7,14,1,O,space,,,,,,,,,,
,,,,,R_49ojbe481GcNvdn,001,2025-07-31_12h43.16.314,continuous_performance_test,2024.2.4,Win32,59.52380952,e4edd504-f738-4b89-9cfb-7ce6b354e8f2,4,146.4234,148.4212,space,1,0.3026,,0,8,8,4,1,E,space,,,,,,,,,,
,,,,,R_49ojbe481GcNvdn,001,2025-07-31_12h43.16.314,continuous_performance_test,2024.2.4,Win32,59.52380952,e4edd504-f738-4b89-9cfb-7ce6b354e8f2,4,148.4239,150.071,space,1,0.2681,,0,9,9,16,1,Q,space,,,,,,,,,,
,,,,,R_49ojbe481GcNvdn,001,2025-07-31_12h43.16.314,continuous_performance_test,2024.2.4,Win32,59.52380952,e4edd504-f738-4b89-9cfb-7ce6b354e8f2,4,150.0733,151.9712,space,1,0.3347,,0,10,10,9,1,J,space,,,,,,,,,,
,,,,,R_49ojbe481GcNvdn,001,2025-07-31_12h43.16.314,continuous_performance_test,2024.2.4,Win32,59.52380952,e4edd504-f738-4b89-9cfb-7ce6b354e8f2,4,151.9741,153.6641,space,1,0.2873,,0,11,11,23,1,Y,space,,,,,,,,,,
,,,,,R_49ojbe481GcNvdn,001,2025-07-31_12h43.16.314,continuous_performance_test,2024.2.4,Win32,59.52380952,e4edd504-f738-4b89-9cfb-7ce6b354e8f2,4,153.6671,155.4541,space,1,0.301,,0,12,12,8,1,I,space,,,,,,,,,,
,,,,,R_49ojbe481GcNvdn,001,2025-07-31_12h43.16.314,continuous_performance_test,2024.2.4,Win32,59.52380952,e4edd504-f738-4b89-9cfb-7ce6b354e8f2,4,155.4566,157.4043,space,1,0.3027,,0,13,13,6,1,G,space,,,,,,,,,,
,,,,,R_49ojbe481GcNvdn,001,2025-07-31_12h43.16.314,continuous_performance_test,2024.2.4,Win32,59.52380952,e4edd504-f738-4b89-9cfb-7ce6b354e8f2,4,157.4073,159.2543,space,1,0.4043,,0,14,14,22,1,W,space,,,,,,,,,,
,,,,,R_49ojbe481GcNvdn,001,2025-07-31_12h43.16.314,continuous_performance_test,2024.2.4,Win32,59.52380952,e4edd504-f738-4b89-9cfb-7ce6b354e8f2,4,159.2575,160.9042,space,1,0.306,,0,15,15,18,1,S,space,,,,,,,,,,
,,,,,R_49ojbe481GcNvdn,001,2025-07-31_12h43.16.314,continuous_performance_test,2024.2.4,Win32,59.52380952,e4edd504-f738-4b89-9cfb-7ce6b354e8f2,4,160.9077,162.5042,space,1,0.6183,,0,16,16,1,1,B,space,,,,,,,,,,
,,,,,R_49ojbe481GcNvdn,001,2025-07-31_12h43.16.314,continuous_performance_test,2024.2.4,Win32,59.52380952,e4edd504-f738-4b89-9cfb-7ce6b354e8f2,4,162.5069,164.454,space,1,0.292,,0,17,17,7,1,H,space,,,,,,,,,,
,,,,,R_49ojbe481GcNvdn,001,2025-07-31_12h43.16.314,continuous_performance_test,2024.2.4,Win32,59.52380952,e4edd504-f738-4b89-9cfb-7ce6b354e8f2,4,164.4569,166.004,space,1,0.4682,,0,18,18,21,1,V,space,,,,,,,,,,
,,,,,R_49ojbe481GcNvdn,001,2025-07-31_12h43.16.314,continuous_performance_test,2024.2.4,Win32,59.52380952,e4edd504-f738-4b89-9cfb-7ce6b354e8f2,4,166.0069,167.7539,space,1,0.2909,,0,19,19,2,1,C,space,,,,,,,,,,
,,,,,R_49ojbe481GcNvdn,001,2025-07-31_12h43.16.314,continuous_performance_test,2024.2.4,Win32,59.52380952,e4edd504-f738-4b89-9cfb-7ce6b354e8f2,4,167.7565,169.4042,space,1,0.353,,0,20,20,12,1,M,space,,,,,,,,,,
,,,,,R_49ojbe481GcNvdn,001,2025-07-31_12h43.16.314,continuous_performance_test,2024.2.4,Win32,59.52380952,e4edd504-f738-4b89-9cfb-7ce6b354e8f2,4,169.4074,170.9641,space,0,0.3524,,0,21,21,29,1,X,,,,,,,,,,,
,,,,,R_49ojbe481GcNvdn,001,2025-07-31_12h43.16.314,continuous_performance_test,2024.2.4,Win32,59.52380952,e4edd504-f738-4b89-9cfb-7ce6b354e8f2,4,170.9681,172.804,space,1,0.3348,,0,22,22,15,1,P,space,,,,,,,,,,
,,,,,R_49ojbe481GcNvdn,001,2025-07-31_12h43.16.314,continuous_performance_test,2024.2.4,Win32,59.52380952,e4edd504-f738-4b89-9cfb-7ce6b354e8f2,4,172.8071,174.404,space,1,0.3017,,0,23,23,19,1,T,space,,,,,,,,,,
,,,,,R_49ojbe481GcNvdn,001,2025-07-31_12h43.16.314,continuous_performance_test,2024.2.4,Win32,59.52380952,e4edd504-f738-4b89-9cfb-7ce6b354e8f2,4,174.4071,176.2538,space,0,0.2848,,0,24,24,27,1,X,,,,,,,,,,,
,,,,,R_49ojbe481GcNvdn,001,2025-07-31_12h43.16.314,continuous_performance_test,2024.2.4,Win32,59.52380952,e4edd504-f738-4b89-9cfb-7ce6b354e8f2,4,176.2554,177.9043,,1,,,0,25,25,28,1,X,,,,,,,,,,,
,,,,,R_49ojbe481GcNvdn,001,2025-07-31_12h43.16.314,continuous_performance_test,2024.2.4,Win32,59.52380952,e4edd504-f738-4b89-9cfb-7ce6b354e8f2,4,177.9077,179.6538,space,1,0.3515,,0,26,26,11,1,L,space,,,,,,,,,,
,,,,,R_49ojbe481GcNvdn,001,2025-07-31_12h43.16.314,continuous_performance_test,2024.2.4,Win32,59.52380952,e4edd504-f738-4b89-9cfb-7ce6b354e8f2,4,179.6562,181.4037,space,0,0.288,,0,27,27,25,1,X,,,,,,,,,,,
,,,,,R_49ojbe481GcNvdn,001,2025-07-31_12h43.16.314,continuous_performance_test,2024.2.4,Win32,59.52380952,e4edd504-f738-4b89-9cfb-7ce6b354e8f2,4,181.4068,183.3538,,0,,,0,28,28,0,1,A,space,,,,,,,,,,
,,,,,R_49ojbe481GcNvdn,001,2025-07-31_12h43.16.314,continuous_performance_test,2024.2.4,Win32,59.52380952,e4edd504-f738-4b89-9cfb-7ce6b354e8f2,4,183.3563,185.004,space,1,0.2382,,0,29,29,10,1,K,space,,,,,,,,,,
,,,,,R_49ojbe481GcNvdn,001,2025-07-31_12h43.16.314,continuous_performance_test,2024.2.4,Win32,59.52380952,e4edd504-f738-4b89-9cfb-7ce6b354e8f2,4,186.1822,187.7706,space,1,0.2848,,0,0,0,3,1,D,space,185.0063,186.1704,space,1.1343,,,,,,
,,,,,R_49ojbe481GcNvdn,001,2025-07-31_12h43.16.314,continuous_performance_test,2024.2.4,Win32,59.52380952,e4edd504-f738-4b89-9cfb-7ce6b354e8f2,4,187.7736,189.6205,space,1,0.2869,,0,1,1,4,1,E,space,,,,,,,,,,
,,,,,R_49ojbe481GcNvdn,001,2025-07-31_12h43.16.314,continuous_performance_test,2024.2.4,Win32,59.52380952,e4edd504-f738-4b89-9cfb-7ce6b354e8f2,4,189.6238,191.5206,space,0,0.3155,,0,2,2,27,1,X,,,,,,,,,,,
,,,,,R_49ojbe481GcNvdn,001,2025-07-31_12h43.16.314,continuous_performance_test,2024.2.4,Win32,59.52380952,e4edd504-f738-4b89-9cfb-7ce6b354e8f2,4,191.5235,193.3705,space,1,0.3523,,0,3,3,10,1,K,space,,,,,,,,,,
,,,,,R_49ojbe481GcNvdn,001,2025-07-31_12h43.16.314,continuous_performance_test,2024.2.4,Win32,59.52380952,e4edd504-f738-4b89-9cfb-7ce6b354e8f2,4,193.3744,195.1206,space,1,0.3499,,0,4,4,18,1,S,space,,,,,,,,,,
,,,,,R_49ojbe481GcNvdn,001,2025-07-31_12h43.16.314,continuous_performance_test,2024.2.4,Win32,59.52380952,e4edd504-f738-4b89-9cfb-7ce6b354e8f2,4,195.1241,196.8706,space,1,0.2699,,0,5,5,16,1,Q,space,,,,,,,,,,
,,,,,R_49ojbe481GcNvdn,001,2025-07-31_12h43.16.314,continuous_performance_test,2024.2.4,Win32,59.52380952,e4edd504-f738-4b89-9cfb-7ce6b354e8f2,4,196.8741,198.6205,space,1,0.288,,0,6,6,17,1,R,space,,,,,,,,,,
,,,,,R_49ojbe481GcNvdn,001,2025-07-31_12h43.16.314,continuous_performance_test,2024.2.4,Win32,59.52380952,e4edd504-f738-4b89-9cfb-7ce6b354e8f2,4,198.6238,200.6204,space,1,0.2518,,0,7,7,23,1,Y,space,,,,,,,,,,
,,,,,R_49ojbe481GcNvdn,001,2025-07-31_12h43.16.314,continuous_performance_test,2024.2.4,Win32,59.52380952,e4edd504-f738-4b89-9cfb-7ce6b354e8f2,4,200.6234,202.3705,space,1,0.4153,,0,8,8,9,1,J,space,,,,,,,,,,
,,,,,R_49ojbe481GcNvdn,001,2025-07-31_12h43.16.314,continuous_performance_test,2024.2.4,Win32,59.52380952,e4edd504-f738-4b89-9cfb-7ce6b354e8f2,4,202.3741,204.1203,space,1,0.3538,,0,9,9,11,1,L,space,,,,,,,,,,
,,,,,R_49ojbe481GcNvdn,001,2025-07-31_12h43.16.314,continuous_performance_test,2024.2.4,Win32,59.52380952,e4edd504-f738-4b89-9cfb-7ce6b354e8f2,4,204.1235,205.6704,space,1,0.4011,,0,10,10,21,1,V,space,,,,,,,,,,
,,,,,R_49ojbe481GcNvdn,001,2025-07-31_12h43.16.314,continuous_performance_test,2024.2.4,Win32,59.52380952,e4edd504-f738-4b89-9cfb-7ce6b354e8f2,4,205.6733,207.2203,space,1,0.3168,,0,11,11,19,1,T,space,,,,,,,,,,
,,,,,R_49ojbe481GcNvdn,001,2025-07-31_12h43.16.314,continuous_performance_test,2024.2.4,Win32,59.52380952,e4edd504-f738-4b89-9cfb-7ce6b354e8f2,4,207.2236,208.9703,space,1,0.2848,,0,12,12,8,1,I,space,,,,,,,,,,
,,,,,R_49ojbe481GcNvdn,001,2025-07-31_12h43.16.314,continuous_performance_test,2024.2.4,Win32,59.52380952,e4edd504-f738-4b89-9cfb-7ce6b354e8f2,4,208.9731,210.5205,space,1,0.2841,,0,13,13,24,1,Z,space,,,,,,,,,,
,,,,,R_49ojbe481GcNvdn,001,2025-07-31_12h43.16.314,continuous_performance_test,2024.2.4,Win32,59.52380952,e4edd504-f738-4b89-9cfb-7ce6b354e8f2,4,210.5235,212.4203,space,1,0.2894,,0,14,14,14,1,O,space,,,,,,,,,,
,,,,,R_49ojbe481GcNvdn,001,2025-07-31_12h43.16.314,continuous_performance_test,2024.2.4,Win32,59.52380952,e4edd504-f738-4b89-9cfb-7ce6b354e8f2,4,212.4229,214.1703,space,1,0.3017,,0,15,15,12,1,M,space,,,,,,,,,,
,,,,,R_49ojbe481GcNvdn,001,2025-07-31_12h43.16.314,continuous_performance_test,2024.2.4,Win32,59.52380952,e4edd504-f738-4b89-9cfb-7ce6b354e8f2,4,214.173,215.8703,space,1,0.296,,0,16,16,5,1,F,space,,,,,,,,,,
,,,,,R_49ojbe481GcNvdn,001,2025-07-31_12h43.16.314,continuous_performance_test,2024.2.4,Win32,59.52380952,e4edd504-f738-4b89-9cfb-7ce6b354e8f2,4,215.8733,217.4703,space,1,0.3184,,0,17,17,20,1,U,space,,,,,,,,,,
,,,,,R_49ojbe481GcNvdn,001,2025-07-31_12h43.16.314,continuous_performance_test,2024.2.4,Win32,59.52380952,e4edd504-f738-4b89-9cfb-7ce6b354e8f2,4,217.4739,219.1702,space,1,0.318,,0,18,18,1,1,B,space,,,,,,,,,,
,,,,,R_49ojbe481GcNvdn,001,2025-07-31_12h43.16.314,continuous_performance_test,2024.2.4,Win32,59.52380952,e4edd504-f738-4b89-9cfb-7ce6b354e8f2,4,219.1735,221.1702,space,1,0.2999,,0,19,19,2,1,C,space,,,,,,,,,,
,,,,,R_49ojbe481GcNvdn,001,2025-07-31_12h43.16.314,continuous_performance_test,2024.2.4,Win32,59.52380952,e4edd504-f738-4b89-9cfb-7ce6b354e8f2,4,221.1735,222.9198,space,1,0.3149,,0,20,20,15,1,P,space,,,,,,,,,,
,,,,,R_49ojbe481GcNvdn,001,2025-07-31_12h43.16.314,continuous_performance_test,2024.2.4,Win32,59.52380952,e4edd504-f738-4b89-9cfb-7ce6b354e8f2,4,222.9218,224.4701,space,1,0.2902,,0,21,21,13,1,N,space,,,,,,,,,,
,,,,,R_49ojbe481GcNvdn,001,2025-07-31_12h43.16.314,continuous_performance_test,2024.2.4,Win32,59.52380952,e4edd504-f738-4b89-9cfb-7ce6b354e8f2,4,224.473,226.2697,space,0,0.3183,0.0008,0,22,22,26,1,X,,,,,,,,,,,
,,,,,R_49ojbe481GcNvdn,001,2025-07-31_12h43.16.314,continuous_performance_test,2024.2.4,Win32,59.52380952,e4edd504-f738-4b89-9cfb-7ce6b354e8f2,4,226.2719,227.8195,space,1,0.3059,,0,23,23,6,1,G,space,,,,,,,,,,
,,,,,R_49ojbe481GcNvdn,001,2025-07-31_12h43.16.314,continuous_performance_test,2024.2.4,Win32,59.52380952,e4edd504-f738-4b89-9cfb-7ce6b354e8f2,4,227.8218,229.3704,space,1,0.2692,,0,24,24,0,1,A,space,,,,,,,,,,
,,,,,R_49ojbe481GcNvdn,001,2025-07-31_12h43.16.314,continuous_performance_test,2024.2.4,Win32,59.52380952,e4edd504-f738-4b89-9cfb-7ce6b354e8f2,4,229.3729,231.02,,1,,,0,25,25,28,1,X,,,,,,,,,,,
,,,,,R_49ojbe481GcNvdn,001,2025-07-31_12h43.16.314,continuous_performance_test,2024.2.4,Win32,59.52380952,e4edd504-f738-4b89-9cfb-7ce6b354e8f2,4,231.0217,232.7701,,1,,,0,26,26,25,1,X,,,,,,,,,,,
,,,,,R_49ojbe481GcNvdn,001,2025-07-31_12h43.16.314,continuous_performance_test,2024.2.4,Win32,59.52380952,e4edd504-f738-4b89-9cfb-7ce6b354e8f2,4,232.773,234.3198,space,1,0.3675,,0,27,27,7,1,H,space,,,,,,,,,,
,,,,,R_49ojbe481GcNvdn,001,2025-07-31_12h43.16.314,continuous_performance_test,2024.2.4,Win32,59.52380952,e4edd504-f738-4b89-9cfb-7ce6b354e8f2,4,234.3231,236.0271,,1,,,0,28,28,29,1,X,,,,,,,,,,,
,,,,,R_49ojbe481GcNvdn,001,2025-07-31_12h43.16.314,continuous_performance_test,2024.2.4,Win32,59.52380952,e4edd504-f738-4b89-9cfb-7ce6b354e8f2,4,236.0299,237.6699,space,1,0.2742,,0,29,29,22,1,W,space,,,,,,,,,,
,,,,,R_49ojbe481GcNvdn,001,2025-07-31_12h43.16.314,continuous_performance_test,2024.2.4,Win32,59.52380952,e4edd504-f738-4b89-9cfb-7ce6b354e8f2,4,238.698,240.6865,space,1,0.2566,,0,0,0,9,1,J,space,237.6716,238.6867,space,0.9831,,,,,,
,,,,,R_49ojbe481GcNvdn,001,2025-07-31_12h43.16.314,continuous_performance_test,2024.2.4,Win32,59.52380952,e4edd504-f738-4b89-9cfb-7ce6b354e8f2,4,240.6902,242.5366,space,1,0.3039,,0,1,1,4,1,E,space,,,,,,,,,,
,,,,,R_49ojbe481GcNvdn,001,2025-07-31_12h43.16.314,continuous_performance_test,2024.2.4,Win32,59.52380952,e4edd504-f738-4b89-9cfb-7ce6b354e8f2,4,242.5394,244.4294,space,1,0.2882,,0,2,2,2,1,C,space,,,,,,,,,,
,,,,,R_49ojbe481GcNvdn,001,2025-07-31_12h43.16.314,continuous_performance_test,2024.2.4,Win32,59.52380952,e4edd504-f738-4b89-9cfb-7ce6b354e8f2,4,244.4323,246.42,space,1,0.2701,,0,3,3,16,1,Q,space,,,,,,,,,,
,,,,,R_49ojbe481GcNvdn,001,2025-07-31_12h43.16.314,continuous_performance_test,2024.2.4,Win32,59.52380952,e4edd504-f738-4b89-9cfb-7ce6b354e8f2,4,246.4232,247.9697,space,1,0.3843,,0,4,4,14,1,O,space,,,,,,,,,,
,,,,,R_49ojbe481GcNvdn,001,2025-07-31_12h43.16.314,continuous_performance_test,2024.2.4,Win32,59.52380952,e4edd504-f738-4b89-9cfb-7ce6b354e8f2,4,247.9725,249.6203,space,1,0.368,,0,5,5,23,1,Y,space,,,,,,,,,,
,,,,,R_49ojbe481GcNvdn,001,2025-07-31_12h43.16.314,continuous_performance_test,2024.2.4,Win32,59.52380952,e4edd504-f738-4b89-9cfb-7ce6b354e8f2,4,249.6228,251.3699,space,1,0.3348,,0,6,6,1,1,B,space,,,,,,,,,,
,,,,,R_49ojbe481GcNvdn,001,2025-07-31_12h43.16.314,continuous_performance_test,2024.2.4,Win32,59.52380952,e4edd504-f738-4b89-9cfb-7ce6b354e8f2,4,251.3737,253.37,,1,,,0,7,7,27,1,X,,,,,,,,,,,
,,,,,R_49ojbe481GcNvdn,001,2025-07-31_12h43.16.314,continuous_performance_test,2024.2.4,Win32,59.52380952,e4edd504-f738-4b89-9cfb-7ce6b354e8f2,4,253.3728,254.9192,space,1,0.3521,,0,8,8,7,1,H,space,,,,,,,,,,
,,,,,R_49ojbe481GcNvdn,001,2025-07-31_12h43.16.314,continuous_performance_test,2024.2.4,Win32,59.52380952,e4edd504-f738-4b89-9cfb-7ce6b354e8f2,4,254.9212,256.6204,space,1,0.2717,,0,9,9,18,1,S,space,,,,,,,,,,
,,,,,R_49ojbe481GcNvdn,001,2025-07-31_12h43.16.314,continuous_performance_test,2024.2.4,Win32,59.52380952,e4edd504-f738-4b89-9cfb-7ce6b354e8f2,4,256.6238,258.1696,space,0,0.3696,,0,10,10,25,1,X,,,,,,,,,,,
,,,,,R_49ojbe481GcNvdn,001,2025-07-31_12h43.16.314,continuous_performance_test,2024.2.4,Win32,59.52380952,e4edd504-f738-4b89-9cfb-7ce6b354e8f2,4,258.1722,260.0698,space,1,0.3011,,0,11,11,17,1,R,space,,,,,,,,,,
,,,,,R_49ojbe481GcNvdn,001,2025-07-31_12h43.16.314,continuous_performance_test,2024.2.4,Win32,59.52380952,e4edd504-f738-4b89-9cfb-7ce6b354e8f2,4,260.0735,261.6196,,1,,,0,12,12,29,1,X,,,,,,,,,,,
,,,,,R_49ojbe481GcNvdn,001,2025-07-31_12h43.16.314,continuous_performance_test,2024.2.4,Win32,59.52380952,e4edd504-f738-4b89-9cfb-7ce6b354e8f2,4,261.6229,263.1697,space,1,0.338,,0,13,13,20,1,U,space,,,,,,,,,,
,,,,,R_49ojbe481GcNvdn,001,2025-07-31_12h43.16.314,continuous_performance_test,2024.2.4,Win32,59.52380952,e4edd504-f738-4b89-9cfb-7ce6b354e8f2,4,263.1741,264.8197,space,1,0.6348,,0,14,14,13,1,N,space,,,,,,,,,,
,,,,,R_49ojbe481GcNvdn,001,2025-07-31_12h43.16.314,continuous_performance_test,2024.2.4,Win32,59.52380952,e4edd504-f738-4b89-9cfb-7ce6b354e8f2,4,264.8225,266.6194,space,0,0.3158,,0,15,15,26,1,X,,,,,,,,,,,
,,,,,R_49ojbe481GcNvdn,001,2025-07-31_12h43.16.314,continuous_performance_test,2024.2.4,Win32,59.52380952,e4edd504-f738-4b89-9cfb-7ce6b354e8f2,4,266.6227,268.4199,space,1,0.4359,,0,16,16,10,1,K,space,,,,,,,,,,
,,,,,R_49ojbe481GcNvdn,001,2025-07-31_12h43.16.314,continuous_performance_test,2024.2.4,Win32,59.52380952,e4edd504-f738-4b89-9cfb-7ce6b354e8f2,4,268.423,270.0696,space,1,0.2682,,0,17,17,8,1,I,space,,,,,,,,,,
,,,,,R_49ojbe481GcNvdn,001,2025-07-31_12h43.16.314,continuous_performance_test,2024.2.4,Win32,59.52380952,e4edd504-f738-4b89-9cfb-7ce6b354e8f2,4,270.0726,272.0106,space,1,0.3395,,0,18,18,19,1,T,space,,,,,,,,,,
,,,,,R_49ojbe481GcNvdn,001,2025-07-31_12h43.16.314,continuous_performance_test,2024.2.4,Win32,59.52380952,e4edd504-f738-4b89-9cfb-7ce6b354e8f2,4,272.0136,273.5526,space,1,0.3407,,0,19,19,12,1,M,space,,,,,,,,,,
,,,,,R_49ojbe481GcNvdn,001,2025-07-31_12h43.16.314,continuous_performance_test,2024.2.4,Win32,59.52380952,e4edd504-f738-4b89-9cfb-7ce6b354e8f2,4,273.5558,275.5027,space,1,0.3832,,0,20,20,5,1,F,space,,,,,,,,,,
,,,,,R_49ojbe481GcNvdn,001,2025-07-31_12h43.16.314,continuous_performance_test,2024.2.4,Win32,59.52380952,e4edd504-f738-4b89-9cfb-7ce6b354e8f2,4,275.5057,277.0523,space,1,0.3851,,0,21,21,0,1,A,space,,,,,,,,,,
,,,,,R_49ojbe481GcNvdn,001,2025-07-31_12h43.16.314,continuous_performance_test,2024.2.4,Win32,59.52380952,e4edd504-f738-4b89-9cfb-7ce6b354e8f2,4,277.055,278.8528,space,1,0.3357,,0,22,22,11,1,L,space,,,,,,,,,,
,,,,,R_49ojbe481GcNvdn,001,2025-07-31_12h43.16.314,continuous_performance_test,2024.2.4,Win32,59.52380952,e4edd504-f738-4b89-9cfb-7ce6b354e8f2,4,278.8562,280.7528,space,1,0.3016,,0,23,23,21,1,V,space,,,,,,,,,,
,,,,,R_49ojbe481GcNvdn,001,2025-07-31_12h43.16.314,continuous_performance_test,2024.2.4,Win32,59.52380952,e4edd504-f738-4b89-9cfb-7ce6b354e8f2,4,280.7557,282.6028,,1,,,0,24,24,28,1,X,,,,,,,,,,,
,,,,,R_49ojbe481GcNvdn,001,2025-07-31_12h43.16.314,continuous_performance_test,2024.2.4,Win32,59.52380952,e4edd504-f738-4b89-9cfb-7ce6b354e8f2,4,282.6064,284.4027,space,1,0.3688,,0,25,25,24,1,Z,space,,,,,,,,,,
,,,,,R_49ojbe481GcNvdn,001,2025-07-31_12h43.16.314,continuous_performance_test,2024.2.4,Win32,59.52380952,e4edd504-f738-4b89-9cfb-7ce6b354e8f2,4,284.406,286.0526,space,1,0.7182,,0,26,26,22,1,W,space,,,,,,,,,,
,,,,,R_49ojbe481GcNvdn,001,2025-07-31_12h43.16.314,continuous_performance_test,2024.2.4,Win32,59.52380952,e4edd504-f738-4b89-9cfb-7ce6b354e8f2,4,286.0562,287.7027,space,1,0.318,,0,27,27,3,1,D,space,,,,,,,,,,
,,,,,R_49ojbe481GcNvdn,001,2025-07-31_12h43.16.314,continuous_performance_test,2024.2.4,Win32,59.52380952,e4edd504-f738-4b89-9cfb-7ce6b354e8f2,4,287.7059,289.7025,space,1,0.286,,0,28,28,15,1,P,space,,,,,,,,,,
,,,,,R_49ojbe481GcNvdn,001,2025-07-31_12h43.16.314,continuous_performance_test,2024.2.4,Win32,59.52380952,e4edd504-f738-4b89-9cfb-7ce6b354e8f2,4,289.7052,291.2523,space,1,0.3677,,0,29,29,6,1,G,space,,,,,,,,,,
,,,,,R_49ojbe481GcNvdn,001,2025-07-31_12h43.16.314,continuous_performance_test,2024.2.4,Win32,59.52380952,e4edd504-f738-4b89-9cfb-7ce6b354e8f2,4,294.7473,296.5861,space,1,0.3075,,0,0,0,19,1,T,space,291.2551,294.7361,space,3.4501,,,,,,
,,,,,R_49ojbe481GcNvdn,001,2025-07-31_12h43.16.314,continuous_performance_test,2024.2.4,Win32,59.52380952,e4edd504-f738-4b89-9cfb-7ce6b354e8f2,4,296.5896,298.1858,space,1,0.2843,,0,1,1,7,1,H,space,,,,,,,,,,
,,,,,R_49ojbe481GcNvdn,001,2025-07-31_12h43.16.314,continuous_performance_test,2024.2.4,Win32,59.52380952,e4edd504-f738-4b89-9cfb-7ce6b354e8f2,4,298.1885,299.8359,space,1,0.2561,,0,2,2,4,1,E,space,,,,,,,,,,
,,,,,R_49ojbe481GcNvdn,001,2025-07-31_12h43.16.314,continuous_performance_test,2024.2.4,Win32,59.52380952,e4edd504-f738-4b89-9cfb-7ce6b354e8f2,4,299.8383,301.7354,space,1,0.2539,,0,3,3,23,1,Y,space,,,,,,,,,,
,,,,,R_49ojbe481GcNvdn,001,2025-07-31_12h43.16.314,continuous_performance_test,2024.2.4,Win32,59.52380952,e4edd504-f738-4b89-9cfb-7ce6b354e8f2,4,301.738,303.5356,space,1,0.2848,,0,4,4,24,1,Z,space,,,,,,,,,,
,,,,,R_49ojbe481GcNvdn,001,2025-07-31_12h43.16.314,continuous_performance_test,2024.2.4,Win32,59.52380952,e4edd504-f738-4b89-9cfb-7ce6b354e8f2,4,303.5384,305.4858,space,1,0.3012,,0,5,5,18,1,S,space,,,,,,,,,,
,,,,,R_49ojbe481GcNvdn,001,2025-07-31_12h43.16.314,continuous_performance_test,2024.2.4,Win32,59.52380952,e4edd504-f738-4b89-9cfb-7ce6b354e8f2,4,305.4889,307.2356,space,1,0.2957,,0,6,6,8,1,I,space,,,,,,,,,,
,,,,,R_49ojbe481GcNvdn,001,2025-07-31_12h43.16.314,continuous_performance_test,2024.2.4,Win32,59.52380952,e4edd504-f738-4b89-9cfb-7ce6b354e8f2,4,307.2389,309.1852,space,1,0.2702,,0,7,7,21,1,V,space,,,,,,,,,,
,,,,,R_49ojbe481GcNvdn,001,2025-07-31_12h43.16.314,continuous_performance_test,2024.2.4,Win32,59.52380952,e4edd504-f738-4b89-9cfb-7ce6b354e8f2,4,309.1878,311.0856,space,1,0.2816,,0,8,8,14,1,O,space,,,,,,,,,,
,,,,,R_49ojbe481GcNvdn,001,2025-07-31_12h43.16.314,continuous_performance_test,2024.2.4,Win32,59.52380952,e4edd504-f738-4b89-9cfb-7ce6b354e8f2,4,311.089,313.0356,space,1,0.3376,,0,9,9,9,1,J,space,,,,,,,,,,
,,,,,R_49ojbe481GcNvdn,001,2025-07-31_12h43.16.314,continuous_performance_test,2024.2.4,Win32,59.52380952,e4edd504-f738-4b89-9cfb-7ce6b354e8f2,4,313.0385,314.8355,space,0,0.298,,0,10,10,29,1,X,,,,,,,,,,,
,,,,,R_49ojbe481GcNvdn,001,2025-07-31_12h43.16.314,continuous_performance_test,2024.2.4,Win32,59.52380952,e4edd504-f738-4b89-9cfb-7ce6b354e8f2,4,314.8391,316.6353,space,1,0.3515,,0,11,11,2,1,C,space,,,,,,,,,,
,,,,,R_49ojbe481GcNvdn,001,2025-07-31_12h43.16.314,continuous_performance_test,2024.2.4,Win32,59.52380952,e4edd504-f738-4b89-9cfb-7ce6b354e8f2,4,316.6385,318.3356,space,1,0.3024,,0,12,12,3,1,D,space,,,,,,,,,,
,,,,,R_49ojbe481GcNvdn,001,2025-07-31_12h43.16.314,continuous_performance_test,2024.2.4,Win32,59.52380952,e4edd504-f738-4b89-9cfb-7ce6b354e8f2,4,318.3384,320.0856,space,1,0.2696,,0,13,13,16,1,Q,space,,,,,,,,,,
,,,,,R_49ojbe481GcNvdn,001,2025-07-31_12h43.16.314,continuous_performance_test,2024.2.4,Win32,59.52380952,e4edd504-f738-4b89-9cfb-7ce6b354e8f2,4,320.0886,321.6857,space,1,0.2887,,0,14,14,13,1,N,space,,,,,,,,,,
,,,,,R_49ojbe481GcNvdn,001,2025-07-31_12h43.16.314,continuous_performance_test,2024.2.4,Win32,59.52380952,e4edd504-f738-4b89-9cfb-7ce6b354e8f2,4,321.6887,323.4355,space,1,0.2678,,0,15,15,22,1,W,space,,,,,,,,,,
,,,,,R_49ojbe481GcNvdn,001,2025-07-31_12h43.16.314,continuous_performance_test,2024.2.4,Win32,59.52380952,e4edd504-f738-4b89-9cfb-7ce6b354e8f2,4,323.4388,325.1355,space,1,0.2681,,0,16,16,17,1,R,space,,,,,,,,,,
,,,,,R_49ojbe481GcNvdn,001,2025-07-31_12h43.16.314,continuous_performance_test,2024.2.4,Win32,59.52380952,e4edd504-f738-4b89-9cfb-7ce6b354e8f2,4,325.138,326.9848,space,1,0.2556,,0,17,17,5,1,F,space,,,,,,,,,,
,,,,,R_49ojbe481GcNvdn,001,2025-07-31_12h43.16.314,continuous_performance_test,2024.2.4,Win32,59.52380952,e4edd504-f738-4b89-9cfb-7ce6b354e8f2,4,326.9872,328.9284,space,0,0.273,,0,18,18,28,1,X,,,,,,,,,,,
,,,,,R_49ojbe481GcNvdn,001,2025-07-31_12h43.16.314,continuous_performance_test,2024.2.4,Win32,59.52380952,e4edd504-f738-4b89-9cfb-7ce6b354e8f2,4,328.9308,330.6182,space,1,0.2658,,0,19,19,0,1,A,space,,,,,,,,,,
,,,,,R_49ojbe481GcNvdn,001,2025-07-31_12h43.16.314,continuous_performance_test,2024.2.4,Win32,59.52380952,e4edd504-f738-4b89-9cfb-7ce6b354e8f2,4,330.621,332.4187,space,0,0.2697,,0,20,20,25,1,X,,,,,,,,,,,
,,,,,R_49ojbe481GcNvdn,001,2025-07-31_12h43.16.314,continuous_performance_test,2024.2.4,Win32,59.52380952,e4edd504-f738-4b89-9cfb-7ce6b354e8f2,4,332.4214,334.3619,space,1,0.3171,,0,21,21,15,1,P,space,,,,,,,,,,
,,,,,R_49ojbe481GcNvdn,001,2025-07-31_12h43.16.314,continuous_performance_test,2024.2.4,Win32,59.52380952,e4edd504-f738-4b89-9cfb-7ce6b354e8f2,4,334.3646,336.352,space,0,0.2551,,0,22,22,26,1,X,,,,,,,,,,,
,,,,,R_49ojbe481GcNvdn,001,2025-07-31_12h43.16.314,continuous_performance_test,2024.2.4,Win32,59.52380952,e4edd504-f738-4b89-9cfb-7ce6b354e8f2,4,336.355,338.2523,space,1,0.2525,,0,23,23,12,1,M,space,,,,,,,,,,
,,,,,R_49ojbe481GcNvdn,001,2025-07-31_12h43.16.314,continuous_performance_test,2024.2.4,Win32,59.52380952,e4edd504-f738-4b89-9cfb-7ce6b354e8f2,4,338.255,339.902,space,1,0.3348,,0,24,24,6,1,G,space,,,,,,,,,,
,,,,,R_49ojbe481GcNvdn,001,2025-07-31_12h43.16.314,continuous_performance_test,2024.2.4,Win32,59.52380952,e4edd504-f738-4b89-9cfb-7ce6b354e8f2,4,339.9051,341.8518,space,1,0.2785,,0,25,25,20,1,U,space,,,,,,,,,,
,,,,,R_49ojbe481GcNvdn,001,2025-07-31_12h43.16.314,continuous_performance_test,2024.2.4,Win32,59.52380952,e4edd504-f738-4b89-9cfb-7ce6b354e8f2,4,341.8542,343.7516,space,1,0.3814,,0,26,26,10,1,K,space,,,,,,,,,,
,,,,,R_49ojbe481GcNvdn,001,2025-07-31_12h43.16.314,continuous_performance_test,2024.2.4,Win32,59.52380952,e4edd504-f738-4b89-9cfb-7ce6b354e8f2,4,343.7542,345.7516,space,1,0.3682,,0,27,27,11,1,L,space,,,,,,,,,,
,,,,,R_49ojbe481GcNvdn,001,2025-07-31_12h43.16.314,continuous_performance_test,2024.2.4,Win32,59.52380952,e4edd504-f738-4b89-9cfb-7ce6b354e8f2,4,345.7543,347.502,space,1,0.5221,,0,28,28,1,1,B,space,,,,,,,,,,
,,,,,R_49ojbe481GcNvdn,001,2025-07-31_12h43.16.314,continuous_performance_test,2024.2.4,Win32,59.52380952,e4edd504-f738-4b89-9cfb-7ce6b354e8f2,4,347.5054,349.0517,,1,,,0,29,29,27,1,X,,,,,,,,,,,
,,,,,R_49ojbe481GcNvdn,001,2025-07-31_12h43.16.314,continuous_performance_test,2024.2.4,Win32,59.52380952,e4edd504-f738-4b89-9cfb-7ce6b354e8f2,4,350.8782,352.7685,space,0,0.3692,,0,0,0,28,1,X,,349.0542,350.8687,space,1.7835,,,,,,
,,,,,R_49ojbe481GcNvdn,001,2025-07-31_12h43.16.314,continuous_performance_test,2024.2.4,Win32,59.52380952,e4edd504-f738-4b89-9cfb-7ce6b354e8f2,4,352.7718,354.5184,space,1,0.3853,,0,1,1,0,1,A,space,,,,,,,,,,
,,,,,R_49ojbe481GcNvdn,001,2025-07-31_12h43.16.314,continuous_performance_test,2024.2.4,Win32,59.52380952,e4edd504-f738-4b89-9cfb-7ce6b354e8f2,4,354.5214,356.1684,space,1,0.2379,,0,2,2,15,1,P,space,,,,,,,,,,
,,,,,R_49ojbe481GcNvdn,001,2025-07-31_12h43.16.314,continuous_performance_test,2024.2.4,Win32,59.52380952,e4edd504-f738-4b89-9cfb-7ce6b354e8f2,4,356.1715,357.7185,space,1,0.2724,,0,3,3,9,1,J,space,,,,,,,,,,
,,,,,R_49ojbe481GcNvdn,001,2025-07-31_12h43.16.314,continuous_performance_test,2024.2.4,Win32,59.52380952,e4edd504-f738-4b89-9cfb-7ce6b354e8f2,4,357.7214,359.3185,,1,,,0,4,4,25,1,X,,,,,,,,,,,
,,,,,R_49ojbe481GcNvdn,001,2025-07-31_12h43.16.314,continuous_performance_test,2024.2.4,Win32,59.52380952,e4edd504-f738-4b89-9cfb-7ce6b354e8f2,4,359.3216,361.2185,space,1,0.2486,,0,5,5,18,1,S,space,,,,,,,,,,
,,,,,R_49ojbe481GcNvdn,001,2025-07-31_12h43.16.314,continuous_performance_test,2024.2.4,Win32,59.52380952,e4edd504-f738-4b89-9cfb-7ce6b354e8f2,4,361.2209,363.1184,space,1,0.2831,,0,6,6,6,1,G,space,,,,,,,,,,
,,,,,R_49ojbe481GcNvdn,001,2025-07-31_12h43.16.314,continuous_performance_test,2024.2.4,Win32,59.52380952,e4edd504-f738-4b89-9cfb-7ce6b354e8f2,4,363.1215,365.0182,space,1,0.3007,,0,7,7,2,1,C,space,,,,,,,,,,
,,,,,R_49ojbe481GcNvdn,001,2025-07-31_12h43.16.314,continuous_performance_test,2024.2.4,Win32,59.52380952,e4edd504-f738-4b89-9cfb-7ce6b354e8f2,4,365.0212,366.5683,space,1,0.3015,,0,8,8,4,1,E,space,,,,,,,,,,
,,,,,R_49ojbe481GcNvdn,001,2025-07-31_12h43.16.314,continuous_performance_test,2024.2.4,Win32,59.52380952,e4edd504-f738-4b89-9cfb-7ce6b354e8f2,4,366.5711,368.5182,space,1,0.3682,,0,9,9,20,1,U,space,,,,,,,,,,
,,,,,R_49ojbe481GcNvdn,001,2025-07-31_12h43.16.314,continuous_performance_test,2024.2.4,Win32,59.52380952,e4edd504-f738-4b89-9cfb-7ce6b354e8f2,4,368.5211,370.3182,space,1,0.3195,,0,10,10,3,1,D,space,,,,,,,,,,
,,,,,R_49ojbe481GcNvdn,001,2025-07-31_12h43.16.314,continuous_performance_test,2024.2.4,Win32,59.52380952,e4edd504-f738-4b89-9cfb-7ce6b354e8f2,4,370.3206,372.3181,space,1,0.2695,,0,11,11,22,1,W,space,,,,,,,,,,
,,,,,R_49ojbe481GcNvdn,001,2025-07-31_12h43.16.314,continuous_performance_test,2024.2.4,Win32,59.52380952,e4edd504-f738-4b89-9cfb-7ce6b354e8f2,4,372.3209,374.1182,space,1,0.3007,,0,12,12,7,1,H,space,,,,,,,,,,
,,,,,R_49ojbe481GcNvdn,001,2025-07-31_12h43.16.314,continuous_performance_test,2024.2.4,Win32,59.52380952,e4edd504-f738-4b89-9cfb-7ce6b354e8f2,4,374.1204,375.7182,space,1,0.3186,,0,13,13,1,1,B,space,,,,,,,,,,
,,,,,R_49ojbe481GcNvdn,001,2025-07-31_12h43.16.314,continuous_performance_test,2024.2.4,Win32,59.52380952,e4edd504-f738-4b89-9cfb-7ce6b354e8f2,4,375.7209,377.3675,space,1,0.3499,,0,14,14,13,1,N,space,,,,,,,,,,
,,,,,R_49ojbe481GcNvdn,001,2025-07-31_12h43.16.314,continuous_performance_test,2024.2.4,Win32,59.52380952,e4edd504-f738-4b89-9cfb-7ce6b354e8f2,4,377.3696,378.9178,space,1,0.401,,0,15,15,21,1,V,space,,,,,,,,,,
,,,,,R_49ojbe481GcNvdn,001,2025-07-31_12h43.16.314,continuous_performance_test,2024.2.4,Win32,59.52380952,e4edd504-f738-4b89-9cfb-7ce6b354e8f2,4,378.9198,380.9177,space,1,0.2528,,0,16,16,16,1,Q,space,,,,,,,,,,
,,,,,R_49ojbe481GcNvdn,001,2025-07-31_12h43.16.314,continuous_performance_test,2024.2.4,Win32,59.52380952,e4edd504-f738-4b89-9cfb-7ce6b354e8f2,4,380.9199,382.618,space,1,0.2895,,0,17,17,5,1,F,space,,,,,,,,,,
,,,,,R_49ojbe481GcNvdn,001,2025-07-31_12h43.16.314,continuous_performance_test,2024.2.4,Win32,59.52380952,e4edd504-f738-4b89-9cfb-7ce6b354e8f2,4,382.6205,384.468,space,0,0.2846,,0,18,18,29,1,X,,,,,,,,,,,
,,,,,R_49ojbe481GcNvdn,001,2025-07-31_12h43.16.314,continuous_performance_test,2024.2.4,Win32,59.52380952,e4edd504-f738-4b89-9cfb-7ce6b354e8f2,4,384.4707,386.0179,space,1,0.2904,,0,19,19,23,1,Y,space,,,,,,,,,,
,,,,,R_49ojbe481GcNvdn,001,2025-07-31_12h43.16.314,continuous_performance_test,2024.2.4,Win32,59.52380952,e4edd504-f738-4b89-9cfb-7ce6b354e8f2,4,386.02,387.7681,space,0,0.3255,,0,20,20,27,1,X,,,,,,,,,,,
,,,,,R_49ojbe481GcNvdn,001,2025-07-31_12h43.16.314,continuous_performance_test,2024.2.4,Win32,59.52380952,e4edd504-f738-4b89-9cfb-7ce6b354e8f2,4,387.7707,389.6179,space,1,0.2362,,0,21,21,10,1,K,space,,,,,,,,,,
,,,,,R_49ojbe481GcNvdn,001,2025-07-31_12h43.16.314,continuous_performance_test,2024.2.4,Win32,59.52380952,e4edd504-f738-4b89-9cfb-7ce6b354e8f2,4,389.6205,391.4176,space,1,0.3373,,0,22,22,17,1,R,space,,,,,,,,,,
,,,,,R_49ojbe481GcNvdn,001,2025-07-31_12h43.16.314,continuous_performance_test,2024.2.4,Win32,59.52380952,e4edd504-f738-4b89-9cfb-7ce6b354e8f2,4,391.4201,393.1174,space,0,0.2386,,0,23,23,26,1,X,,,,,,,,,,,
,,,,,R_49ojbe481GcNvdn,001,2025-07-31_12h43.16.314,continuous_performance_test,2024.2.4,Win32,59.52380952,e4edd504-f738-4b89-9cfb-7ce6b354e8f2,4,393.1199,394.8177,space,1,0.282,,0,24,24,14,1,O,space,,,,,,,,,,
,,,,,R_49ojbe481GcNvdn,001,2025-07-31_12h43.16.314,continuous_performance_test,2024.2.4,Win32,59.52380952,e4edd504-f738-4b89-9cfb-7ce6b354e8f2,4,394.8205,396.4178,space,1,0.2988,,0,25,25,24,1,Z,space,,,,,,,,,,
,,,,,R_49ojbe481GcNvdn,001,2025-07-31_12h43.16.314,continuous_performance_test,2024.2.4,Win32,59.52380952,e4edd504-f738-4b89-9cfb-7ce6b354e8f2,4,396.4207,398.3177,space,1,0.272,,0,26,26,11,1,L,space,,,,,,,,,,
,,,,,R_49ojbe481GcNvdn,001,2025-07-31_12h43.16.314,continuous_performance_test,2024.2.4,Win32,59.52380952,e4edd504-f738-4b89-9cfb-7ce6b354e8f2,4,398.3202,399.8679,space,1,0.3041,,0,27,27,19,1,T,space,,,,,,,,,,
,,,,,R_49ojbe481GcNvdn,001,2025-07-31_12h43.16.314,continuous_performance_test,2024.2.4,Win32,59.52380952,e4edd504-f738-4b89-9cfb-7ce6b354e8f2,4,399.8707,401.4181,space,1,0.3208,,0,28,28,8,1,I,space,,,,,,,,,,
,,,,,R_49ojbe481GcNvdn,001,2025-07-31_12h43.16.314,continuous_performance_test,2024.2.4,Win32,59.52380952,e4edd504-f738-4b89-9cfb-7ce6b354e8f2,4,401.4214,403.3679,space,1,0.5019,,0,29,29,12,1,M,space,,,,,,,,,,
,,,,,R_49ojbe481GcNvdn,001,2025-07-31_12h43.16.314,continuous_performance_test,2024.2.4,Win32,59.52380952,e4edd504-f738-4b89-9cfb-7ce6b354e8f2,4,404.1112,406.0511,space,1,0.3181,,0,0,0,14,1,O,space,403.3702,404.101,space,0.7014,,,,,,
,,,,,R_49ojbe481GcNvdn,001,2025-07-31_12h43.16.314,continuous_performance_test,2024.2.4,Win32,59.52380952,e4edd504-f738-4b89-9cfb-7ce6b354e8f2,4,406.0539,407.6508,space,1,0.3065,,0,1,1,19,1,T,space,,,,,,,,,,
,,,,,R_49ojbe481GcNvdn,001,2025-07-31_12h43.16.314,continuous_performance_test,2024.2.4,Win32,59.52380952,e4edd504-f738-4b89-9cfb-7ce6b354e8f2,4,407.6539,409.651,space,1,0.3064,,0,2,2,17,1,R,space,,,,,,,,,,
,,,,,R_49ojbe481GcNvdn,001,2025-07-31_12h43.16.314,continuous_performance_test,2024.2.4,Win32,59.52380952,e4edd504-f738-4b89-9cfb-7ce6b354e8f2,4,409.6539,411.551,space,1,0.2844,,0,3,3,8,1,I,space,,,,,,,,,,
,,,,,R_49ojbe481GcNvdn,001,2025-07-31_12h43.16.314,continuous_performance_test,2024.2.4,Win32,59.52380952,e4edd504-f738-4b89-9cfb-7ce6b354e8f2,4,411.5537,413.5013,space,1,0.2855,,0,4,4,18,1,S,space,,,,,,,,,,
,,,,,R_49ojbe481GcNvdn,001,2025-07-31_12h43.16.314,continuous_performance_test,2024.2.4,Win32,59.52380952,e4edd504-f738-4b89-9cfb-7ce6b354e8f2,4,413.5041,415.401,space,1,0.2719,,0,5,5,4,1,E,space,,,,,,,,,,
,,,,,R_49ojbe481GcNvdn,001,2025-07-31_12h43.16.314,continuous_performance_test,2024.2.4,Win32,59.52380952,e4edd504-f738-4b89-9cfb-7ce6b354e8f2,4,415.404,417.351,space,1,0.4053,,0,6,6,20,1,U,space,,,,,,,,,,
,,,,,R_49ojbe481GcNvdn,001,2025-07-31_12h43.16.314,continuous_performance_test,2024.2.4,Win32,59.52380952,e4edd504-f738-4b89-9cfb-7ce6b354e8f2,4,417.354,419.1011,space,1,0.3865,,0,7,7,22,1,W,space,,,,,,,,,,
,,,,,R_49ojbe481GcNvdn,001,2025-07-31_12h43.16.314,continuous_performance_test,2024.2.4,Win32,59.52380952,e4edd504-f738-4b89-9cfb-7ce6b354e8f2,4,419.1042,421.101,space,1,0.3986,,0,8,8,23,1,Y,space,,,,,,,,,,
,,,,,R_49ojbe481GcNvdn,001,2025-07-31_12h43.16.314,continuous_performance_test,2024.2.4,Win32,59.52380952,e4edd504-f738-4b89-9cfb-7ce6b354e8f2,4,421.1039,422.6509,space,1,0.4047,,0,9,9,11,1,L,space,,,,,,,,,,
,,,,,R_49ojbe481GcNvdn,001,2025-07-31_12h43.16.314,continuous_performance_test,2024.2.4,Win32,59.52380952,e4edd504-f738-4b89-9cfb-7ce6b354e8f2,4,422.654,424.2509,space,1,0.3679,,0,10,10,7,1,H,space,,,,,,,,,,
,,,,,R_49ojbe481GcNvdn,001,2025-07-31_12h43.16.314,continuous_performance_test,2024.2.4,Win32,59.52380952,e4edd504-f738-4b89-9cfb-7ce6b354e8f2,4,424.2542,426.0105,space,1,0.3909,,0,11,11,2,1,C,space,,,,,,,,,,
,,,,,R_49ojbe481GcNvdn,001,2025-07-31_12h43.16.314,continuous_performance_test,2024.2.4,Win32,59.52380952,e4edd504-f738-4b89-9cfb-7ce6b354e8f2,4,426.0134,427.7006,space,1,0.332,,0,12,12,5,1,F,space,,,,,,,,,,
,,,,,R_49ojbe481GcNvdn,001,2025-07-31_12h43.16.314,continuous_performance_test,2024.2.4,Win32,59.52380952,e4edd504-f738-4b89-9cfb-7ce6b354e8f2,4,427.703,429.6007,space,0,0.335,,0,13,13,26,1,X,,,,,,,,,,,
,,,,,R_49ojbe481GcNvdn,001,2025-07-31_12h43.16.314,continuous_performance_test,2024.2.4,Win32,59.52380952,e4edd504-f738-4b89-9cfb-7ce6b354e8f2,4,429.6041,431.4507,space,1,0.2665,,0,14,14,1,1,B,space,,,,,,,,,,
,,,,,R_49ojbe481GcNvdn,001,2025-07-31_12h43.16.314,continuous_performance_test,2024.2.4,Win32,59.52380952,e4edd504-f738-4b89-9cfb-7ce6b354e8f2,4,431.4538,433.1008,,1,,,0,15,15,25,1,X,,,,,,,,,,,
,,,,,R_49ojbe481GcNvdn,001,2025-07-31_12h43.16.314,continuous_performance_test,2024.2.4,Win32,59.52380952,e4edd504-f738-4b89-9cfb-7ce6b354e8f2,4,433.1038,434.7507,space,1,0.2516,,0,16,16,9,1,J,space,,,,,,,,,,
,,,,,R_49ojbe481GcNvdn,001,2025-07-31_12h43.16.314,continuous_performance_test,2024.2.4,Win32,59.52380952,e4edd504-f738-4b89-9cfb-7ce6b354e8f2,4,434.7539,436.5507,space,1,0.3041,,0,17,17,10,1,K,space,,,,,,,,,,
,,,,,R_49ojbe481GcNvdn,001,2025-07-31_12h43.16.314,continuous_performance_test,2024.2.4,Win32,59.52380952,e4edd504-f738-4b89-9cfb-7ce6b354e8f2,4,436.5542,438.3007,space,1,0.2547,,0,18,18,16,1,Q,space,,,,,,,,,,
,,,,,R_49ojbe481GcNvdn,001,2025-07-31_12h43.16.314,continuous_performance_test,2024.2.4,Win32,59.52380952,e4edd504-f738-4b89-9cfb-7ce6b354e8f2,4,438.3038,440.3009,space,1,0.3226,,0,19,19,3,1,D,space,,,,,,,,,,
,,,,,R_49ojbe481GcNvdn,001,2025-07-31_12h43.16.314,continuous_performance_test,2024.2.4,Win32,59.52380952,e4edd504-f738-4b89-9cfb-7ce6b354e8f2,4,440.3041,442.0507,space,0,0.2691,,0,20,20,28,1,X,,,,,,,,,,,
,,,,,R_49ojbe481GcNvdn,001,2025-07-31_12h43.16.314,continuous_performance_test,2024.2.4,Win32,59.52380952,e4edd504-f738-4b89-9cfb-7ce6b354e8f2,4,442.0536,444.0006,space,1,0.3034,,0,21,21,13,1,N,space,,,,,,,,,,
,,,,,R_49ojbe481GcNvdn,001,2025-07-31_12h43.16.314,continuous_performance_test,2024.2.4,Win32,59.52380952,e4edd504-f738-4b89-9cfb-7ce6b354e8f2,4,444.0045,445.75,space,1,0.3853,,0,22,22,12,1,M,space,,,,,,,,,,
,,,,,R_49ojbe481GcNvdn,001,2025-07-31_12h43.16.314,continuous_performance_test,2024.2.4,Win32,59.52380952,e4edd504-f738-4b89-9cfb-7ce6b354e8f2,4,445.7529,447.3498,space,1,0.3344,,0,23,23,0,1,A,space,,,,,,,,,,
,,,,,R_49ojbe481GcNvdn,001,2025-07-31_12h43.16.314,continuous_performance_test,2024.2.4,Win32,59.52380952,e4edd504-f738-4b89-9cfb-7ce6b354e8f2,4,447.352,449.0005,space,1,0.3204,,0,24,24,24,1,Z,space,,,,,,,,,,
,,,,,R_49ojbe481GcNvdn,001,2025-07-31_12h43.16.314,continuous_performance_test,2024.2.4,Win32,59.52380952,e4edd504-f738-4b89-9cfb-7ce6b354e8f2,4,449.0033,450.6502,space,1,0.2859,,0,25,25,15,1,P,space,,,,,,,,,,
,,,,,R_49ojbe481GcNvdn,001,2025-07-31_12h43.16.314,continuous_performance_test,2024.2.4,Win32,59.52380952,e4edd504-f738-4b89-9cfb-7ce6b354e8f2,4,450.6528,452.3002,,1,,,0,26,26,29,1,X,,,,,,,,,,,
,,,,,R_49ojbe481GcNvdn,001,2025-07-31_12h43.16.314,continuous_performance_test,2024.2.4,Win32,59.52380952,e4edd504-f738-4b89-9cfb-7ce6b354e8f2,4,452.3022,454.1505,space,1,0.3187,,0,27,27,6,1,G,space,,,,,,,,,,
,,,,,R_49ojbe481GcNvdn,001,2025-07-31_12h43.16.314,continuous_performance_test,2024.2.4,Win32,59.52380952,e4edd504-f738-4b89-9cfb-7ce6b354e8f2,4,454.1539,455.7002,space,1,0.3198,,0,28,28,21,1,V,space,,,,,,,,,,
,,,,,R_49ojbe481GcNvdn,001,2025-07-31_12h43.16.314,continuous_performance_test,2024.2.4,Win32,59.52380952,e4edd504-f738-4b89-9cfb-7ce6b354e8f2,4,455.7025,457.4004,,1,,,0,29,29,27,1,X,,,,,,,,,,,
,,,,,R_49ojbe481GcNvdn,001,2025-07-31_12h43.16.314,continuous_performance_test,2024.2.4,Win32,59.52380952,e4edd504-f738-4b89-9cfb-7ce6b354e8f2,4,458.1095,459.9002,space,1,0.224,,0,0,0,14,1,O,space,457.4024,458.1003,space,0.6692,,,,,,
,,,,,R_49ojbe481GcNvdn,001,2025-07-31_12h43.16.314,continuous_performance_test,2024.2.4,Win32,59.52380952,e4edd504-f738-4b89-9cfb-7ce6b354e8f2,4,459.9031,461.8003,space,1,0.3346,,0,1,1,22,1,W,space,,,,,,,,,,
,,,,,R_49ojbe481GcNvdn,001,2025-07-31_12h43.16.314,continuous_performance_test,2024.2.4,Win32,59.52380952,e4edd504-f738-4b89-9cfb-7ce6b354e8f2,4,461.8031,463.4499,space,1,0.2874,,0,2,2,23,1,Y,space,,,,,,,,,,
,,,,,R_49ojbe481GcNvdn,001,2025-07-31_12h43.16.314,continuous_performance_test,2024.2.4,Win32,59.52380952,e4edd504-f738-4b89-9cfb-7ce6b354e8f2,4,463.4521,465.2499,space,1,0.3181,,0,3,3,4,1,E,space,,,,,,,,,,
,,,,,R_49ojbe481GcNvdn,001,2025-07-31_12h43.16.314,continuous_performance_test,2024.2.4,Win32,59.52380952,e4edd504-f738-4b89-9cfb-7ce6b354e8f2,4,465.252,466.7933,space,1,0.2713,,0,4,4,0,1,A,space,,,,,,,,,,
,,,,,R_49ojbe481GcNvdn,001,2025-07-31_12h43.16.314,continuous_performance_test,2024.2.4,Win32,59.52380952,e4edd504-f738-4b89-9cfb-7ce6b354e8f2,4,466.7959,468.7334,space,1,0.3006,,0,5,5,6,1,G,space,,,,,,,,,,
,,,,,R_49ojbe481GcNvdn,001,2025-07-31_12h43.16.314,continuous_performance_test,2024.2.4,Win32,59.52380952,e4edd504-f738-4b89-9cfb-7ce6b354e8f2,4,468.7365,470.4335,space,1,0.3175,,0,6,6,16,1,Q,space,,,,,,,,,,
,,,,,R_49ojbe481GcNvdn,001,2025-07-31_12h43.16.314,continuous_performance_test,2024.2.4,Win32,59.52380952,e4edd504-f738-4b89-9cfb-7ce6b354e8f2,4,470.4365,472.2833,space,1,0.2844,,0,7,7,13,1,N,space,,,,,,,,,,
,,,,,R_49ojbe481GcNvdn,001,2025-07-31_12h43.16.314,continuous_performance_test,2024.2.4,Win32,59.52380952,e4edd504-f738-4b89-9cfb-7ce6b354e8f2,4,472.2856,474.0834,space,1,0.3354,,0,8,8,5,1,F,space,,,,,,,,,,
,,,,,R_49ojbe481GcNvdn,001,2025-07-31_12h43.16.314,continuous_performance_test,2024.2.4,Win32,59.52380952,e4edd504-f738-4b89-9cfb-7ce6b354e8f2,4,474.0867,476.0835,space,1,0.4183,,0,9,9,9,1,J,space,,,,,,,,,,
,,,,,R_49ojbe481GcNvdn,001,2025-07-31_12h43.16.314,continuous_performance_test,2024.2.4,Win32,59.52380952,e4edd504-f738-4b89-9cfb-7ce6b354e8f2,4,476.0866,477.9833,space,1,0.3507,,0,10,10,7,1,H,space,,,,,,,,,,
,,,,,R_49ojbe481GcNvdn,001,2025-07-31_12h43.16.314,continuous_performance_test,2024.2.4,Win32,59.52380952,e4edd504-f738-4b89-9cfb-7ce6b354e8f2,4,477.9864,479.5331,space,1,0.3414,,0,11,11,17,1,R,space,,,,,,,,,,
,,,,,R_49ojbe481GcNvdn,001,2025-07-31_12h43.16.314,continuous_performance_test,2024.2.4,Win32,59.52380952,e4edd504-f738-4b89-9cfb-7ce6b354e8f2,4,479.536,481.2333,space,1,0.3163,,0,12,12,2,1,C,space,,,,,,,,,,
,,,,,R_49ojbe481GcNvdn,001,2025-07-31_12h43.16.314,continuous_performance_test,2024.2.4,Win32,59.52380952,e4edd504-f738-4b89-9cfb-7ce6b354e8f2,4,481.2365,482.9332,space,1,0.2734,,0,13,13,24,1,Z,space,,,,,,,,,,
,,,,,R_49ojbe481GcNvdn,001,2025-07-31_12h43.16.314,continuous_performance_test,2024.2.4,Win32,59.52380952,e4edd504-f738-4b89-9cfb-7ce6b354e8f2,4,482.9357,484.6832,space,1,0.3365,,0,14,14,10,1,K,space,,,,,,,,,,
,,,,,R_49ojbe481GcNvdn,001,2025-07-31_12h43.16.314,continuous_performance_test,2024.2.4,Win32,59.52380952,e4edd504-f738-4b89-9cfb-7ce6b354e8f2,4,484.6854,486.3333,space,0,0.3398,,0,15,15,28,1,X,,,,,,,,,,,
,,,,,R_49ojbe481GcNvdn,001,2025-07-31_12h43.16.314,continuous_performance_test,2024.2.4,Win32,59.52380952,e4edd504-f738-4b89-9cfb-7ce6b354e8f2,4,486.336,488.3331,space,1,0.2724,,0,16,16,18,1,S,space,,,,,,,,,,
,,,,,R_49ojbe481GcNvdn,001,2025-07-31_12h43.16.314,continuous_performance_test,2024.2.4,Win32,59.52380952,e4edd504-f738-4b89-9cfb-7ce6b354e8f2,4,488.3355,489.8832,space,1,0.2851,,0,17,17,21,1,V,space,,,,,,,,,,
,,,,,R_49ojbe481GcNvdn,001,2025-07-31_12h43.16.314,continuous_performance_test,2024.2.4,Win32,59.52380952,e4edd504-f738-4b89-9cfb-7ce6b354e8f2,4,489.8859,491.5331,,1,,,0,18,18,25,1,X,,,,,,,,,,,
,,,,,R_49ojbe481GcNvdn,001,2025-07-31_12h43.16.314,continuous_performance_test,2024.2.4,Win32,59.52380952,e4edd504-f738-4b89-9cfb-7ce6b354e8f2,4,491.5359,493.1331,space,1,0.2963,,0,19,19,20,1,U,space,,,,,,,,,,
,,,,,R_49ojbe481GcNvdn,001,2025-07-31_12h43.16.314,continuous_performance_test,2024.2.4,Win32,59.52380952,e4edd504-f738-4b89-9cfb-7ce6b354e8f2,4,493.1359,494.783,space,1,0.3226,,0,20,20,15,1,P,space,,,,,,,,,,
,,,,,R_49ojbe481GcNvdn,001,2025-07-31_12h43.16.314,continuous_performance_test,2024.2.4,Win32,59.52380952,e4edd504-f738-4b89-9cfb-7ce6b354e8f2,4,494.7855,496.333,space,1,0.4239,,0,21,21,11,1,L,space,,,,,,,,,,
,,,,,R_49ojbe481GcNvdn,001,2025-07-31_12h43.16.314,continuous_performance_test,2024.2.4,Win32,59.52380952,e4edd504-f738-4b89-9cfb-7ce6b354e8f2,4,496.3351,497.9332,space,1,0.3586,,0,22,22,1,1,B,space,,,,,,,,,,
,,,,,R_49ojbe481GcNvdn,001,2025-07-31_12h43.16.314,continuous_performance_test,2024.2.4,Win32,59.52380952,e4edd504-f738-4b89-9cfb-7ce6b354e8f2,4,497.9358,499.8333,space,1,0.3532,,0,23,23,8,1,I,space,,,,,,,,,,
,,,,,R_49ojbe481GcNvdn,001,2025-07-31_12h43.16.314,continuous_performance_test,2024.2.4,Win32,59.52380952,e4edd504-f738-4b89-9cfb-7ce6b354e8f2,4,499.8362,501.583,space,1,0.3179,,0,24,24,12,1,M,space,,,,,,,,,,
,,,,,R_49ojbe481GcNvdn,001,2025-07-31_12h43.16.314,continuous_performance_test,2024.2.4,Win32,59.52380952,e4edd504-f738-4b89-9cfb-7ce6b354e8f2,4,501.5852,503.5831,,1,,,0,25,25,26,1,X,,,,,,,,,,,
,,,,,R_49ojbe481GcNvdn,001,2025-07-31_12h43.16.314,continuous_performance_test,2024.2.4,Win32,59.52380952,e4edd504-f738-4b89-9cfb-7ce6b354e8f2,4,503.5858,505.333,space,1,0.2478,,0,26,26,3,1,D,space,,,,,,,,,,
,,,,,R_49ojbe481GcNvdn,001,2025-07-31_12h43.16.314,continuous_performance_test,2024.2.4,Win32,59.52380952,e4edd504-f738-4b89-9cfb-7ce6b354e8f2,4,505.3361,507.2331,,1,,,0,27,27,29,1,X,,,,,,,,,,,
,,,,,R_49ojbe481GcNvdn,001,2025-07-31_12h43.16.314,continuous_performance_test,2024.2.4,Win32,59.52380952,e4edd504-f738-4b89-9cfb-7ce6b354e8f2,4,507.2359,508.9327,space,0,0.3021,,0,28,28,27,1,X,,,,,,,,,,,
,,,,,R_49ojbe481GcNvdn,001,2025-07-31_12h43.16.314,continuous_performance_test,2024.2.4,Win32,59.52380952,e4edd504-f738-4b89-9cfb-7ce6b354e8f2,4,508.9347,510.733,space,1,0.4351,,0,29,29,19,1,T,space,,,,,,,,,,
,,,,,R_49ojbe481GcNvdn,001,2025-07-31_12h43.16.314,continuous_performance_test,2024.2.4,Win32,59.52380952,e4edd504-f738-4b89-9cfb-7ce6b354e8f2,4,511.3928,513.1331,space,1,0.3688,,0,0,0,24,1,Z,space,510.7355,511.3827,space,0.6158,,,,,,
,,,,,R_49ojbe481GcNvdn,001,2025-07-31_12h43.16.314,continuous_performance_test,2024.2.4,Win32,59.52380952,e4edd504-f738-4b89-9cfb-7ce6b354e8f2,4,513.1357,514.9331,space,1,0.2523,,0,1,1,9,1,J,space,,,,,,,,,,
,,,,,R_49ojbe481GcNvdn,001,2025-07-31_12h43.16.314,continuous_performance_test,2024.2.4,Win32,59.52380952,e4edd504-f738-4b89-9cfb-7ce6b354e8f2,4,514.9359,516.6328,space,1,0.2723,,0,2,2,20,1,U,space,,,,,,,,,,
,,,,,R_49ojbe481GcNvdn,001,2025-07-31_12h43.16.314,continuous_performance_test,2024.2.4,Win32,59.52380952,e4edd504-f738-4b89-9cfb-7ce6b354e8f2,4,516.6369,518.4833,space,1,0.2718,,0,3,3,10,1,K,space,,,,,,,,,,
,,,,,R_49ojbe481GcNvdn,001,2025-07-31_12h43.16.314,continuous_performance_test,2024.2.4,Win32,59.52380952,e4edd504-f738-4b89-9cfb-7ce6b354e8f2,4,518.4863,520.3329,space,1,0.3517,,0,4,4,21,1,V,space,,,,,,,,,,
,,,,,R_49ojbe481GcNvdn,001,2025-07-31_12h43.16.314,continuous_performance_test,2024.2.4,Win32,59.52380952,e4edd504-f738-4b89-9cfb-7ce6b354e8f2,4,520.336,522.1328,space,1,0.3341,,0,5,5,22,1,W,space,,,,,,,,,,
,,,,,R_49ojbe481GcNvdn,001,2025-07-31_12h43.16.314,continuous_performance_test,2024.2.4,Win32,59.52380952,e4edd504-f738-4b89-9cfb-7ce6b354e8f2,4,522.1361,523.7828,space,1,0.2829,,0,6,6,1,1,B,space,,,,,,,,,,
,,,,,R_49ojbe481GcNvdn,001,2025-07-31_12h43.16.314,continuous_performance_test,2024.2.4,Win32,59.52380952,e4edd504-f738-4b89-9cfb-7ce6b354e8f2,4,523.7855,525.5827,space,1,0.2877,,0,7,7,17,1,R,space,,,,,,,,,,
,,,,,R_49ojbe481GcNvdn,001,2025-07-31_12h43.16.314,continuous_performance_test,2024.2.4,Win32,59.52380952,e4edd504-f738-4b89-9cfb-7ce6b354e8f2,4,525.5858,527.3329,space,1,0.3025,,0,8,8,12,1,M,space,,,,,,,,,,
,,,,,R_49ojbe481GcNvdn,001,2025-07-31_12h43.16.314,continuous_performance_test,2024.2.4,Win32,59.52380952,e4edd504-f738-4b89-9cfb-7ce6b354e8f2,4,527.3363,528.883,space,1,0.2982,,0,9,9,14,1,O,space,,,,,,,,,,
,,,,,R_49ojbe481GcNvdn,001,2025-07-31_12h43.16.314,continuous_performance_test,2024.2.4,Win32,59.52380952,e4edd504-f738-4b89-9cfb-7ce6b354e8f2,4,528.8858,530.6826,space,1,0.3013,,0,10,10,3,1,D,space,,,,,,,,,,
,,,,,R_49ojbe481GcNvdn,001,2025-07-31_12h43.16.314,continuous_performance_test,2024.2.4,Win32,59.52380952,e4edd504-f738-4b89-9cfb-7ce6b354e8f2,4,530.6862,532.4827,space,1,0.3019,,0,11,11,18,1,S,space,,,,,,,,,,
,,,,,R_49ojbe481GcNvdn,001,2025-07-31_12h43.16.314,continuous_performance_test,2024.2.4,Win32,59.52380952,e4edd504-f738-4b89-9cfb-7ce6b354e8f2,4,532.4859,534.2327,space,1,0.3383,,0,12,12,8,1,I,space,,,,,,,,,,
,,,,,R_49ojbe481GcNvdn,001,2025-07-31_12h43.16.314,continuous_performance_test,2024.2.4,Win32,59.52380952,e4edd504-f738-4b89-9cfb-7ce6b354e8f2,4,534.2362,536.0326,space,1,0.2845,,0,13,13,4,1,E,space,,,,,,,,,,
,,,,,R_49ojbe481GcNvdn,001,2025-07-31_12h43.16.314,continuous_performance_test,2024.2.4,Win32,59.52380952,e4edd504-f738-4b89-9cfb-7ce6b354e8f2,4,536.0361,537.8823,space,1,0.2883,,0,14,14,11,1,L,space,,,,,,,,,,
,,,,,R_49ojbe481GcNvdn,001,2025-07-31_12h43.16.314,continuous_performance_test,2024.2.4,Win32,59.52380952,e4edd504-f738-4b89-9cfb-7ce6b354e8f2,4,537.8845,539.7327,space,1,0.2857,,0,15,15,6,1,G,space,,,,,,,,,,
,,,,,R_49ojbe481GcNvdn,001,2025-07-31_12h43.16.314,continuous_performance_test,2024.2.4,Win32,59.52380952,e4edd504-f738-4b89-9cfb-7ce6b354e8f2,4,539.7358,541.7328,space,1,0.3249,,0,16,16,19,1,T,space,,,,,,,,,,
,,,,,R_49ojbe481GcNvdn,001,2025-07-31_12h43.16.314,continuous_performance_test,2024.2.4,Win32,59.52380952,e4edd504-f738-4b89-9cfb-7ce6b354e8f2,4,541.7358,543.4322,space,0,0.3012,,0,17,17,27,1,X,,,,,,,,,,,
,,,,,R_49ojbe481GcNvdn,001,2025-07-31_12h43.16.314,continuous_performance_test,2024.2.4,Win32,59.52380952,e4edd504-f738-4b89-9cfb-7ce6b354e8f2,4,543.4346,545.2827,space,1,0.3046,,0,18,18,23,1,Y,space,,,,,,,,,,
,,,,,R_49ojbe481GcNvdn,001,2025-07-31_12h43.16.314,continuous_performance_test,2024.2.4,Win32,59.52380952,e4edd504-f738-4b89-9cfb-7ce6b354e8f2,4,545.2858,546.8325,space,1,0.3127,,0,19,19,15,1,P,space,,,,,,,,,,
,,,,,R_49ojbe481GcNvdn,001,2025-07-31_12h43.16.314,continuous_performance_test,2024.2.4,Win32,59.52380952,e4edd504-f738-4b89-9cfb-7ce6b354e8f2,4,546.8356,548.6821,space,1,0.3394,,0,20,20,7,1,H,space,,,,,,,,,,
,,,,,R_49ojbe481GcNvdn,001,2025-07-31_12h43.16.314,continuous_performance_test,2024.2.4,Win32,59.52380952,e4edd504-f738-4b89-9cfb-7ce6b354e8f2,4,548.6848,550.5828,space,0,0.2879,,0,21,21,25,1,X,,,,,,,,,,,
,,,,,R_49ojbe481GcNvdn,001,2025-07-31_12h43.16.314,continuous_performance_test,2024.2.4,Win32,59.52380952,e4edd504-f738-4b89-9cfb-7ce6b354e8f2,4,550.5855,552.3825,,1,,,0,22,22,29,1,X,,,,,,,,,,,
,,,,,R_49ojbe481GcNvdn,001,2025-07-31_12h43.16.314,continuous_performance_test,2024.2.4,Win32,59.52380952,e4edd504-f738-4b89-9cfb-7ce6b354e8f2,4,552.3857,553.9392,space,1,0.2719,,0,23,23,0,1,A,space,,,,,,,,,,
,,,,,R_49ojbe481GcNvdn,001,2025-07-31_12h43.16.314,continuous_performance_test,2024.2.4,Win32,59.52380952,e4edd504-f738-4b89-9cfb-7ce6b354e8f2,4,553.9414,555.5825,space,1,0.2715,,0,24,24,16,1,Q,space,,,,,,,,,,
,,,,,R_49ojbe481GcNvdn,001,2025-07-31_12h43.16.314,continuous_performance_test,2024.2.4,Win32,59.52380952,e4edd504-f738-4b89-9cfb-7ce6b354e8f2,4,555.586,557.4819,space,0,0.2683,,0,25,25,28,1,X,,,,,,,,,,,
,,,,,R_49ojbe481GcNvdn,001,2025-07-31_12h43.16.314,continuous_performance_test,2024.2.4,Win32,59.52380952,e4edd504-f738-4b89-9cfb-7ce6b354e8f2,4,557.4842,559.0826,space,1,0.4019,,0,26,26,13,1,N,space,,,,,,,,,,
,,,,,R_49ojbe481GcNvdn,001,2025-07-31_12h43.16.314,continuous_performance_test,2024.2.4,Win32,59.52380952,e4edd504-f738-4b89-9cfb-7ce6b354e8f2,4,559.0858,561.0824,space,1,0.3045,,0,27,27,5,1,F,space,,,,,,,,,,
,,,,,R_49ojbe481GcNvdn,001,2025-07-31_12h43.16.314,continuous_performance_test,2024.2.4,Win32,59.52380952,e4edd504-f738-4b89-9cfb-7ce6b354e8f2,4,561.0857,563.0322,space,0,0.2819,,0,28,28,26,1,X,,,,,,,,,,,
,,,,,R_49ojbe481GcNvdn,001,2025-07-31_12h43.16.314,continuous_performance_test,2024.2.4,Win32,59.52380952,e4edd504-f738-4b89-9cfb-7ce6b354e8f2,4,563.035,564.5822,space,1,0.5842,,0,29,29,2,1,C,space,,,,,,,,,,
,,,,,R_49ojbe481GcNvdn,001,2025-07-31_12h43.16.314,continuous_performance_test,2024.2.4,Win32,59.52380952,e4edd504-f738-4b89-9cfb-7ce6b354e8f2,4,,,,,,,,,,,,,,564.5847,564.5862,,,,564.5868,577.0552,space,12.4446,
