Instructions.started,Instructions.stopped,key_resp.keys,key_resp.rt,key_resp.duration,participant,session,date,expName,psychopyVersion,OS,frameRate,realeye-tester-id,realeye-tester-quality_grade,Trial_noX.started,Trial_noX.stopped,response.keys,response.corr,trials_noX.thisRepN,trials_noX.thisTrialN,trials_noX.thisN,trials_noX.thisIndex,trials_noX.ran,letter,corrAns,response.rt,response.duration,BlockBreak.started,BlockBreak.stopped,key_instruct.keys,key_instruct.rt,key_instruct.duration,End_NoX.started,End_NoX.stopped,key_resp_end_noX.keys,key_resp_end_noX.rt,key_resp_end_noX.duration
0.0005,26.8427,space,26.7934,,R_49oJeq668XySuxS,001,2025-09-03_11h25.01.477,continuous_performance_test,2024.2.4,Win32,60.60606061,b36053b4-2c63-4717-9399-3ab033b13773,3,,,,,,,,,,,,,,,,,,,,,,,
,,,,,R_49oJeq668XySuxS,001,2025-09-03_11h25.01.477,continuous_performance_test,2024.2.4,Win32,60.60606061,b36053b4-2c63-4717-9399-3ab033b13773,3,26.8601,28.808,,0,0,0,0,15,1,P,space,,,,,,,,,,,,
,,,,,R_49oJeq668XySuxS,001,2025-09-03_11h25.01.477,continuous_performance_test,2024.2.4,Win32,60.60606061,b36053b4-2c63-4717-9399-3ab033b13773,3,28.8116,30.7068,space,1,0,1,1,2,1,C,space,0.6256,,,,,,,,,,,
,,,,,R_49oJeq668XySuxS,001,2025-09-03_11h25.01.477,continuous_performance_test,2024.2.4,Win32,60.60606061,b36053b4-2c63-4717-9399-3ab033b13773,3,30.7078,32.657,space,1,0,2,2,22,1,W,space,0.5422,,,,,,,,,,,
,,,,,R_49oJeq668XySuxS,001,2025-09-03_11h25.01.477,continuous_performance_test,2024.2.4,Win32,60.60606061,b36053b4-2c63-4717-9399-3ab033b13773,3,32.6583,34.3076,space,1,0,3,3,1,1,B,space,0.5033,,,,,,,,,,,
,,,,,R_49oJeq668XySuxS,001,2025-09-03_11h25.01.477,continuous_performance_test,2024.2.4,Win32,60.60606061,b36053b4-2c63-4717-9399-3ab033b13773,3,34.3113,36.257,space,1,0,4,4,11,1,L,space,0.4985,,,,,,,,,,,
,,,,,R_49oJeq668XySuxS,001,2025-09-03_11h25.01.477,continuous_performance_test,2024.2.4,Win32,60.60606061,b36053b4-2c63-4717-9399-3ab033b13773,3,36.2584,38.057,space,1,0,5,5,17,1,R,space,0.5482,,,,,,,,,,,
,,,,,R_49oJeq668XySuxS,001,2025-09-03_11h25.01.477,continuous_performance_test,2024.2.4,Win32,60.60606061,b36053b4-2c63-4717-9399-3ab033b13773,3,38.0612,39.7578,space,1,0,6,6,5,1,F,space,0.4478,,,,,,,,,,,
,,,,,R_49oJeq668XySuxS,001,2025-09-03_11h25.01.477,continuous_performance_test,2024.2.4,Win32,60.60606061,b36053b4-2c63-4717-9399-3ab033b13773,3,39.7622,41.3079,space,1,0,7,7,21,1,V,space,0.3491,,,,,,,,,,,
,,,,,R_49oJeq668XySuxS,001,2025-09-03_11h25.01.477,continuous_performance_test,2024.2.4,Win32,60.60606061,b36053b4-2c63-4717-9399-3ab033b13773,3,41.3118,43.0077,space,1,0,8,8,24,1,Z,space,0.5757,,,,,,,,,,,
,,,,,R_49oJeq668XySuxS,001,2025-09-03_11h25.01.477,continuous_performance_test,2024.2.4,Win32,60.60606061,b36053b4-2c63-4717-9399-3ab033b13773,3,43.0112,44.8073,space,1,0,9,9,3,1,D,space,0.4133,,,,,,,,,,,
,,,,,R_49oJeq668XySuxS,001,2025-09-03_11h25.01.477,continuous_performance_test,2024.2.4,Win32,60.60606061,b36053b4-2c63-4717-9399-3ab033b13773,3,44.8111,46.3581,space,1,0,10,10,14,1,O,space,0.5458,,,,,,,,,,,
,,,,,R_49oJeq668XySuxS,001,2025-09-03_11h25.01.477,continuous_performance_test,2024.2.4,Win32,60.60606061,b36053b4-2c63-4717-9399-3ab033b13773,3,46.3609,47.9581,,1,0,11,11,27,1,X,,,,,,,,,,,,,
,,,,,R_49oJeq668XySuxS,001,2025-09-03_11h25.01.477,continuous_performance_test,2024.2.4,Win32,60.60606061,b36053b4-2c63-4717-9399-3ab033b13773,3,47.9617,49.7076,space,1,0,12,12,8,1,I,space,0.5356,,,,,,,,,,,
,,,,,R_49oJeq668XySuxS,001,2025-09-03_11h25.01.477,continuous_performance_test,2024.2.4,Win32,60.60606061,b36053b4-2c63-4717-9399-3ab033b13773,3,49.7109,51.307,space,1,0,13,13,9,1,J,space,0.4999,,,,,,,,,,,
,,,,,R_49oJeq668XySuxS,001,2025-09-03_11h25.01.477,continuous_performance_test,2024.2.4,Win32,60.60606061,b36053b4-2c63-4717-9399-3ab033b13773,3,51.3103,53.2071,space,1,0,14,14,20,1,U,space,0.3593,,,,,,,,,,,
,,,,,R_49oJeq668XySuxS,001,2025-09-03_11h25.01.477,continuous_performance_test,2024.2.4,Win32,60.60606061,b36053b4-2c63-4717-9399-3ab033b13773,3,53.2107,55.1568,space,1,0,15,15,4,1,E,space,0.3844,,,,,,,,,,,
,,,,,R_49oJeq668XySuxS,001,2025-09-03_11h25.01.477,continuous_performance_test,2024.2.4,Win32,60.60606061,b36053b4-2c63-4717-9399-3ab033b13773,3,55.1577,56.8569,,1,0,16,16,29,1,X,,,,,,,,,,,,,
,,,,,R_49oJeq668XySuxS,001,2025-09-03_11h25.01.477,continuous_performance_test,2024.2.4,Win32,60.60606061,b36053b4-2c63-4717-9399-3ab033b13773,3,56.8577,58.5068,space,1,0,17,17,10,1,K,space,0.4759,,,,,,,,,,,
,,,,,R_49oJeq668XySuxS,001,2025-09-03_11h25.01.477,continuous_performance_test,2024.2.4,Win32,60.60606061,b36053b4-2c63-4717-9399-3ab033b13773,3,58.5076,60.0574,space,1,0,18,18,23,1,Y,space,0.4306,,,,,,,,,,,
,,,,,R_49oJeq668XySuxS,001,2025-09-03_11h25.01.477,continuous_performance_test,2024.2.4,Win32,60.60606061,b36053b4-2c63-4717-9399-3ab033b13773,3,60.0601,61.7071,space,1,0,19,19,12,1,M,space,0.4672,,,,,,,,,,,
,,,,,R_49oJeq668XySuxS,001,2025-09-03_11h25.01.477,continuous_performance_test,2024.2.4,Win32,60.60606061,b36053b4-2c63-4717-9399-3ab033b13773,3,61.7082,63.5568,,1,0,20,20,28,1,X,,,,,,,,,,,,,
,,,,,R_49oJeq668XySuxS,001,2025-09-03_11h25.01.477,continuous_performance_test,2024.2.4,Win32,60.60606061,b36053b4-2c63-4717-9399-3ab033b13773,3,63.5574,65.3571,,1,0,21,21,26,1,X,,,,,,,,,,,,,
,,,,,R_49oJeq668XySuxS,001,2025-09-03_11h25.01.477,continuous_performance_test,2024.2.4,Win32,60.60606061,b36053b4-2c63-4717-9399-3ab033b13773,3,65.3577,66.9567,,1,0,22,22,25,1,X,,,,,,,,,,,,,
,,,,,R_49oJeq668XySuxS,001,2025-09-03_11h25.01.477,continuous_performance_test,2024.2.4,Win32,60.60606061,b36053b4-2c63-4717-9399-3ab033b13773,3,66.9576,68.5569,space,1,0,23,23,19,1,T,space,0.5617,,,,,,,,,,,
,,,,,R_49oJeq668XySuxS,001,2025-09-03_11h25.01.477,continuous_performance_test,2024.2.4,Win32,60.60606061,b36053b4-2c63-4717-9399-3ab033b13773,3,68.5585,70.1071,space,1,0,24,24,6,1,G,space,0.4925,,,,,,,,,,,
,,,,,R_49oJeq668XySuxS,001,2025-09-03_11h25.01.477,continuous_performance_test,2024.2.4,Win32,60.60606061,b36053b4-2c63-4717-9399-3ab033b13773,3,70.1097,72.0571,space,1,0,25,25,16,1,Q,space,0.4223,,,,,,,,,,,
,,,,,R_49oJeq668XySuxS,001,2025-09-03_11h25.01.477,continuous_performance_test,2024.2.4,Win32,60.60606061,b36053b4-2c63-4717-9399-3ab033b13773,3,72.0595,73.6573,space,1,0,26,26,0,1,A,space,0.4858,,,,,,,,,,,
,,,,,R_49oJeq668XySuxS,001,2025-09-03_11h25.01.477,continuous_performance_test,2024.2.4,Win32,60.60606061,b36053b4-2c63-4717-9399-3ab033b13773,3,73.6593,75.4572,space,1,0,27,27,18,1,S,space,0.7344,,,,,,,,,,,
,,,,,R_49oJeq668XySuxS,001,2025-09-03_11h25.01.477,continuous_performance_test,2024.2.4,Win32,60.60606061,b36053b4-2c63-4717-9399-3ab033b13773,3,75.4591,77.3071,space,1,0,28,28,13,1,N,space,0.8318,,,,,,,,,,,
,,,,,R_49oJeq668XySuxS,001,2025-09-03_11h25.01.477,continuous_performance_test,2024.2.4,Win32,60.60606061,b36053b4-2c63-4717-9399-3ab033b13773,3,77.3094,79.1071,space,1,0,29,29,7,1,H,space,0.5016,,,,,,,,,,,
,,,,,R_49oJeq668XySuxS,001,2025-09-03_11h25.01.477,continuous_performance_test,2024.2.4,Win32,60.60606061,b36053b4-2c63-4717-9399-3ab033b13773,3,84.4641,86.3072,space,1,0,0,0,4,1,E,space,0.5003,,79.1076,84.457,space,5.3312,,,,,,
,,,,,R_49oJeq668XySuxS,001,2025-09-03_11h25.01.477,continuous_performance_test,2024.2.4,Win32,60.60606061,b36053b4-2c63-4717-9399-3ab033b13773,3,86.3089,87.8569,space,1,0,1,1,16,1,Q,space,0.426,,,,,,,,,,,
,,,,,R_49oJeq668XySuxS,001,2025-09-03_11h25.01.477,continuous_performance_test,2024.2.4,Win32,60.60606061,b36053b4-2c63-4717-9399-3ab033b13773,3,87.859,89.6071,space,1,0,2,2,9,1,J,space,0.4005,,,,,,,,,,,
,,,,,R_49oJeq668XySuxS,001,2025-09-03_11h25.01.477,continuous_performance_test,2024.2.4,Win32,60.60606061,b36053b4-2c63-4717-9399-3ab033b13773,3,89.6083,91.6068,space,1,0,3,3,19,1,T,space,0.346,,,,,,,,,,,
,,,,,R_49oJeq668XySuxS,001,2025-09-03_11h25.01.477,continuous_performance_test,2024.2.4,Win32,60.60606061,b36053b4-2c63-4717-9399-3ab033b13773,3,91.6075,93.2073,space,1,0,4,4,11,1,L,space,0.3691,,,,,,,,,,,
,,,,,R_49oJeq668XySuxS,001,2025-09-03_11h25.01.477,continuous_performance_test,2024.2.4,Win32,60.60606061,b36053b4-2c63-4717-9399-3ab033b13773,3,93.2085,95.0073,space,1,0,5,5,10,1,K,space,0.5,,,,,,,,,,,
,,,,,R_49oJeq668XySuxS,001,2025-09-03_11h25.01.477,continuous_performance_test,2024.2.4,Win32,60.60606061,b36053b4-2c63-4717-9399-3ab033b13773,3,95.0102,96.9569,space,1,0,6,6,15,1,P,space,0.3315,,,,,,,,,,,
,,,,,R_49oJeq668XySuxS,001,2025-09-03_11h25.01.477,continuous_performance_test,2024.2.4,Win32,60.60606061,b36053b4-2c63-4717-9399-3ab033b13773,3,96.9585,98.9079,,1,0,7,7,28,1,X,,,,,,,,,,,,,
,,,,,R_49oJeq668XySuxS,001,2025-09-03_11h25.01.477,continuous_performance_test,2024.2.4,Win32,60.60606061,b36053b4-2c63-4717-9399-3ab033b13773,3,98.91,100.4573,space,1,0,8,8,23,1,Y,space,0.5975,,,,,,,,,,,
,,,,,R_49oJeq668XySuxS,001,2025-09-03_11h25.01.477,continuous_performance_test,2024.2.4,Win32,60.60606061,b36053b4-2c63-4717-9399-3ab033b13773,3,100.4601,102.0577,space,1,0,9,9,17,1,R,space,0.3556,,,,,,,,,,,
,,,,,R_49oJeq668XySuxS,001,2025-09-03_11h25.01.477,continuous_performance_test,2024.2.4,Win32,60.60606061,b36053b4-2c63-4717-9399-3ab033b13773,3,102.0606,103.6076,space,1,0,10,10,5,1,F,space,0.3822,,,,,,,,,,,
,,,,,R_49oJeq668XySuxS,001,2025-09-03_11h25.01.477,continuous_performance_test,2024.2.4,Win32,60.60606061,b36053b4-2c63-4717-9399-3ab033b13773,3,103.6101,105.4071,space,1,0,11,11,12,1,M,space,0.3759,,,,,,,,,,,
,,,,,R_49oJeq668XySuxS,001,2025-09-03_11h25.01.477,continuous_performance_test,2024.2.4,Win32,60.60606061,b36053b4-2c63-4717-9399-3ab033b13773,3,105.4101,107.0072,,1,0,12,12,27,1,X,,,,,,,,,,,,,
,,,,,R_49oJeq668XySuxS,001,2025-09-03_11h25.01.477,continuous_performance_test,2024.2.4,Win32,60.60606061,b36053b4-2c63-4717-9399-3ab033b13773,3,107.0091,108.8566,,1,0,13,13,29,1,X,,,,,,,,,,,,,
,,,,,R_49oJeq668XySuxS,001,2025-09-03_11h25.01.477,continuous_performance_test,2024.2.4,Win32,60.60606061,b36053b4-2c63-4717-9399-3ab033b13773,3,108.8575,110.6573,space,1,0,14,14,2,1,C,space,0.4161,,,,,,,,,,,
,,,,,R_49oJeq668XySuxS,001,2025-09-03_11h25.01.477,continuous_performance_test,2024.2.4,Win32,60.60606061,b36053b4-2c63-4717-9399-3ab033b13773,3,110.6594,112.5577,space,1,0,15,15,7,1,H,space,0.4057,,,,,,,,,,,
,,,,,R_49oJeq668XySuxS,001,2025-09-03_11h25.01.477,continuous_performance_test,2024.2.4,Win32,60.60606061,b36053b4-2c63-4717-9399-3ab033b13773,3,112.5606,114.3078,space,1,0,16,16,8,1,I,space,0.4191,,,,,,,,,,,
,,,,,R_49oJeq668XySuxS,001,2025-09-03_11h25.01.477,continuous_performance_test,2024.2.4,Win32,60.60606061,b36053b4-2c63-4717-9399-3ab033b13773,3,114.3102,116.3075,space,1,0,17,17,20,1,U,space,0.4555,,,,,,,,,,,
,,,,,R_49oJeq668XySuxS,001,2025-09-03_11h25.01.477,continuous_performance_test,2024.2.4,Win32,60.60606061,b36053b4-2c63-4717-9399-3ab033b13773,3,116.3097,118.2072,space,1,0,18,18,1,1,B,space,0.4369,,,,,,,,,,,
,,,,,R_49oJeq668XySuxS,001,2025-09-03_11h25.01.477,continuous_performance_test,2024.2.4,Win32,60.60606061,b36053b4-2c63-4717-9399-3ab033b13773,3,118.2098,120.0576,space,1,0,19,19,3,1,D,space,0.4411,,,,,,,,,,,
,,,,,R_49oJeq668XySuxS,001,2025-09-03_11h25.01.477,continuous_performance_test,2024.2.4,Win32,60.60606061,b36053b4-2c63-4717-9399-3ab033b13773,3,120.0591,122.0573,space,1,0,20,20,21,1,V,space,0.5579,,,,,,,,,,,
,,,,,R_49oJeq668XySuxS,001,2025-09-03_11h25.01.477,continuous_performance_test,2024.2.4,Win32,60.60606061,b36053b4-2c63-4717-9399-3ab033b13773,3,122.0584,124.0589,space,1,0,21,21,18,1,S,space,0.6233,,,,,,,,,,,
,,,,,R_49oJeq668XySuxS,001,2025-09-03_11h25.01.477,continuous_performance_test,2024.2.4,Win32,60.60606061,b36053b4-2c63-4717-9399-3ab033b13773,3,124.0614,125.6589,,1,0,22,22,25,1,X,,,,,,,,,,,,,
,,,,,R_49oJeq668XySuxS,001,2025-09-03_11h25.01.477,continuous_performance_test,2024.2.4,Win32,60.60606061,b36053b4-2c63-4717-9399-3ab033b13773,3,125.6609,127.5581,space,1,0,23,23,22,1,W,space,0.5785,,,,,,,,,,,
,,,,,R_49oJeq668XySuxS,001,2025-09-03_11h25.01.477,continuous_performance_test,2024.2.4,Win32,60.60606061,b36053b4-2c63-4717-9399-3ab033b13773,3,127.5603,129.2083,space,1,0,24,24,0,1,A,space,0.6224,,,,,,,,,,,
,,,,,R_49oJeq668XySuxS,001,2025-09-03_11h25.01.477,continuous_performance_test,2024.2.4,Win32,60.60606061,b36053b4-2c63-4717-9399-3ab033b13773,3,129.2111,130.8082,,1,0,25,25,26,1,X,,,,,,,,,,,,,
,,,,,R_49oJeq668XySuxS,001,2025-09-03_11h25.01.477,continuous_performance_test,2024.2.4,Win32,60.60606061,b36053b4-2c63-4717-9399-3ab033b13773,3,130.8112,132.5088,space,1,0,26,26,14,1,O,space,0.7052,,,,,,,,,,,
,,,,,R_49oJeq668XySuxS,001,2025-09-03_11h25.01.477,continuous_performance_test,2024.2.4,Win32,60.60606061,b36053b4-2c63-4717-9399-3ab033b13773,3,132.5114,134.5081,space,1,0,27,27,13,1,N,space,0.5375,,,,,,,,,,,
,,,,,R_49oJeq668XySuxS,001,2025-09-03_11h25.01.477,continuous_performance_test,2024.2.4,Win32,60.60606061,b36053b4-2c63-4717-9399-3ab033b13773,3,134.511,136.4079,space,1,0,28,28,6,1,G,space,0.4904,,,,,,,,,,,
,,,,,R_49oJeq668XySuxS,001,2025-09-03_11h25.01.477,continuous_performance_test,2024.2.4,Win32,60.60606061,b36053b4-2c63-4717-9399-3ab033b13773,3,136.4103,138.3075,space,1,0,29,29,24,1,Z,space,0.4069,,,,,,,,,,,
,,,,,R_49oJeq668XySuxS,001,2025-09-03_11h25.01.477,continuous_performance_test,2024.2.4,Win32,60.60606061,b36053b4-2c63-4717-9399-3ab033b13773,3,151.4012,152.9403,space,1,0,0,0,15,1,P,space,0.5374,,138.3095,151.3914,space,13.0605,,,,,,
,,,,,R_49oJeq668XySuxS,001,2025-09-03_11h25.01.477,continuous_performance_test,2024.2.4,Win32,60.60606061,b36053b4-2c63-4717-9399-3ab033b13773,3,152.941,154.5917,space,1,0,1,1,0,1,A,space,0.5171,,,,,,,,,,,
,,,,,R_49oJeq668XySuxS,001,2025-09-03_11h25.01.477,continuous_performance_test,2024.2.4,Win32,60.60606061,b36053b4-2c63-4717-9399-3ab033b13773,3,154.5941,156.3414,space,0,0,2,2,29,1,X,,0.3697,,,,,,,,,,,
,,,,,R_49oJeq668XySuxS,001,2025-09-03_11h25.01.477,continuous_performance_test,2024.2.4,Win32,60.60606061,b36053b4-2c63-4717-9399-3ab033b13773,3,156.3446,157.8929,,0,0,3,3,21,1,V,space,,,,,,,,,,,,
,,,,,R_49oJeq668XySuxS,001,2025-09-03_11h25.01.477,continuous_performance_test,2024.2.4,Win32,60.60606061,b36053b4-2c63-4717-9399-3ab033b13773,3,157.8952,159.5414,space,1,0,4,4,4,1,E,space,0.4712,,,,,,,,,,,
,,,,,R_49oJeq668XySuxS,001,2025-09-03_11h25.01.477,continuous_performance_test,2024.2.4,Win32,60.60606061,b36053b4-2c63-4717-9399-3ab033b13773,3,159.5439,161.4405,space,1,0,5,5,1,1,B,space,0.5466,,,,,,,,,,,
,,,,,R_49oJeq668XySuxS,001,2025-09-03_11h25.01.477,continuous_performance_test,2024.2.4,Win32,60.60606061,b36053b4-2c63-4717-9399-3ab033b13773,3,161.442,163.2409,space,1,0,6,6,7,1,H,space,0.624,,,,,,,,,,,
,,,,,R_49oJeq668XySuxS,001,2025-09-03_11h25.01.477,continuous_performance_test,2024.2.4,Win32,60.60606061,b36053b4-2c63-4717-9399-3ab033b13773,3,163.2437,165.1905,space,1,0,7,7,17,1,R,space,0.4807,,,,,,,,,,,
,,,,,R_49oJeq668XySuxS,001,2025-09-03_11h25.01.477,continuous_performance_test,2024.2.4,Win32,60.60606061,b36053b4-2c63-4717-9399-3ab033b13773,3,165.1917,166.8917,space,0,0,8,8,27,1,X,,0.315,,,,,,,,,,,
,,,,,R_49oJeq668XySuxS,001,2025-09-03_11h25.01.477,continuous_performance_test,2024.2.4,Win32,60.60606061,b36053b4-2c63-4717-9399-3ab033b13773,3,166.8944,168.492,space,1,0,9,9,10,1,K,space,0.7919,,,,,,,,,,,
,,,,,R_49oJeq668XySuxS,001,2025-09-03_11h25.01.477,continuous_performance_test,2024.2.4,Win32,60.60606061,b36053b4-2c63-4717-9399-3ab033b13773,3,168.4952,170.4414,,1,0,10,10,25,1,X,,,,,,,,,,,,,
,,,,,R_49oJeq668XySuxS,001,2025-09-03_11h25.01.477,continuous_performance_test,2024.2.4,Win32,60.60606061,b36053b4-2c63-4717-9399-3ab033b13773,3,170.4437,172.393,space,1,0,11,11,19,1,T,space,0.5271,,,,,,,,,,,
,,,,,R_49oJeq668XySuxS,001,2025-09-03_11h25.01.477,continuous_performance_test,2024.2.4,Win32,60.60606061,b36053b4-2c63-4717-9399-3ab033b13773,3,172.3953,174.2908,space,1,0,12,12,18,1,S,space,0.5404,,,,,,,,,,,
,,,,,R_49oJeq668XySuxS,001,2025-09-03_11h25.01.477,continuous_performance_test,2024.2.4,Win32,60.60606061,b36053b4-2c63-4717-9399-3ab033b13773,3,174.2939,176.1921,space,1,0,13,13,6,1,G,space,0.4076,,,,,,,,,,,
,,,,,R_49oJeq668XySuxS,001,2025-09-03_11h25.01.477,continuous_performance_test,2024.2.4,Win32,60.60606061,b36053b4-2c63-4717-9399-3ab033b13773,3,176.1945,177.8913,space,1,0,14,14,16,1,Q,space,0.4019,,,,,,,,,,,
,,,,,R_49oJeq668XySuxS,001,2025-09-03_11h25.01.477,continuous_performance_test,2024.2.4,Win32,60.60606061,b36053b4-2c63-4717-9399-3ab033b13773,3,177.8935,179.841,space,1,0,15,15,23,1,Y,space,0.4191,,,,,,,,,,,
,,,,,R_49oJeq668XySuxS,001,2025-09-03_11h25.01.477,continuous_performance_test,2024.2.4,Win32,60.60606061,b36053b4-2c63-4717-9399-3ab033b13773,3,179.8428,181.4407,space,1,0,16,16,22,1,W,space,0.4847,,,,,,,,,,,
,,,,,R_49oJeq668XySuxS,001,2025-09-03_11h25.01.477,continuous_performance_test,2024.2.4,Win32,60.60606061,b36053b4-2c63-4717-9399-3ab033b13773,3,181.4436,183.341,,1,0,17,17,28,1,X,,,,,,,,,,,,,
,,,,,R_49oJeq668XySuxS,001,2025-09-03_11h25.01.477,continuous_performance_test,2024.2.4,Win32,60.60606061,b36053b4-2c63-4717-9399-3ab033b13773,3,183.3435,184.9909,space,1,0,18,18,13,1,N,space,0.4778,,,,,,,,,,,
,,,,,R_49oJeq668XySuxS,001,2025-09-03_11h25.01.477,continuous_performance_test,2024.2.4,Win32,60.60606061,b36053b4-2c63-4717-9399-3ab033b13773,3,184.9936,186.5406,space,1,0,19,19,8,1,I,space,0.5159,,,,,,,,,,,
,,,,,R_49oJeq668XySuxS,001,2025-09-03_11h25.01.477,continuous_performance_test,2024.2.4,Win32,60.60606061,b36053b4-2c63-4717-9399-3ab033b13773,3,186.5425,188.2405,space,1,0,20,20,20,1,U,space,0.446,,,,,,,,,,,
,,,,,R_49oJeq668XySuxS,001,2025-09-03_11h25.01.477,continuous_performance_test,2024.2.4,Win32,60.60606061,b36053b4-2c63-4717-9399-3ab033b13773,3,188.2423,190.1409,space,1,0,21,21,24,1,Z,space,0.588,,,,,,,,,,,
,,,,,R_49oJeq668XySuxS,001,2025-09-03_11h25.01.477,continuous_performance_test,2024.2.4,Win32,60.60606061,b36053b4-2c63-4717-9399-3ab033b13773,3,190.1436,191.7906,space,1,0,22,22,3,1,D,space,0.4721,,,,,,,,,,,
,,,,,R_49oJeq668XySuxS,001,2025-09-03_11h25.01.477,continuous_performance_test,2024.2.4,Win32,60.60606061,b36053b4-2c63-4717-9399-3ab033b13773,3,191.7956,193.5418,,1,0,23,23,26,1,X,,,,,,,,,,,,,
,,,,,R_49oJeq668XySuxS,001,2025-09-03_11h25.01.477,continuous_performance_test,2024.2.4,Win32,60.60606061,b36053b4-2c63-4717-9399-3ab033b13773,3,193.5441,195.5414,space,1,0,24,24,12,1,M,space,0.6975,,,,,,,,,,,
,,,,,R_49oJeq668XySuxS,001,2025-09-03_11h25.01.477,continuous_performance_test,2024.2.4,Win32,60.60606061,b36053b4-2c63-4717-9399-3ab033b13773,3,195.5446,197.1407,space,1,0,25,25,5,1,F,space,0.6348,,,,,,,,,,,
,,,,,R_49oJeq668XySuxS,001,2025-09-03_11h25.01.477,continuous_performance_test,2024.2.4,Win32,60.60606061,b36053b4-2c63-4717-9399-3ab033b13773,3,197.1434,198.8405,space,1,0,26,26,2,1,C,space,0.448,,,,,,,,,,,
,,,,,R_49oJeq668XySuxS,001,2025-09-03_11h25.01.477,continuous_performance_test,2024.2.4,Win32,60.60606061,b36053b4-2c63-4717-9399-3ab033b13773,3,198.8431,200.741,space,1,0,27,27,11,1,L,space,0.6174,,,,,,,,,,,
,,,,,R_49oJeq668XySuxS,001,2025-09-03_11h25.01.477,continuous_performance_test,2024.2.4,Win32,60.60606061,b36053b4-2c63-4717-9399-3ab033b13773,3,200.7437,202.6404,space,1,0,28,28,9,1,J,space,0.5781,,,,,,,,,,,
,,,,,R_49oJeq668XySuxS,001,2025-09-03_11h25.01.477,continuous_performance_test,2024.2.4,Win32,60.60606061,b36053b4-2c63-4717-9399-3ab033b13773,3,202.641,204.49,space,1,0,29,29,14,1,O,space,0.8497,,,,,,,,,,,
,,,,,R_49oJeq668XySuxS,001,2025-09-03_11h25.01.477,continuous_performance_test,2024.2.4,Win32,60.60606061,b36053b4-2c63-4717-9399-3ab033b13773,3,219.4945,221.1903,,0,0,0,0,9,1,J,space,,,204.4905,219.4905,,,,,,,,
,,,,,R_49oJeq668XySuxS,001,2025-09-03_11h25.01.477,continuous_performance_test,2024.2.4,Win32,60.60606061,b36053b4-2c63-4717-9399-3ab033b13773,3,221.1911,223.1901,space,1,0,1,1,10,1,K,space,0.6909,,,,,,,,,,,
,,,,,R_49oJeq668XySuxS,001,2025-09-03_11h25.01.477,continuous_performance_test,2024.2.4,Win32,60.60606061,b36053b4-2c63-4717-9399-3ab033b13773,3,223.1908,225.0404,space,1,0,2,2,5,1,F,space,0.4324,,,,,,,,,,,
,,,,,R_49oJeq668XySuxS,001,2025-09-03_11h25.01.477,continuous_performance_test,2024.2.4,Win32,60.60606061,b36053b4-2c63-4717-9399-3ab033b13773,3,225.0411,226.641,space,1,0,3,3,20,1,U,space,0.3846,,,,,,,,,,,
,,,,,R_49oJeq668XySuxS,001,2025-09-03_11h25.01.477,continuous_performance_test,2024.2.4,Win32,60.60606061,b36053b4-2c63-4717-9399-3ab033b13773,3,226.6444,228.191,space,1,0,4,4,3,1,D,space,0.3584,,,,,,,,,,,
,,,,,R_49oJeq668XySuxS,001,2025-09-03_11h25.01.477,continuous_performance_test,2024.2.4,Win32,60.60606061,b36053b4-2c63-4717-9399-3ab033b13773,3,228.1937,230.1407,space,1,0,5,5,2,1,C,space,0.3272,,,,,,,,,,,
,,,,,R_49oJeq668XySuxS,001,2025-09-03_11h25.01.477,continuous_performance_test,2024.2.4,Win32,60.60606061,b36053b4-2c63-4717-9399-3ab033b13773,3,230.1428,232.0413,space,1,0,6,6,16,1,Q,space,0.3656,,,,,,,,,,,
,,,,,R_49oJeq668XySuxS,001,2025-09-03_11h25.01.477,continuous_performance_test,2024.2.4,Win32,60.60606061,b36053b4-2c63-4717-9399-3ab033b13773,3,232.0445,233.7404,,1,0,7,7,28,1,X,,,,,,,,,,,,,
,,,,,R_49oJeq668XySuxS,001,2025-09-03_11h25.01.477,continuous_performance_test,2024.2.4,Win32,60.60606061,b36053b4-2c63-4717-9399-3ab033b13773,3,233.7427,235.5906,space,1,0,8,8,8,1,I,space,0.4869,,,,,,,,,,,
,,,,,R_49oJeq668XySuxS,001,2025-09-03_11h25.01.477,continuous_performance_test,2024.2.4,Win32,60.60606061,b36053b4-2c63-4717-9399-3ab033b13773,3,235.5936,237.1904,,1,0,9,9,26,1,X,,,,,,,,,,,,,
,,,,,R_49oJeq668XySuxS,001,2025-09-03_11h25.01.477,continuous_performance_test,2024.2.4,Win32,60.60606061,b36053b4-2c63-4717-9399-3ab033b13773,3,237.1929,238.7902,space,1,0,10,10,6,1,G,space,0.398,,,,,,,,,,,
,,,,,R_49oJeq668XySuxS,001,2025-09-03_11h25.01.477,continuous_performance_test,2024.2.4,Win32,60.60606061,b36053b4-2c63-4717-9399-3ab033b13773,3,238.7912,240.4417,space,1,0,11,11,14,1,O,space,0.3528,,,,,,,,,,,
,,,,,R_49oJeq668XySuxS,001,2025-09-03_11h25.01.477,continuous_performance_test,2024.2.4,Win32,60.60606061,b36053b4-2c63-4717-9399-3ab033b13773,3,240.4439,242.3913,space,0,0,12,12,27,1,X,,0.3667,,,,,,,,,,,
,,,,,R_49oJeq668XySuxS,001,2025-09-03_11h25.01.477,continuous_performance_test,2024.2.4,Win32,60.60606061,b36053b4-2c63-4717-9399-3ab033b13773,3,242.393,243.9904,space,1,0,13,13,7,1,H,space,0.6861,,,,,,,,,,,
,,,,,R_49oJeq668XySuxS,001,2025-09-03_11h25.01.477,continuous_performance_test,2024.2.4,Win32,60.60606061,b36053b4-2c63-4717-9399-3ab033b13773,3,243.9911,245.7914,space,1,0,14,14,11,1,L,space,0.3694,,,,,,,,,,,
,,,,,R_49oJeq668XySuxS,001,2025-09-03_11h25.01.477,continuous_performance_test,2024.2.4,Win32,60.60606061,b36053b4-2c63-4717-9399-3ab033b13773,3,245.7937,247.5904,space,1,0,15,15,22,1,W,space,0.5985,,,,,,,,,,,
,,,,,R_49oJeq668XySuxS,001,2025-09-03_11h25.01.477,continuous_performance_test,2024.2.4,Win32,60.60606061,b36053b4-2c63-4717-9399-3ab033b13773,3,247.5918,249.3907,space,1,0,16,16,15,1,P,space,0.4654,,,,,,,,,,,
,,,,,R_49oJeq668XySuxS,001,2025-09-03_11h25.01.477,continuous_performance_test,2024.2.4,Win32,60.60606061,b36053b4-2c63-4717-9399-3ab033b13773,3,249.3933,250.9404,space,1,0,17,17,18,1,S,space,0.4259,,,,,,,,,,,
,,,,,R_49oJeq668XySuxS,001,2025-09-03_11h25.01.477,continuous_performance_test,2024.2.4,Win32,60.60606061,b36053b4-2c63-4717-9399-3ab033b13773,3,250.9423,252.7402,space,1,0,18,18,1,1,B,space,0.4481,,,,,,,,,,,
,,,,,R_49oJeq668XySuxS,001,2025-09-03_11h25.01.477,continuous_performance_test,2024.2.4,Win32,60.60606061,b36053b4-2c63-4717-9399-3ab033b13773,3,252.7421,254.5401,space,1,0,19,19,21,1,V,space,0.4157,,,,,,,,,,,
,,,,,R_49oJeq668XySuxS,001,2025-09-03_11h25.01.477,continuous_performance_test,2024.2.4,Win32,60.60606061,b36053b4-2c63-4717-9399-3ab033b13773,3,254.541,256.1405,space,1,0,20,20,0,1,A,space,0.545,,,,,,,,,,,
,,,,,R_49oJeq668XySuxS,001,2025-09-03_11h25.01.477,continuous_performance_test,2024.2.4,Win32,60.60606061,b36053b4-2c63-4717-9399-3ab033b13773,3,256.1426,257.841,space,1,0,21,21,12,1,M,space,0.43,,,,,,,,,,,
,,,,,R_49oJeq668XySuxS,001,2025-09-03_11h25.01.477,continuous_performance_test,2024.2.4,Win32,60.60606061,b36053b4-2c63-4717-9399-3ab033b13773,3,257.8435,259.5427,space,1,0,22,22,13,1,N,space,0.3388,,,,,,,,,,,
,,,,,R_49oJeq668XySuxS,001,2025-09-03_11h25.01.477,continuous_performance_test,2024.2.4,Win32,60.60606061,b36053b4-2c63-4717-9399-3ab033b13773,3,259.5451,261.3412,,1,0,23,23,29,1,X,,,,,,,,,,,,,
,,,,,R_49oJeq668XySuxS,001,2025-09-03_11h25.01.477,continuous_performance_test,2024.2.4,Win32,60.60606061,b36053b4-2c63-4717-9399-3ab033b13773,3,261.3443,263.0411,space,1,0,24,24,23,1,Y,space,0.66,,,,,,,,,,,
,,,,,R_49oJeq668XySuxS,001,2025-09-03_11h25.01.477,continuous_performance_test,2024.2.4,Win32,60.60606061,b36053b4-2c63-4717-9399-3ab033b13773,3,263.0434,264.6906,space,1,0,25,25,24,1,Z,space,0.6197,,,,,,,,,,,
,,,,,R_49oJeq668XySuxS,001,2025-09-03_11h25.01.477,continuous_performance_test,2024.2.4,Win32,60.60606061,b36053b4-2c63-4717-9399-3ab033b13773,3,264.6928,266.2907,space,1,0,26,26,19,1,T,space,0.429,,,,,,,,,,,
,,,,,R_49oJeq668XySuxS,001,2025-09-03_11h25.01.477,continuous_performance_test,2024.2.4,Win32,60.60606061,b36053b4-2c63-4717-9399-3ab033b13773,3,266.2935,268.0407,space,1,0,27,27,4,1,E,space,0.5541,,,,,,,,,,,
,,,,,R_49oJeq668XySuxS,001,2025-09-03_11h25.01.477,continuous_performance_test,2024.2.4,Win32,60.60606061,b36053b4-2c63-4717-9399-3ab033b13773,3,268.0439,269.9907,space,1,0,28,28,17,1,R,space,0.4464,,,,,,,,,,,
,,,,,R_49oJeq668XySuxS,001,2025-09-03_11h25.01.477,continuous_performance_test,2024.2.4,Win32,60.60606061,b36053b4-2c63-4717-9399-3ab033b13773,3,269.9933,271.8909,,1,0,29,29,25,1,X,,,,,,,,,,,,,
,,,,,R_49oJeq668XySuxS,001,2025-09-03_11h25.01.477,continuous_performance_test,2024.2.4,Win32,60.60606061,b36053b4-2c63-4717-9399-3ab033b13773,3,286.8979,288.7413,space,1,0,0,0,18,1,S,space,0.5166,,271.894,286.8905,,,,,,,,
,,,,,R_49oJeq668XySuxS,001,2025-09-03_11h25.01.477,continuous_performance_test,2024.2.4,Win32,60.60606061,b36053b4-2c63-4717-9399-3ab033b13773,3,288.744,290.5909,space,1,0,1,1,16,1,Q,space,0.4943,,,,,,,,,,,
,,,,,R_49oJeq668XySuxS,001,2025-09-03_11h25.01.477,continuous_performance_test,2024.2.4,Win32,60.60606061,b36053b4-2c63-4717-9399-3ab033b13773,3,290.5938,292.291,space,1,0,2,2,22,1,W,space,0.5305,,,,,,,,,,,
,,,,,R_49oJeq668XySuxS,001,2025-09-03_11h25.01.477,continuous_performance_test,2024.2.4,Win32,60.60606061,b36053b4-2c63-4717-9399-3ab033b13773,3,292.2937,294.2421,space,1,0,3,3,5,1,F,space,0.5496,,,,,,,,,,,
,,,,,R_49oJeq668XySuxS,001,2025-09-03_11h25.01.477,continuous_performance_test,2024.2.4,Win32,60.60606061,b36053b4-2c63-4717-9399-3ab033b13773,3,294.2449,295.9416,space,1,0,4,4,10,1,K,space,0.4263,,,,,,,,,,,
,,,,,R_49oJeq668XySuxS,001,2025-09-03_11h25.01.477,continuous_performance_test,2024.2.4,Win32,60.60606061,b36053b4-2c63-4717-9399-3ab033b13773,3,295.9442,297.4904,space,1,0,5,5,24,1,Z,space,0.4983,,,,,,,,,,,
,,,,,R_49oJeq668XySuxS,001,2025-09-03_11h25.01.477,continuous_performance_test,2024.2.4,Win32,60.60606061,b36053b4-2c63-4717-9399-3ab033b13773,3,297.4925,299.2416,space,1,0,6,6,8,1,I,space,0.3313,,,,,,,,,,,
,,,,,R_49oJeq668XySuxS,001,2025-09-03_11h25.01.477,continuous_performance_test,2024.2.4,Win32,60.60606061,b36053b4-2c63-4717-9399-3ab033b13773,3,299.2425,301.1914,space,1,0,7,7,15,1,P,space,0.5388,,,,,,,,,,,
,,,,,R_49oJeq668XySuxS,001,2025-09-03_11h25.01.477,continuous_performance_test,2024.2.4,Win32,60.60606061,b36053b4-2c63-4717-9399-3ab033b13773,3,301.1946,302.8409,space,1,0,8,8,23,1,Y,space,0.4673,,,,,,,,,,,
,,,,,R_49oJeq668XySuxS,001,2025-09-03_11h25.01.477,continuous_performance_test,2024.2.4,Win32,60.60606061,b36053b4-2c63-4717-9399-3ab033b13773,3,302.8429,304.7412,space,0,0,9,9,26,1,X,,0.4148,,,,,,,,,,,
,,,,,R_49oJeq668XySuxS,001,2025-09-03_11h25.01.477,continuous_performance_test,2024.2.4,Win32,60.60606061,b36053b4-2c63-4717-9399-3ab033b13773,3,304.7439,306.5919,space,1,0,10,10,1,1,B,space,0.3086,,,,,,,,,,,
,,,,,R_49oJeq668XySuxS,001,2025-09-03_11h25.01.477,continuous_performance_test,2024.2.4,Win32,60.60606061,b36053b4-2c63-4717-9399-3ab033b13773,3,306.5948,308.2903,space,1,0,11,11,7,1,H,space,0.3658,,,,,,,,,,,
,,,,,R_49oJeq668XySuxS,001,2025-09-03_11h25.01.477,continuous_performance_test,2024.2.4,Win32,60.60606061,b36053b4-2c63-4717-9399-3ab033b13773,3,308.2923,310.2905,space,1,0,12,12,21,1,V,space,0.322,,,,,,,,,,,
,,,,,R_49oJeq668XySuxS,001,2025-09-03_11h25.01.477,continuous_performance_test,2024.2.4,Win32,60.60606061,b36053b4-2c63-4717-9399-3ab033b13773,3,310.2926,311.9411,space,0,0,13,13,28,1,X,,0.3154,,,,,,,,,,,
,,,,,R_49oJeq668XySuxS,001,2025-09-03_11h25.01.477,continuous_performance_test,2024.2.4,Win32,60.60606061,b36053b4-2c63-4717-9399-3ab033b13773,3,311.9438,313.6412,space,1,0,14,14,3,1,D,space,0.7391,,,,,,,,,,,
,,,,,R_49oJeq668XySuxS,001,2025-09-03_11h25.01.477,continuous_performance_test,2024.2.4,Win32,60.60606061,b36053b4-2c63-4717-9399-3ab033b13773,3,313.6442,315.1913,space,1,0,15,15,11,1,L,space,0.3745,,,,,,,,,,,
,,,,,R_49oJeq668XySuxS,001,2025-09-03_11h25.01.477,continuous_performance_test,2024.2.4,Win32,60.60606061,b36053b4-2c63-4717-9399-3ab033b13773,3,315.1938,316.9412,space,1,0,16,16,2,1,C,space,0.5965,,,,,,,,,,,
,,,,,R_49oJeq668XySuxS,001,2025-09-03_11h25.01.477,continuous_performance_test,2024.2.4,Win32,60.60606061,b36053b4-2c63-4717-9399-3ab033b13773,3,316.9443,318.5913,space,1,0,17,17,6,1,G,space,0.6132,,,,,,,,,,,
,,,,,R_49oJeq668XySuxS,001,2025-09-03_11h25.01.477,continuous_performance_test,2024.2.4,Win32,60.60606061,b36053b4-2c63-4717-9399-3ab033b13773,3,318.594,320.3898,space,0,0,18,18,27,1,X,,0.3993,,,,,,,,,,,
,,,,,R_49oJeq668XySuxS,001,2025-09-03_11h25.01.477,continuous_performance_test,2024.2.4,Win32,60.60606061,b36053b4-2c63-4717-9399-3ab033b13773,3,320.3904,322.0401,space,1,0,19,19,19,1,T,space,0.4582,,,,,,,,,,,
,,,,,R_49oJeq668XySuxS,001,2025-09-03_11h25.01.477,continuous_performance_test,2024.2.4,Win32,60.60606061,b36053b4-2c63-4717-9399-3ab033b13773,3,322.0421,323.89,space,1,0,20,20,12,1,M,space,0.4344,,,,,,,,,,,
,,,,,R_49oJeq668XySuxS,001,2025-09-03_11h25.01.477,continuous_performance_test,2024.2.4,Win32,60.60606061,b36053b4-2c63-4717-9399-3ab033b13773,3,323.8907,325.4402,space,1,0,21,21,0,1,A,space,0.3387,,,,,,,,,,,
,,,,,R_49oJeq668XySuxS,001,2025-09-03_11h25.01.477,continuous_performance_test,2024.2.4,Win32,60.60606061,b36053b4-2c63-4717-9399-3ab033b13773,3,325.4409,327.441,space,1,0,22,22,4,1,E,space,0.3375,,,,,,,,,,,
,,,,,R_49oJeq668XySuxS,001,2025-09-03_11h25.01.477,continuous_performance_test,2024.2.4,Win32,60.60606061,b36053b4-2c63-4717-9399-3ab033b13773,3,327.4436,329.3399,,1,0,23,23,25,1,X,,,,,,,,,,,,,
,,,,,R_49oJeq668XySuxS,001,2025-09-03_11h25.01.477,continuous_performance_test,2024.2.4,Win32,60.60606061,b36053b4-2c63-4717-9399-3ab033b13773,3,329.3406,331.2402,space,1,0,24,24,20,1,U,space,0.3806,,,,,,,,,,,
,,,,,R_49oJeq668XySuxS,001,2025-09-03_11h25.01.477,continuous_performance_test,2024.2.4,Win32,60.60606061,b36053b4-2c63-4717-9399-3ab033b13773,3,331.2409,332.7907,space,1,0,25,25,17,1,R,space,0.5251,,,,,,,,,,,
,,,,,R_49oJeq668XySuxS,001,2025-09-03_11h25.01.477,continuous_performance_test,2024.2.4,Win32,60.60606061,b36053b4-2c63-4717-9399-3ab033b13773,3,332.7934,334.7412,space,1,0,26,26,9,1,J,space,0.4319,,,,,,,,,,,
,,,,,R_49oJeq668XySuxS,001,2025-09-03_11h25.01.477,continuous_performance_test,2024.2.4,Win32,60.60606061,b36053b4-2c63-4717-9399-3ab033b13773,3,334.7443,336.3908,space,1,0,27,27,14,1,O,space,0.3281,,,,,,,,,,,
,,,,,R_49oJeq668XySuxS,001,2025-09-03_11h25.01.477,continuous_performance_test,2024.2.4,Win32,60.60606061,b36053b4-2c63-4717-9399-3ab033b13773,3,336.3937,337.9412,,1,0,28,28,29,1,X,,,,,,,,,,,,,
,,,,,R_49oJeq668XySuxS,001,2025-09-03_11h25.01.477,continuous_performance_test,2024.2.4,Win32,60.60606061,b36053b4-2c63-4717-9399-3ab033b13773,3,337.9444,339.6911,space,1,0,29,29,13,1,N,space,0.3149,,,,,,,,,,,
,,,,,R_49oJeq668XySuxS,001,2025-09-03_11h25.01.477,continuous_performance_test,2024.2.4,Win32,60.60606061,b36053b4-2c63-4717-9399-3ab033b13773,3,354.7002,356.4908,space,1,0,0,0,6,1,G,space,0.4655,,339.694,354.6906,,,,,,,,
,,,,,R_49oJeq668XySuxS,001,2025-09-03_11h25.01.477,continuous_performance_test,2024.2.4,Win32,60.60606061,b36053b4-2c63-4717-9399-3ab033b13773,3,356.4933,358.1915,space,1,0,1,1,21,1,V,space,0.349,,,,,,,,,,,
,,,,,R_49oJeq668XySuxS,001,2025-09-03_11h25.01.477,continuous_performance_test,2024.2.4,Win32,60.60606061,b36053b4-2c63-4717-9399-3ab033b13773,3,358.1941,360.0904,space,1,0,2,2,18,1,S,space,0.3475,,,,,,,,,,,
,,,,,R_49oJeq668XySuxS,001,2025-09-03_11h25.01.477,continuous_performance_test,2024.2.4,Win32,60.60606061,b36053b4-2c63-4717-9399-3ab033b13773,3,360.0913,361.6411,space,1,0,3,3,4,1,E,space,0.3564,,,,,,,,,,,
,,,,,R_49oJeq668XySuxS,001,2025-09-03_11h25.01.477,continuous_performance_test,2024.2.4,Win32,60.60606061,b36053b4-2c63-4717-9399-3ab033b13773,3,361.6437,363.4905,space,1,0,4,4,1,1,B,space,0.316,,,,,,,,,,,
,,,,,R_49oJeq668XySuxS,001,2025-09-03_11h25.01.477,continuous_performance_test,2024.2.4,Win32,60.60606061,b36053b4-2c63-4717-9399-3ab033b13773,3,363.4928,365.4407,space,1,0,5,5,17,1,R,space,0.3474,,,,,,,,,,,
,,,,,R_49oJeq668XySuxS,001,2025-09-03_11h25.01.477,continuous_performance_test,2024.2.4,Win32,60.60606061,b36053b4-2c63-4717-9399-3ab033b13773,3,365.4435,367.3912,space,1,0,6,6,5,1,F,space,0.2868,,,,,,,,,,,
,,,,,R_49oJeq668XySuxS,001,2025-09-03_11h25.01.477,continuous_performance_test,2024.2.4,Win32,60.60606061,b36053b4-2c63-4717-9399-3ab033b13773,3,367.3933,369.1425,space,1,0,7,7,19,1,T,space,0.3505,,,,,,,,,,,
,,,,,R_49oJeq668XySuxS,001,2025-09-03_11h25.01.477,continuous_performance_test,2024.2.4,Win32,60.60606061,b36053b4-2c63-4717-9399-3ab033b13773,3,369.1446,370.7908,space,1,0,8,8,10,1,K,space,0.3657,,,,,,,,,,,
,,,,,R_49oJeq668XySuxS,001,2025-09-03_11h25.01.477,continuous_performance_test,2024.2.4,Win32,60.60606061,b36053b4-2c63-4717-9399-3ab033b13773,3,370.7941,372.591,space,0,0,9,9,26,1,X,,0.3353,,,,,,,,,,,
,,,,,R_49oJeq668XySuxS,001,2025-09-03_11h25.01.477,continuous_performance_test,2024.2.4,Win32,60.60606061,b36053b4-2c63-4717-9399-3ab033b13773,3,372.5932,374.4905,space,1,0,10,10,7,1,H,space,0.434,,,,,,,,,,,
,,,,,R_49oJeq668XySuxS,001,2025-09-03_11h25.01.477,continuous_performance_test,2024.2.4,Win32,60.60606061,b36053b4-2c63-4717-9399-3ab033b13773,3,374.4932,376.1413,space,1,0,11,11,3,1,D,space,0.4165,,,,,,,,,,,
,,,,,R_49oJeq668XySuxS,001,2025-09-03_11h25.01.477,continuous_performance_test,2024.2.4,Win32,60.60606061,b36053b4-2c63-4717-9399-3ab033b13773,3,376.1438,377.7409,,1,0,12,12,27,1,X,,,,,,,,,,,,,
,,,,,R_49oJeq668XySuxS,001,2025-09-03_11h25.01.477,continuous_performance_test,2024.2.4,Win32,60.60606061,b36053b4-2c63-4717-9399-3ab033b13773,3,377.7442,379.4912,space,1,0,13,13,20,1,U,space,0.3492,,,,,,,,,,,
,,,,,R_49oJeq668XySuxS,001,2025-09-03_11h25.01.477,continuous_performance_test,2024.2.4,Win32,60.60606061,b36053b4-2c63-4717-9399-3ab033b13773,3,379.4938,381.1409,space,1,0,14,14,24,1,Z,space,0.4488,,,,,,,,,,,
,,,,,R_49oJeq668XySuxS,001,2025-09-03_11h25.01.477,continuous_performance_test,2024.2.4,Win32,60.60606061,b36053b4-2c63-4717-9399-3ab033b13773,3,381.1434,382.9411,space,1,0,15,15,16,1,Q,space,0.3364,,,,,,,,,,,
,,,,,R_49oJeq668XySuxS,001,2025-09-03_11h25.01.477,continuous_performance_test,2024.2.4,Win32,60.60606061,b36053b4-2c63-4717-9399-3ab033b13773,3,382.9438,384.891,space,1,0,16,16,15,1,P,space,0.3222,,,,,,,,,,,
,,,,,R_49oJeq668XySuxS,001,2025-09-03_11h25.01.477,continuous_performance_test,2024.2.4,Win32,60.60606061,b36053b4-2c63-4717-9399-3ab033b13773,3,384.8937,386.5403,space,1,0,17,17,9,1,J,space,0.3985,,,,,,,,,,,
,,,,,R_49oJeq668XySuxS,001,2025-09-03_11h25.01.477,continuous_performance_test,2024.2.4,Win32,60.60606061,b36053b4-2c63-4717-9399-3ab033b13773,3,386.5419,388.091,space,1,0,18,18,11,1,L,space,0.3986,,,,,,,,,,,
,,,,,R_49oJeq668XySuxS,001,2025-09-03_11h25.01.477,continuous_performance_test,2024.2.4,Win32,60.60606061,b36053b4-2c63-4717-9399-3ab033b13773,3,388.0936,389.6905,space,1,0,19,19,13,1,N,space,0.3135,,,,,,,,,,,
,,,,,R_49oJeq668XySuxS,001,2025-09-03_11h25.01.477,continuous_performance_test,2024.2.4,Win32,60.60606061,b36053b4-2c63-4717-9399-3ab033b13773,3,389.6916,391.5409,space,1,0,20,20,0,1,A,space,0.4142,,,,,,,,,,,
,,,,,R_49oJeq668XySuxS,001,2025-09-03_11h25.01.477,continuous_performance_test,2024.2.4,Win32,60.60606061,b36053b4-2c63-4717-9399-3ab033b13773,3,391.5432,393.4408,space,1,0,21,21,2,1,C,space,0.6661,,,,,,,,,,,
,,,,,R_49oJeq668XySuxS,001,2025-09-03_11h25.01.477,continuous_performance_test,2024.2.4,Win32,60.60606061,b36053b4-2c63-4717-9399-3ab033b13773,3,393.4429,395.0417,space,1,0,22,22,22,1,W,space,0.4676,,,,,,,,,,,
,,,,,R_49oJeq668XySuxS,001,2025-09-03_11h25.01.477,continuous_performance_test,2024.2.4,Win32,60.60606061,b36053b4-2c63-4717-9399-3ab033b13773,3,395.0441,396.6399,space,0,0,23,23,25,1,X,,0.3567,,,,,,,,,,,
,,,,,R_49oJeq668XySuxS,001,2025-09-03_11h25.01.477,continuous_performance_test,2024.2.4,Win32,60.60606061,b36053b4-2c63-4717-9399-3ab033b13773,3,396.6408,398.5406,space,1,0,24,24,23,1,Y,space,0.5991,,,,,,,,,,,
,,,,,R_49oJeq668XySuxS,001,2025-09-03_11h25.01.477,continuous_performance_test,2024.2.4,Win32,60.60606061,b36053b4-2c63-4717-9399-3ab033b13773,3,398.5429,400.2911,space,1,0,25,25,12,1,M,space,0.4917,,,,,,,,,,,
,,,,,R_49oJeq668XySuxS,001,2025-09-03_11h25.01.477,continuous_performance_test,2024.2.4,Win32,60.60606061,b36053b4-2c63-4717-9399-3ab033b13773,3,400.2935,402.0407,space,1,0,26,26,8,1,I,space,0.3642,,,,,,,,,,,
,,,,,R_49oJeq668XySuxS,001,2025-09-03_11h25.01.477,continuous_performance_test,2024.2.4,Win32,60.60606061,b36053b4-2c63-4717-9399-3ab033b13773,3,402.0432,403.8407,,1,0,27,27,29,1,X,,,,,,,,,,,,,
,,,,,R_49oJeq668XySuxS,001,2025-09-03_11h25.01.477,continuous_performance_test,2024.2.4,Win32,60.60606061,b36053b4-2c63-4717-9399-3ab033b13773,3,403.8427,405.6906,,1,0,28,28,28,1,X,,,,,,,,,,,,,
,,,,,R_49oJeq668XySuxS,001,2025-09-03_11h25.01.477,continuous_performance_test,2024.2.4,Win32,60.60606061,b36053b4-2c63-4717-9399-3ab033b13773,3,405.6929,407.6407,space,1,0,29,29,14,1,O,space,0.5821,,,,,,,,,,,
,,,,,R_49oJeq668XySuxS,001,2025-09-03_11h25.01.477,continuous_performance_test,2024.2.4,Win32,60.60606061,b36053b4-2c63-4717-9399-3ab033b13773,3,422.6513,424.5403,space,1,0,0,0,8,1,I,space,0.524,,407.6432,422.641,,,,,,,,
,,,,,R_49oJeq668XySuxS,001,2025-09-03_11h25.01.477,continuous_performance_test,2024.2.4,Win32,60.60606061,b36053b4-2c63-4717-9399-3ab033b13773,3,424.5424,426.1911,space,1,0,1,1,1,1,B,space,0.3721,,,,,,,,,,,
,,,,,R_49oJeq668XySuxS,001,2025-09-03_11h25.01.477,continuous_performance_test,2024.2.4,Win32,60.60606061,b36053b4-2c63-4717-9399-3ab033b13773,3,426.1937,428.1411,space,1,0,2,2,24,1,Z,space,0.3681,,,,,,,,,,,
,,,,,R_49oJeq668XySuxS,001,2025-09-03_11h25.01.477,continuous_performance_test,2024.2.4,Win32,60.60606061,b36053b4-2c63-4717-9399-3ab033b13773,3,428.1443,430.0909,space,0,0,3,3,25,1,X,,0.3539,,,,,,,,,,,
,,,,,R_49oJeq668XySuxS,001,2025-09-03_11h25.01.477,continuous_performance_test,2024.2.4,Win32,60.60606061,b36053b4-2c63-4717-9399-3ab033b13773,3,430.0932,431.9915,space,1,0,4,4,9,1,J,space,0.7724,,,,,,,,,,,
,,,,,R_49oJeq668XySuxS,001,2025-09-03_11h25.01.477,continuous_performance_test,2024.2.4,Win32,60.60606061,b36053b4-2c63-4717-9399-3ab033b13773,3,431.9944,433.9406,space,1,0,5,5,2,1,C,space,0.4006,,,,,,,,,,,
,,,,,R_49oJeq668XySuxS,001,2025-09-03_11h25.01.477,continuous_performance_test,2024.2.4,Win32,60.60606061,b36053b4-2c63-4717-9399-3ab033b13773,3,433.9427,435.5408,space,1,0,6,6,22,1,W,space,0.3375,,,,,,,,,,,
,,,,,R_49oJeq668XySuxS,001,2025-09-03_11h25.01.477,continuous_performance_test,2024.2.4,Win32,60.60606061,b36053b4-2c63-4717-9399-3ab033b13773,3,435.5436,437.1404,space,1,0,7,7,5,1,F,space,0.3683,,,,,,,,,,,
,,,,,R_49oJeq668XySuxS,001,2025-09-03_11h25.01.477,continuous_performance_test,2024.2.4,Win32,60.60606061,b36053b4-2c63-4717-9399-3ab033b13773,3,437.1418,438.7908,space,1,0,8,8,11,1,L,space,0.3922,,,,,,,,,,,
,,,,,R_49oJeq668XySuxS,001,2025-09-03_11h25.01.477,continuous_performance_test,2024.2.4,Win32,60.60606061,b36053b4-2c63-4717-9399-3ab033b13773,3,438.7931,440.6917,space,1,0,9,9,13,1,N,space,0.3224,,,,,,,,,,,
,,,,,R_49oJeq668XySuxS,001,2025-09-03_11h25.01.477,continuous_performance_test,2024.2.4,Win32,60.60606061,b36053b4-2c63-4717-9399-3ab033b13773,3,440.6942,442.6411,space,1,0,10,10,0,1,A,space,0.3379,,,,,,,,,,,
,,,,,R_49oJeq668XySuxS,001,2025-09-03_11h25.01.477,continuous_performance_test,2024.2.4,Win32,60.60606061,b36053b4-2c63-4717-9399-3ab033b13773,3,442.6447,444.3407,space,1,0,11,11,18,1,S,space,0.3025,,,,,,,,,,,
,,,,,R_49oJeq668XySuxS,001,2025-09-03_11h25.01.477,continuous_performance_test,2024.2.4,Win32,60.60606061,b36053b4-2c63-4717-9399-3ab033b13773,3,444.3428,445.9911,space,0,0,12,12,26,1,X,,0.3996,,,,,,,,,,,
,,,,,R_49oJeq668XySuxS,001,2025-09-03_11h25.01.477,continuous_performance_test,2024.2.4,Win32,60.60606061,b36053b4-2c63-4717-9399-3ab033b13773,3,445.9935,447.5405,,1,0,13,13,29,1,X,,,,,,,,,,,,,
,,,,,R_49oJeq668XySuxS,001,2025-09-03_11h25.01.477,continuous_performance_test,2024.2.4,Win32,60.60606061,b36053b4-2c63-4717-9399-3ab033b13773,3,447.5428,449.091,space,1,0,14,14,14,1,O,space,0.4178,,,,,,,,,,,
,,,,,R_49oJeq668XySuxS,001,2025-09-03_11h25.01.477,continuous_performance_test,2024.2.4,Win32,60.60606061,b36053b4-2c63-4717-9399-3ab033b13773,3,449.0936,450.8408,space,1,0,15,15,15,1,P,space,0.3833,,,,,,,,,,,
,,,,,R_49oJeq668XySuxS,001,2025-09-03_11h25.01.477,continuous_performance_test,2024.2.4,Win32,60.60606061,b36053b4-2c63-4717-9399-3ab033b13773,3,450.8427,452.4408,space,1,0,16,16,7,1,H,space,0.4838,,,,,,,,,,,
,,,,,R_49oJeq668XySuxS,001,2025-09-03_11h25.01.477,continuous_performance_test,2024.2.4,Win32,60.60606061,b36053b4-2c63-4717-9399-3ab033b13773,3,452.4434,454.191,space,1,0,17,17,3,1,D,space,0.4666,,,,,,,,,,,
,,,,,R_49oJeq668XySuxS,001,2025-09-03_11h25.01.477,continuous_performance_test,2024.2.4,Win32,60.60606061,b36053b4-2c63-4717-9399-3ab033b13773,3,454.1939,455.8407,space,1,0,18,18,23,1,Y,space,0.6343,,,,,,,,,,,
,,,,,R_49oJeq668XySuxS,001,2025-09-03_11h25.01.477,continuous_performance_test,2024.2.4,Win32,60.60606061,b36053b4-2c63-4717-9399-3ab033b13773,3,455.8429,457.5408,space,1,0,19,19,19,1,T,space,0.5974,,,,,,,,,,,
,,,,,R_49oJeq668XySuxS,001,2025-09-03_11h25.01.477,continuous_performance_test,2024.2.4,Win32,60.60606061,b36053b4-2c63-4717-9399-3ab033b13773,3,457.5435,459.391,space,1,0,20,20,17,1,R,space,0.4474,,,,,,,,,,,
,,,,,R_49oJeq668XySuxS,001,2025-09-03_11h25.01.477,continuous_performance_test,2024.2.4,Win32,60.60606061,b36053b4-2c63-4717-9399-3ab033b13773,3,459.3924,461.2415,,1,0,21,21,27,1,X,,,,,,,,,,,,,
,,,,,R_49oJeq668XySuxS,001,2025-09-03_11h25.01.477,continuous_performance_test,2024.2.4,Win32,60.60606061,b36053b4-2c63-4717-9399-3ab033b13773,3,461.2434,462.8409,space,1,0,22,22,21,1,V,space,0.5547,,,,,,,,,,,
,,,,,R_49oJeq668XySuxS,001,2025-09-03_11h25.01.477,continuous_performance_test,2024.2.4,Win32,60.60606061,b36053b4-2c63-4717-9399-3ab033b13773,3,462.8435,464.8409,space,1,0,23,23,20,1,U,space,0.4323,,,,,,,,,,,
,,,,,R_49oJeq668XySuxS,001,2025-09-03_11h25.01.477,continuous_performance_test,2024.2.4,Win32,60.60606061,b36053b4-2c63-4717-9399-3ab033b13773,3,464.8434,466.6408,space,1,0,24,24,16,1,Q,space,0.3177,,,,,,,,,,,
,,,,,R_49oJeq668XySuxS,001,2025-09-03_11h25.01.477,continuous_performance_test,2024.2.4,Win32,60.60606061,b36053b4-2c63-4717-9399-3ab033b13773,3,466.6438,468.6407,space,1,0,25,25,6,1,G,space,0.6198,,,,,,,,,,,
,,,,,R_49oJeq668XySuxS,001,2025-09-03_11h25.01.477,continuous_performance_test,2024.2.4,Win32,60.60606061,b36053b4-2c63-4717-9399-3ab033b13773,3,468.6432,470.4901,space,1,0,26,26,4,1,E,space,0.5328,,,,,,,,,,,
,,,,,R_49oJeq668XySuxS,001,2025-09-03_11h25.01.477,continuous_performance_test,2024.2.4,Win32,60.60606061,b36053b4-2c63-4717-9399-3ab033b13773,3,470.4906,472.2905,space,1,0,27,27,10,1,K,space,0.3658,,,,,,,,,,,
,,,,,R_49oJeq668XySuxS,001,2025-09-03_11h25.01.477,continuous_performance_test,2024.2.4,Win32,60.60606061,b36053b4-2c63-4717-9399-3ab033b13773,3,472.2936,473.8912,,1,0,28,28,28,1,X,,,,,,,,,,,,,
,,,,,R_49oJeq668XySuxS,001,2025-09-03_11h25.01.477,continuous_performance_test,2024.2.4,Win32,60.60606061,b36053b4-2c63-4717-9399-3ab033b13773,3,473.8938,475.5909,space,1,0,29,29,12,1,M,space,0.5734,,,,,,,,,,,
,,,,,R_49oJeq668XySuxS,001,2025-09-03_11h25.01.477,continuous_performance_test,2024.2.4,Win32,60.60606061,b36053b4-2c63-4717-9399-3ab033b13773,3,484.3323,486.0239,space,1,0,0,0,9,1,J,space,0.4332,,475.593,484.3244,space,8.7114,,,,,,
,,,,,R_49oJeq668XySuxS,001,2025-09-03_11h25.01.477,continuous_performance_test,2024.2.4,Win32,60.60606061,b36053b4-2c63-4717-9399-3ab033b13773,3,486.0261,488.0246,,1,0,1,1,28,1,X,,,,,,,,,,,,,
,,,,,R_49oJeq668XySuxS,001,2025-09-03_11h25.01.477,continuous_performance_test,2024.2.4,Win32,60.60606061,b36053b4-2c63-4717-9399-3ab033b13773,3,488.0272,489.5741,space,1,0,2,2,13,1,N,space,0.4386,,,,,,,,,,,
,,,,,R_49oJeq668XySuxS,001,2025-09-03_11h25.01.477,continuous_performance_test,2024.2.4,Win32,60.60606061,b36053b4-2c63-4717-9399-3ab033b13773,3,489.5773,491.1746,space,1,0,3,3,10,1,K,space,0.5333,,,,,,,,,,,
,,,,,R_49oJeq668XySuxS,001,2025-09-03_11h25.01.477,continuous_performance_test,2024.2.4,Win32,60.60606061,b36053b4-2c63-4717-9399-3ab033b13773,3,491.1775,493.1238,,1,0,4,4,25,1,X,,,,,,,,,,,,,
,,,,,R_49oJeq668XySuxS,001,2025-09-03_11h25.01.477,continuous_performance_test,2024.2.4,Win32,60.60606061,b36053b4-2c63-4717-9399-3ab033b13773,3,493.1244,494.9747,space,1,0,5,5,18,1,S,space,0.3681,,,,,,,,,,,
,,,,,R_49oJeq668XySuxS,001,2025-09-03_11h25.01.477,continuous_performance_test,2024.2.4,Win32,60.60606061,b36053b4-2c63-4717-9399-3ab033b13773,3,494.9768,496.6247,space,1,0,6,6,17,1,R,space,0.3915,,,,,,,,,,,
,,,,,R_49oJeq668XySuxS,001,2025-09-03_11h25.01.477,continuous_performance_test,2024.2.4,Win32,60.60606061,b36053b4-2c63-4717-9399-3ab033b13773,3,496.6274,498.5245,space,1,0,7,7,6,1,G,space,0.3839,,,,,,,,,,,
,,,,,R_49oJeq668XySuxS,001,2025-09-03_11h25.01.477,continuous_performance_test,2024.2.4,Win32,60.60606061,b36053b4-2c63-4717-9399-3ab033b13773,3,498.5271,500.0747,space,1,0,8,8,3,1,D,space,0.4191,,,,,,,,,,,
,,,,,R_49oJeq668XySuxS,001,2025-09-03_11h25.01.477,continuous_performance_test,2024.2.4,Win32,60.60606061,b36053b4-2c63-4717-9399-3ab033b13773,3,500.0777,502.0743,space,1,0,9,9,12,1,M,space,0.3212,,,,,,,,,,,
,,,,,R_49oJeq668XySuxS,001,2025-09-03_11h25.01.477,continuous_performance_test,2024.2.4,Win32,60.60606061,b36053b4-2c63-4717-9399-3ab033b13773,3,502.0771,503.6744,space,1,0,10,10,22,1,W,space,0.4494,,,,,,,,,,,
,,,,,R_49oJeq668XySuxS,001,2025-09-03_11h25.01.477,continuous_performance_test,2024.2.4,Win32,60.60606061,b36053b4-2c63-4717-9399-3ab033b13773,3,503.6773,505.5743,space,1,0,11,11,15,1,P,space,0.318,,,,,,,,,,,
,,,,,R_49oJeq668XySuxS,001,2025-09-03_11h25.01.477,continuous_performance_test,2024.2.4,Win32,60.60606061,b36053b4-2c63-4717-9399-3ab033b13773,3,505.5771,507.3241,space,1,0,12,12,14,1,O,space,0.4499,,,,,,,,,,,
,,,,,R_49oJeq668XySuxS,001,2025-09-03_11h25.01.477,continuous_performance_test,2024.2.4,Win32,60.60606061,b36053b4-2c63-4717-9399-3ab033b13773,3,507.3266,508.8741,space,0,0,13,13,29,1,X,,0.3481,,,,,,,,,,,
,,,,,R_49oJeq668XySuxS,001,2025-09-03_11h25.01.477,continuous_performance_test,2024.2.4,Win32,60.60606061,b36053b4-2c63-4717-9399-3ab033b13773,3,508.8762,510.4742,space,1,0,14,14,5,1,F,space,0.6171,,,,,,,,,,,
,,,,,R_49oJeq668XySuxS,001,2025-09-03_11h25.01.477,continuous_performance_test,2024.2.4,Win32,60.60606061,b36053b4-2c63-4717-9399-3ab033b13773,3,510.4768,512.1739,space,1,0,15,15,4,1,E,space,0.4376,,,,,,,,,,,
,,,,,R_49oJeq668XySuxS,001,2025-09-03_11h25.01.477,continuous_performance_test,2024.2.4,Win32,60.60606061,b36053b4-2c63-4717-9399-3ab033b13773,3,512.1766,513.8743,space,1,0,16,16,19,1,T,space,0.3697,,,,,,,,,,,
,,,,,R_49oJeq668XySuxS,001,2025-09-03_11h25.01.477,continuous_performance_test,2024.2.4,Win32,60.60606061,b36053b4-2c63-4717-9399-3ab033b13773,3,513.8768,515.4248,,1,0,17,17,26,1,X,,,,,,,,,,,,,
,,,,,R_49oJeq668XySuxS,001,2025-09-03_11h25.01.477,continuous_performance_test,2024.2.4,Win32,60.60606061,b36053b4-2c63-4717-9399-3ab033b13773,3,515.4274,516.9743,space,1,0,18,18,24,1,Z,space,0.4528,,,,,,,,,,,
,,,,,R_49oJeq668XySuxS,001,2025-09-03_11h25.01.477,continuous_performance_test,2024.2.4,Win32,60.60606061,b36053b4-2c63-4717-9399-3ab033b13773,3,516.9771,518.9237,space,1,0,19,19,11,1,L,space,0.5738,,,,,,,,,,,
,,,,,R_49oJeq668XySuxS,001,2025-09-03_11h25.01.477,continuous_performance_test,2024.2.4,Win32,60.60606061,b36053b4-2c63-4717-9399-3ab033b13773,3,518.9262,520.8744,space,1,0,20,20,21,1,V,space,0.5145,,,,,,,,,,,
,,,,,R_49oJeq668XySuxS,001,2025-09-03_11h25.01.477,continuous_performance_test,2024.2.4,Win32,60.60606061,b36053b4-2c63-4717-9399-3ab033b13773,3,520.8769,522.7735,space,1,0,21,21,8,1,I,space,0.552,,,,,,,,,,,
,,,,,R_49oJeq668XySuxS,001,2025-09-03_11h25.01.477,continuous_performance_test,2024.2.4,Win32,60.60606061,b36053b4-2c63-4717-9399-3ab033b13773,3,522.775,524.7241,space,1,0,22,22,16,1,Q,space,0.5051,,,,,,,,,,,
,,,,,R_49oJeq668XySuxS,001,2025-09-03_11h25.01.477,continuous_performance_test,2024.2.4,Win32,60.60606061,b36053b4-2c63-4717-9399-3ab033b13773,3,524.7266,526.4741,space,1,0,23,23,7,1,H,space,0.385,,,,,,,,,,,
,,,,,R_49oJeq668XySuxS,001,2025-09-03_11h25.01.477,continuous_performance_test,2024.2.4,Win32,60.60606061,b36053b4-2c63-4717-9399-3ab033b13773,3,526.4761,528.424,space,1,0,24,24,23,1,Y,space,0.5161,,,,,,,,,,,
,,,,,R_49oJeq668XySuxS,001,2025-09-03_11h25.01.477,continuous_performance_test,2024.2.4,Win32,60.60606061,b36053b4-2c63-4717-9399-3ab033b13773,3,528.4263,530.2247,,1,0,25,25,27,1,X,,,,,,,,,,,,,
,,,,,R_49oJeq668XySuxS,001,2025-09-03_11h25.01.477,continuous_performance_test,2024.2.4,Win32,60.60606061,b36053b4-2c63-4717-9399-3ab033b13773,3,530.2273,531.9743,space,1,0,26,26,20,1,U,space,0.6168,,,,,,,,,,,
,,,,,R_49oJeq668XySuxS,001,2025-09-03_11h25.01.477,continuous_performance_test,2024.2.4,Win32,60.60606061,b36053b4-2c63-4717-9399-3ab033b13773,3,531.9765,533.9745,space,1,0,27,27,2,1,C,space,0.6554,,,,,,,,,,,
,,,,,R_49oJeq668XySuxS,001,2025-09-03_11h25.01.477,continuous_performance_test,2024.2.4,Win32,60.60606061,b36053b4-2c63-4717-9399-3ab033b13773,3,533.9772,535.7245,space,1,0,28,28,0,1,A,space,0.6157,,,,,,,,,,,
,,,,,R_49oJeq668XySuxS,001,2025-09-03_11h25.01.477,continuous_performance_test,2024.2.4,Win32,60.60606061,b36053b4-2c63-4717-9399-3ab033b13773,3,535.727,537.6738,space,1,0,29,29,1,1,B,space,0.6655,,,,,,,,,,,
,,,,,R_49oJeq668XySuxS,001,2025-09-03_11h25.01.477,continuous_performance_test,2024.2.4,Win32,60.60606061,b36053b4-2c63-4717-9399-3ab033b13773,3,552.6855,554.674,,0,0,0,0,14,1,O,space,,,537.6758,552.6752,,,,,,,,
,,,,,R_49oJeq668XySuxS,001,2025-09-03_11h25.01.477,continuous_performance_test,2024.2.4,Win32,60.60606061,b36053b4-2c63-4717-9399-3ab033b13773,3,554.6768,556.5239,space,1,0,1,1,3,1,D,space,0.5229,,,,,,,,,,,
,,,,,R_49oJeq668XySuxS,001,2025-09-03_11h25.01.477,continuous_performance_test,2024.2.4,Win32,60.60606061,b36053b4-2c63-4717-9399-3ab033b13773,3,556.525,558.1243,space,1,0,2,2,6,1,G,space,0.5609,,,,,,,,,,,
,,,,,R_49oJeq668XySuxS,001,2025-09-03_11h25.01.477,continuous_performance_test,2024.2.4,Win32,60.60606061,b36053b4-2c63-4717-9399-3ab033b13773,3,558.1263,560.1239,space,1,0,3,3,15,1,P,space,0.3682,,,,,,,,,,,
,,,,,R_49oJeq668XySuxS,001,2025-09-03_11h25.01.477,continuous_performance_test,2024.2.4,Win32,60.60606061,b36053b4-2c63-4717-9399-3ab033b13773,3,560.126,562.0244,space,1,0,4,4,13,1,N,space,0.3326,,,,,,,,,,,
,,,,,R_49oJeq668XySuxS,001,2025-09-03_11h25.01.477,continuous_performance_test,2024.2.4,Win32,60.60606061,b36053b4-2c63-4717-9399-3ab033b13773,3,562.0266,563.624,space,1,0,5,5,24,1,Z,space,0.3717,,,,,,,,,,,
,,,,,R_49oJeq668XySuxS,001,2025-09-03_11h25.01.477,continuous_performance_test,2024.2.4,Win32,60.60606061,b36053b4-2c63-4717-9399-3ab033b13773,3,563.6268,565.2244,space,1,0,6,6,5,1,F,space,0.4049,,,,,,,,,,,
,,,,,R_49oJeq668XySuxS,001,2025-09-03_11h25.01.477,continuous_performance_test,2024.2.4,Win32,60.60606061,b36053b4-2c63-4717-9399-3ab033b13773,3,565.2269,567.1748,space,0,0,7,7,28,1,X,,0.3505,,,,,,,,,,,
,,,,,R_49oJeq668XySuxS,001,2025-09-03_11h25.01.477,continuous_performance_test,2024.2.4,Win32,60.60606061,b36053b4-2c63-4717-9399-3ab033b13773,3,567.1763,568.9735,space,1,0,8,8,8,1,I,space,0.3344,,,,,,,,,,,
,,,,,R_49oJeq668XySuxS,001,2025-09-03_11h25.01.477,continuous_performance_test,2024.2.4,Win32,60.60606061,b36053b4-2c63-4717-9399-3ab033b13773,3,568.9747,570.9745,space,0,0,9,9,26,1,X,,0.4232,,,,,,,,,,,
,,,,,R_49oJeq668XySuxS,001,2025-09-03_11h25.01.477,continuous_performance_test,2024.2.4,Win32,60.60606061,b36053b4-2c63-4717-9399-3ab033b13773,3,570.9763,572.825,space,1,0,10,10,22,1,W,space,0.5172,,,,,,,,,,,
,,,,,R_49oJeq668XySuxS,001,2025-09-03_11h25.01.477,continuous_performance_test,2024.2.4,Win32,60.60606061,b36053b4-2c63-4717-9399-3ab033b13773,3,572.8264,574.5745,space,1,0,11,11,0,1,A,space,0.4057,,,,,,,,,,,
,,,,,R_49oJeq668XySuxS,001,2025-09-03_11h25.01.477,continuous_performance_test,2024.2.4,Win32,60.60606061,b36053b4-2c63-4717-9399-3ab033b13773,3,574.5766,576.1746,space,1,0,12,12,7,1,H,space,0.3846,,,,,,,,,,,
,,,,,R_49oJeq668XySuxS,001,2025-09-03_11h25.01.477,continuous_performance_test,2024.2.4,Win32,60.60606061,b36053b4-2c63-4717-9399-3ab033b13773,3,576.1772,578.174,space,1,0,13,13,2,1,C,space,0.4148,,,,,,,,,,,
,,,,,R_49oJeq668XySuxS,001,2025-09-03_11h25.01.477,continuous_performance_test,2024.2.4,Win32,60.60606061,b36053b4-2c63-4717-9399-3ab033b13773,3,578.1753,580.0241,space,1,0,14,14,18,1,S,space,0.3555,,,,,,,,,,,
,,,,,R_49oJeq668XySuxS,001,2025-09-03_11h25.01.477,continuous_performance_test,2024.2.4,Win32,60.60606061,b36053b4-2c63-4717-9399-3ab033b13773,3,580.0264,581.9753,space,1,0,15,15,9,1,J,space,0.5813,,,,,,,,,,,
,,,,,R_49oJeq668XySuxS,001,2025-09-03_11h25.01.477,continuous_performance_test,2024.2.4,Win32,60.60606061,b36053b4-2c63-4717-9399-3ab033b13773,3,581.9777,583.7749,space,1,0,16,16,12,1,M,space,0.3892,,,,,,,,,,,
,,,,,R_49oJeq668XySuxS,001,2025-09-03_11h25.01.477,continuous_performance_test,2024.2.4,Win32,60.60606061,b36053b4-2c63-4717-9399-3ab033b13773,3,583.7773,585.6242,space,1,0,17,17,17,1,R,space,0.6373,,,,,,,,,,,
,,,,,R_49oJeq668XySuxS,001,2025-09-03_11h25.01.477,continuous_performance_test,2024.2.4,Win32,60.60606061,b36053b4-2c63-4717-9399-3ab033b13773,3,585.6265,587.4237,,1,0,18,18,29,1,X,,,,,,,,,,,,,
,,,,,R_49oJeq668XySuxS,001,2025-09-03_11h25.01.477,continuous_performance_test,2024.2.4,Win32,60.60606061,b36053b4-2c63-4717-9399-3ab033b13773,3,587.4247,589.1239,space,1,0,19,19,11,1,L,space,0.4846,,,,,,,,,,,
,,,,,R_49oJeq668XySuxS,001,2025-09-03_11h25.01.477,continuous_performance_test,2024.2.4,Win32,60.60606061,b36053b4-2c63-4717-9399-3ab033b13773,3,589.1261,591.0233,space,1,0,20,20,19,1,T,space,0.5315,,,,,,,,,,,
,,,,,R_49oJeq668XySuxS,001,2025-09-03_11h25.01.477,continuous_performance_test,2024.2.4,Win32,60.60606061,b36053b4-2c63-4717-9399-3ab033b13773,3,591.0242,592.925,space,1,0,21,21,4,1,E,space,0.4559,,,,,,,,,,,
,,,,,R_49oJeq668XySuxS,001,2025-09-03_11h25.01.477,continuous_performance_test,2024.2.4,Win32,60.60606061,b36053b4-2c63-4717-9399-3ab033b13773,3,592.927,594.7742,space,0,0,22,22,27,1,X,,0.4194,,,,,,,,,,,
,,,,,R_49oJeq668XySuxS,001,2025-09-03_11h25.01.477,continuous_performance_test,2024.2.4,Win32,60.60606061,b36053b4-2c63-4717-9399-3ab033b13773,3,594.7767,596.7757,space,1,0,23,23,23,1,Y,space,0.6214,,,,,,,,,,,
,,,,,R_49oJeq668XySuxS,001,2025-09-03_11h25.01.477,continuous_performance_test,2024.2.4,Win32,60.60606061,b36053b4-2c63-4717-9399-3ab033b13773,3,596.7782,598.4749,,1,0,24,24,25,1,X,,,,,,,,,,,,,
,,,,,R_49oJeq668XySuxS,001,2025-09-03_11h25.01.477,continuous_performance_test,2024.2.4,Win32,60.60606061,b36053b4-2c63-4717-9399-3ab033b13773,3,598.4769,600.3244,space,1,0,25,25,16,1,Q,space,0.7209,,,,,,,,,,,
,,,,,R_49oJeq668XySuxS,001,2025-09-03_11h25.01.477,continuous_performance_test,2024.2.4,Win32,60.60606061,b36053b4-2c63-4717-9399-3ab033b13773,3,600.3274,602.1745,space,1,0,26,26,1,1,B,space,0.5754,,,,,,,,,,,
,,,,,R_49oJeq668XySuxS,001,2025-09-03_11h25.01.477,continuous_performance_test,2024.2.4,Win32,60.60606061,b36053b4-2c63-4717-9399-3ab033b13773,3,602.1768,604.1237,space,1,0,27,27,20,1,U,space,0.3746,,,,,,,,,,,
,,,,,R_49oJeq668XySuxS,001,2025-09-03_11h25.01.477,continuous_performance_test,2024.2.4,Win32,60.60606061,b36053b4-2c63-4717-9399-3ab033b13773,3,604.1243,605.824,space,1,0,28,28,21,1,V,space,0.333,,,,,,,,,,,
,,,,,R_49oJeq668XySuxS,001,2025-09-03_11h25.01.477,continuous_performance_test,2024.2.4,Win32,60.60606061,b36053b4-2c63-4717-9399-3ab033b13773,3,605.8267,607.3739,space,1,0,29,29,10,1,K,space,0.5369,,,,,,,,,,,
,,,,,R_49oJeq668XySuxS,001,2025-09-03_11h25.01.477,continuous_performance_test,2024.2.4,Win32,60.60606061,b36053b4-2c63-4717-9399-3ab033b13773,3,612.118,613.9578,space,1,0,0,0,13,1,N,space,0.422,,607.376,612.1077,space,4.7114,,,,,,
,,,,,R_49oJeq668XySuxS,001,2025-09-03_11h25.01.477,continuous_performance_test,2024.2.4,Win32,60.60606061,b36053b4-2c63-4717-9399-3ab033b13773,3,613.9612,615.6578,space,1,0,1,1,5,1,F,space,0.386,,,,,,,,,,,
,,,,,R_49oJeq668XySuxS,001,2025-09-03_11h25.01.477,continuous_performance_test,2024.2.4,Win32,60.60606061,b36053b4-2c63-4717-9399-3ab033b13773,3,615.6602,617.6082,space,1,0,2,2,2,1,C,space,0.4192,,,,,,,,,,,
,,,,,R_49oJeq668XySuxS,001,2025-09-03_11h25.01.477,continuous_performance_test,2024.2.4,Win32,60.60606061,b36053b4-2c63-4717-9399-3ab033b13773,3,617.6109,619.6078,space,1,0,3,3,3,1,D,space,0.3888,,,,,,,,,,,
,,,,,R_49oJeq668XySuxS,001,2025-09-03_11h25.01.477,continuous_performance_test,2024.2.4,Win32,60.60606061,b36053b4-2c63-4717-9399-3ab033b13773,3,619.6102,621.5576,space,1,0,4,4,11,1,L,space,0.4808,,,,,,,,,,,
,,,,,R_49oJeq668XySuxS,001,2025-09-03_11h25.01.477,continuous_performance_test,2024.2.4,Win32,60.60606061,b36053b4-2c63-4717-9399-3ab033b13773,3,621.5593,623.5074,space,1,0,5,5,21,1,V,space,0.66,,,,,,,,,,,
,,,,,R_49oJeq668XySuxS,001,2025-09-03_11h25.01.477,continuous_performance_test,2024.2.4,Win32,60.60606061,b36053b4-2c63-4717-9399-3ab033b13773,3,623.5112,625.5075,space,1,0,6,6,14,1,O,space,0.5683,,,,,,,,,,,
,,,,,R_49oJeq668XySuxS,001,2025-09-03_11h25.01.477,continuous_performance_test,2024.2.4,Win32,60.60606061,b36053b4-2c63-4717-9399-3ab033b13773,3,625.5098,627.4074,space,1,0,7,7,23,1,Y,space,0.3811,,,,,,,,,,,
,,,,,R_49oJeq668XySuxS,001,2025-09-03_11h25.01.477,continuous_performance_test,2024.2.4,Win32,60.60606061,b36053b4-2c63-4717-9399-3ab033b13773,3,627.4101,628.9579,space,1,0,8,8,20,1,U,space,0.5143,,,,,,,,,,,
,,,,,R_49oJeq668XySuxS,001,2025-09-03_11h25.01.477,continuous_performance_test,2024.2.4,Win32,60.60606061,b36053b4-2c63-4717-9399-3ab033b13773,3,628.9599,630.9574,space,1,0,9,9,16,1,Q,space,0.4996,,,,,,,,,,,
,,,,,R_49oJeq668XySuxS,001,2025-09-03_11h25.01.477,continuous_performance_test,2024.2.4,Win32,60.60606061,b36053b4-2c63-4717-9399-3ab033b13773,3,630.9597,632.5078,,1,0,10,10,27,1,X,,,,,,,,,,,,,
,,,,,R_49oJeq668XySuxS,001,2025-09-03_11h25.01.477,continuous_performance_test,2024.2.4,Win32,60.60606061,b36053b4-2c63-4717-9399-3ab033b13773,3,632.5104,634.5081,,1,0,11,11,29,1,X,,,,,,,,,,,,,
,,,,,R_49oJeq668XySuxS,001,2025-09-03_11h25.01.477,continuous_performance_test,2024.2.4,Win32,60.60606061,b36053b4-2c63-4717-9399-3ab033b13773,3,634.5102,636.357,space,1,0,12,12,10,1,K,space,0.6038,,,,,,,,,,,
,,,,,R_49oJeq668XySuxS,001,2025-09-03_11h25.01.477,continuous_performance_test,2024.2.4,Win32,60.60606061,b36053b4-2c63-4717-9399-3ab033b13773,3,636.3596,638.2075,space,1,0,13,13,9,1,J,space,0.4334,,,,,,,,,,,
,,,,,R_49oJeq668XySuxS,001,2025-09-03_11h25.01.477,continuous_performance_test,2024.2.4,Win32,60.60606061,b36053b4-2c63-4717-9399-3ab033b13773,3,638.2103,640.2076,,1,0,14,14,28,1,X,,,,,,,,,,,,,
,,,,,R_49oJeq668XySuxS,001,2025-09-03_11h25.01.477,continuous_performance_test,2024.2.4,Win32,60.60606061,b36053b4-2c63-4717-9399-3ab033b13773,3,640.21,642.2075,space,1,0,15,15,0,1,A,space,0.6197,,,,,,,,,,,
,,,,,R_49oJeq668XySuxS,001,2025-09-03_11h25.01.477,continuous_performance_test,2024.2.4,Win32,60.60606061,b36053b4-2c63-4717-9399-3ab033b13773,3,642.2099,644.2066,space,1,0,16,16,12,1,M,space,0.5638,,,,,,,,,,,
,,,,,R_49oJeq668XySuxS,001,2025-09-03_11h25.01.477,continuous_performance_test,2024.2.4,Win32,60.60606061,b36053b4-2c63-4717-9399-3ab033b13773,3,644.2074,645.9078,space,1,0,17,17,24,1,Z,space,0.4308,,,,,,,,,,,
,,,,,R_49oJeq668XySuxS,001,2025-09-03_11h25.01.477,continuous_performance_test,2024.2.4,Win32,60.60606061,b36053b4-2c63-4717-9399-3ab033b13773,3,645.9105,647.8575,space,1,0,18,18,22,1,W,space,0.4737,,,,,,,,,,,
,,,,,R_49oJeq668XySuxS,001,2025-09-03_11h25.01.477,continuous_performance_test,2024.2.4,Win32,60.60606061,b36053b4-2c63-4717-9399-3ab033b13773,3,647.8601,649.808,space,1,0,19,19,15,1,P,space,0.4674,,,,,,,,,,,
,,,,,R_49oJeq668XySuxS,001,2025-09-03_11h25.01.477,continuous_performance_test,2024.2.4,Win32,60.60606061,b36053b4-2c63-4717-9399-3ab033b13773,3,649.8101,651.707,,1,0,20,20,25,1,X,,,,,,,,,,,,,
,,,,,R_49oJeq668XySuxS,001,2025-09-03_11h25.01.477,continuous_performance_test,2024.2.4,Win32,60.60606061,b36053b4-2c63-4717-9399-3ab033b13773,3,651.7098,653.3579,space,1,0,21,21,6,1,G,space,0.5494,,,,,,,,,,,
,,,,,R_49oJeq668XySuxS,001,2025-09-03_11h25.01.477,continuous_performance_test,2024.2.4,Win32,60.60606061,b36053b4-2c63-4717-9399-3ab033b13773,3,653.3602,655.1075,space,1,0,22,22,17,1,R,space,0.5514,,,,,,,,,,,
,,,,,R_49oJeq668XySuxS,001,2025-09-03_11h25.01.477,continuous_performance_test,2024.2.4,Win32,60.60606061,b36053b4-2c63-4717-9399-3ab033b13773,3,655.1097,657.1071,space,1,0,23,23,4,1,E,space,0.4315,,,,,,,,,,,
,,,,,R_49oJeq668XySuxS,001,2025-09-03_11h25.01.477,continuous_performance_test,2024.2.4,Win32,60.60606061,b36053b4-2c63-4717-9399-3ab033b13773,3,657.1101,658.6568,space,1,0,24,24,8,1,I,space,0.617,,,,,,,,,,,
,,,,,R_49oJeq668XySuxS,001,2025-09-03_11h25.01.477,continuous_performance_test,2024.2.4,Win32,60.60606061,b36053b4-2c63-4717-9399-3ab033b13773,3,658.6574,660.2573,,1,0,25,25,26,1,X,,,,,,,,,,,,,
,,,,,R_49oJeq668XySuxS,001,2025-09-03_11h25.01.477,continuous_performance_test,2024.2.4,Win32,60.60606061,b36053b4-2c63-4717-9399-3ab033b13773,3,660.2585,661.9578,space,1,0,26,26,18,1,S,space,0.6351,,,,,,,,,,,
,,,,,R_49oJeq668XySuxS,001,2025-09-03_11h25.01.477,continuous_performance_test,2024.2.4,Win32,60.60606061,b36053b4-2c63-4717-9399-3ab033b13773,3,661.96,663.8073,space,1,0,27,27,19,1,T,space,0.6621,,,,,,,,,,,
,,,,,R_49oJeq668XySuxS,001,2025-09-03_11h25.01.477,continuous_performance_test,2024.2.4,Win32,60.60606061,b36053b4-2c63-4717-9399-3ab033b13773,3,663.8099,665.6077,space,1,0,28,28,1,1,B,space,0.7158,,,,,,,,,,,
,,,,,R_49oJeq668XySuxS,001,2025-09-03_11h25.01.477,continuous_performance_test,2024.2.4,Win32,60.60606061,b36053b4-2c63-4717-9399-3ab033b13773,3,665.6099,667.6074,space,1,0,29,29,7,1,H,space,0.5995,,,,,,,,,,,
,,,,,R_49oJeq668XySuxS,001,2025-09-03_11h25.01.477,continuous_performance_test,2024.2.4,Win32,60.60606061,b36053b4-2c63-4717-9399-3ab033b13773,3,,,,,,,,,,,,,,667.6094,667.6109,,,,667.6116,680.7576,space,13.1344,
