Instructions.started,Instructions.stopped,key_resp.keys,key_resp.rt,key_resp.duration,participant,session,date,expName,psychopyVersion,OS,frameRate,realeye-tester-id,realeye-tester-quality_grade,Trial_noX.started,Trial_noX.stopped,response.keys,response.corr,response.rt,response.duration,trials_noX.thisRepN,trials_noX.thisTrialN,trials_noX.thisN,trials_noX.thisIndex,trials_noX.ran,letter,corrAns,BlockBreak.started,BlockBreak.stopped,key_instruct.keys,key_instruct.rt,key_instruct.duration,End_NoX.started,End_NoX.stopped,key_resp_end_noX.keys,key_resp_end_noX.rt,key_resp_end_noX.duration
0.0003,18.2921,space,18.2661,,R_4aDED6tut5LAQSZ,001,2025-08-16_12h13.23.009,continuous_performance_test,2024.2.4,Win32,59.88023952,8f5ffa10-340b-4d0c-b9fd-30a82fb8e917,6,,,,,,,,,,,,,,,,,,,,,,,
,,,,,R_4aDED6tut5LAQSZ,001,2025-08-16_12h13.23.009,continuous_performance_test,2024.2.4,Win32,59.88023952,8f5ffa10-340b-4d0c-b9fd-30a82fb8e917,6,18.3076,20.2078,space,1,0.3926,,0,0,0,4,1,E,space,,,,,,,,,,
,,,,,R_4aDED6tut5LAQSZ,001,2025-08-16_12h13.23.009,continuous_performance_test,2024.2.4,Win32,59.88023952,8f5ffa10-340b-4d0c-b9fd-30a82fb8e917,6,20.2095,21.9564,space,0,0.301,,0,1,1,28,1,X,,,,,,,,,,,
,,,,,R_4aDED6tut5LAQSZ,001,2025-08-16_12h13.23.009,continuous_performance_test,2024.2.4,Win32,59.88023952,8f5ffa10-340b-4d0c-b9fd-30a82fb8e917,6,21.9581,23.9557,space,1,0.2683,,0,2,2,20,1,U,space,,,,,,,,,,
,,,,,R_4aDED6tut5LAQSZ,001,2025-08-16_12h13.23.009,continuous_performance_test,2024.2.4,Win32,59.88023952,8f5ffa10-340b-4d0c-b9fd-30a82fb8e917,6,23.9578,25.7051,space,1,0.3556,,0,3,3,10,1,K,space,,,,,,,,,,
,,,,,R_4aDED6tut5LAQSZ,001,2025-08-16_12h13.23.009,continuous_performance_test,2024.2.4,Win32,59.88023952,8f5ffa10-340b-4d0c-b9fd-30a82fb8e917,6,25.7068,27.7043,space,1,0.348,,0,4,4,8,1,I,space,,,,,,,,,,
,,,,,R_4aDED6tut5LAQSZ,001,2025-08-16_12h13.23.009,continuous_performance_test,2024.2.4,Win32,59.88023952,8f5ffa10-340b-4d0c-b9fd-30a82fb8e917,6,27.706,29.5039,space,1,0.3595,,0,5,5,14,1,O,space,,,,,,,,,,
,,,,,R_4aDED6tut5LAQSZ,001,2025-08-16_12h13.23.009,continuous_performance_test,2024.2.4,Win32,59.88023952,8f5ffa10-340b-4d0c-b9fd-30a82fb8e917,6,29.5057,31.2534,space,1,0.3184,,0,6,6,22,1,W,space,,,,,,,,,,
,,,,,R_4aDED6tut5LAQSZ,001,2025-08-16_12h13.23.009,continuous_performance_test,2024.2.4,Win32,59.88023952,8f5ffa10-340b-4d0c-b9fd-30a82fb8e917,6,31.2553,33.153,space,1,0.3086,,0,7,7,6,1,G,space,,,,,,,,,,
,,,,,R_4aDED6tut5LAQSZ,001,2025-08-16_12h13.23.009,continuous_performance_test,2024.2.4,Win32,59.88023952,8f5ffa10-340b-4d0c-b9fd-30a82fb8e917,6,33.1546,34.9019,space,1,0.2943,,0,8,8,0,1,A,space,,,,,,,,,,
,,,,,R_4aDED6tut5LAQSZ,001,2025-08-16_12h13.23.009,continuous_performance_test,2024.2.4,Win32,59.88023952,8f5ffa10-340b-4d0c-b9fd-30a82fb8e917,6,34.9037,36.8512,space,1,0.354,,0,9,9,16,1,Q,space,,,,,,,,,,
,,,,,R_4aDED6tut5LAQSZ,001,2025-08-16_12h13.23.009,continuous_performance_test,2024.2.4,Win32,59.88023952,8f5ffa10-340b-4d0c-b9fd-30a82fb8e917,6,36.8527,38.5508,,1,,,0,10,10,27,1,X,,,,,,,,,,,
,,,,,R_4aDED6tut5LAQSZ,001,2025-08-16_12h13.23.009,continuous_performance_test,2024.2.4,Win32,59.88023952,8f5ffa10-340b-4d0c-b9fd-30a82fb8e917,6,38.5525,40.3502,space,1,0.4049,,0,11,11,23,1,Y,space,,,,,,,,,,
,,,,,R_4aDED6tut5LAQSZ,001,2025-08-16_12h13.23.009,continuous_performance_test,2024.2.4,Win32,59.88023952,8f5ffa10-340b-4d0c-b9fd-30a82fb8e917,6,40.3519,42.2494,space,1,0.2847,,0,12,12,24,1,Z,space,,,,,,,,,,
,,,,,R_4aDED6tut5LAQSZ,001,2025-08-16_12h13.23.009,continuous_performance_test,2024.2.4,Win32,59.88023952,8f5ffa10-340b-4d0c-b9fd-30a82fb8e917,6,42.2513,44.2489,space,1,0.3242,,0,13,13,19,1,T,space,,,,,,,,,,
,,,,,R_4aDED6tut5LAQSZ,001,2025-08-16_12h13.23.009,continuous_performance_test,2024.2.4,Win32,59.88023952,8f5ffa10-340b-4d0c-b9fd-30a82fb8e917,6,44.2505,45.8988,space,1,0.3623,,0,14,14,9,1,J,space,,,,,,,,,,
,,,,,R_4aDED6tut5LAQSZ,001,2025-08-16_12h13.23.009,continuous_performance_test,2024.2.4,Win32,59.88023952,8f5ffa10-340b-4d0c-b9fd-30a82fb8e917,6,45.9002,47.5482,space,1,0.3504,,0,15,15,15,1,P,space,,,,,,,,,,
,,,,,R_4aDED6tut5LAQSZ,001,2025-08-16_12h13.23.009,continuous_performance_test,2024.2.4,Win32,59.88023952,8f5ffa10-340b-4d0c-b9fd-30a82fb8e917,6,47.5493,49.2474,space,1,0.318,,0,16,16,5,1,F,space,,,,,,,,,,
,,,,,R_4aDED6tut5LAQSZ,001,2025-08-16_12h13.23.009,continuous_performance_test,2024.2.4,Win32,59.88023952,8f5ffa10-340b-4d0c-b9fd-30a82fb8e917,6,49.2486,50.9971,space,1,0.3101,,0,17,17,12,1,M,space,,,,,,,,,,
,,,,,R_4aDED6tut5LAQSZ,001,2025-08-16_12h13.23.009,continuous_performance_test,2024.2.4,Win32,59.88023952,8f5ffa10-340b-4d0c-b9fd-30a82fb8e917,6,50.998,52.7461,space,0,0.342,,0,18,18,26,1,X,,,,,,,,,,,
,,,,,R_4aDED6tut5LAQSZ,001,2025-08-16_12h13.23.009,continuous_performance_test,2024.2.4,Win32,59.88023952,8f5ffa10-340b-4d0c-b9fd-30a82fb8e917,6,52.7476,54.7454,space,1,0.2617,,0,19,19,21,1,V,space,,,,,,,,,,
,,,,,R_4aDED6tut5LAQSZ,001,2025-08-16_12h13.23.009,continuous_performance_test,2024.2.4,Win32,59.88023952,8f5ffa10-340b-4d0c-b9fd-30a82fb8e917,6,54.747,56.5448,space,1,0.3281,,0,20,20,13,1,N,space,,,,,,,,,,
,,,,,R_4aDED6tut5LAQSZ,001,2025-08-16_12h13.23.009,continuous_performance_test,2024.2.4,Win32,59.88023952,8f5ffa10-340b-4d0c-b9fd-30a82fb8e917,6,56.5461,58.294,space,0,0.2717,,0,21,21,25,1,X,,,,,,,,,,,
,,,,,R_4aDED6tut5LAQSZ,001,2025-08-16_12h13.23.009,continuous_performance_test,2024.2.4,Win32,59.88023952,8f5ffa10-340b-4d0c-b9fd-30a82fb8e917,6,58.2952,60.2937,,1,,,0,22,22,29,1,X,,,,,,,,,,,
,,,,,R_4aDED6tut5LAQSZ,001,2025-08-16_12h13.23.009,continuous_performance_test,2024.2.4,Win32,59.88023952,8f5ffa10-340b-4d0c-b9fd-30a82fb8e917,6,60.2952,61.8927,space,1,0.6886,,0,23,23,2,1,C,space,,,,,,,,,,
,,,,,R_4aDED6tut5LAQSZ,001,2025-08-16_12h13.23.009,continuous_performance_test,2024.2.4,Win32,59.88023952,8f5ffa10-340b-4d0c-b9fd-30a82fb8e917,6,61.8943,63.5929,space,1,0.3224,,0,24,24,11,1,L,space,,,,,,,,,,
,,,,,R_4aDED6tut5LAQSZ,001,2025-08-16_12h13.23.009,continuous_performance_test,2024.2.4,Win32,59.88023952,8f5ffa10-340b-4d0c-b9fd-30a82fb8e917,6,63.5945,65.3452,space,1,0.2549,,0,25,25,7,1,H,space,,,,,,,,,,
,,,,,R_4aDED6tut5LAQSZ,001,2025-08-16_12h13.23.009,continuous_performance_test,2024.2.4,Win32,59.88023952,8f5ffa10-340b-4d0c-b9fd-30a82fb8e917,6,65.3468,66.891,space,1,0.3432,,0,26,26,1,1,B,space,,,,,,,,,,
,,,,,R_4aDED6tut5LAQSZ,001,2025-08-16_12h13.23.009,continuous_performance_test,2024.2.4,Win32,59.88023952,8f5ffa10-340b-4d0c-b9fd-30a82fb8e917,6,66.8925,68.6404,space,1,0.3872,,0,27,27,3,1,D,space,,,,,,,,,,
,,,,,R_4aDED6tut5LAQSZ,001,2025-08-16_12h13.23.009,continuous_performance_test,2024.2.4,Win32,59.88023952,8f5ffa10-340b-4d0c-b9fd-30a82fb8e917,6,68.6421,70.3402,space,1,0.2885,,0,28,28,18,1,S,space,,,,,,,,,,
,,,,,R_4aDED6tut5LAQSZ,001,2025-08-16_12h13.23.009,continuous_performance_test,2024.2.4,Win32,59.88023952,8f5ffa10-340b-4d0c-b9fd-30a82fb8e917,6,70.3416,72.3396,space,1,0.4227,,0,29,29,17,1,R,space,,,,,,,,,,
,,,,,R_4aDED6tut5LAQSZ,001,2025-08-16_12h13.23.009,continuous_performance_test,2024.2.4,Win32,59.88023952,8f5ffa10-340b-4d0c-b9fd-30a82fb8e917,6,87.3417,89.2837,,0,,,0,0,0,6,1,G,space,72.3403,87.335,,,,,,,,
,,,,,R_4aDED6tut5LAQSZ,001,2025-08-16_12h13.23.009,continuous_performance_test,2024.2.4,Win32,59.88023952,8f5ffa10-340b-4d0c-b9fd-30a82fb8e917,6,89.2847,90.9335,,0,,,0,1,1,19,1,T,space,,,,,,,,,,
,,,,,R_4aDED6tut5LAQSZ,001,2025-08-16_12h13.23.009,continuous_performance_test,2024.2.4,Win32,59.88023952,8f5ffa10-340b-4d0c-b9fd-30a82fb8e917,6,90.9346,92.6323,space,1,0.3339,,0,2,2,18,1,S,space,,,,,,,,,,
,,,,,R_4aDED6tut5LAQSZ,001,2025-08-16_12h13.23.009,continuous_performance_test,2024.2.4,Win32,59.88023952,8f5ffa10-340b-4d0c-b9fd-30a82fb8e917,6,92.6338,94.4319,space,1,0.2742,,0,3,3,17,1,R,space,,,,,,,,,,
,,,,,R_4aDED6tut5LAQSZ,001,2025-08-16_12h13.23.009,continuous_performance_test,2024.2.4,Win32,59.88023952,8f5ffa10-340b-4d0c-b9fd-30a82fb8e917,6,94.4333,96.0317,space,1,0.2447,,0,4,4,7,1,H,space,,,,,,,,,,
,,,,,R_4aDED6tut5LAQSZ,001,2025-08-16_12h13.23.009,continuous_performance_test,2024.2.4,Win32,59.88023952,8f5ffa10-340b-4d0c-b9fd-30a82fb8e917,6,96.0328,97.8307,space,1,0.3209,,0,5,5,21,1,V,space,,,,,,,,,,
,,,,,R_4aDED6tut5LAQSZ,001,2025-08-16_12h13.23.009,continuous_performance_test,2024.2.4,Win32,59.88023952,8f5ffa10-340b-4d0c-b9fd-30a82fb8e917,6,97.8323,99.63,space,1,0.3783,,0,6,6,4,1,E,space,,,,,,,,,,
,,,,,R_4aDED6tut5LAQSZ,001,2025-08-16_12h13.23.009,continuous_performance_test,2024.2.4,Win32,59.88023952,8f5ffa10-340b-4d0c-b9fd-30a82fb8e917,6,99.6313,101.3296,space,1,0.2942,,0,7,7,23,1,Y,space,,,,,,,,,,
,,,,,R_4aDED6tut5LAQSZ,001,2025-08-16_12h13.23.009,continuous_performance_test,2024.2.4,Win32,59.88023952,8f5ffa10-340b-4d0c-b9fd-30a82fb8e917,6,101.3311,103.1785,space,1,0.4338,,0,8,8,2,1,C,space,,,,,,,,,,
,,,,,R_4aDED6tut5LAQSZ,001,2025-08-16_12h13.23.009,continuous_performance_test,2024.2.4,Win32,59.88023952,8f5ffa10-340b-4d0c-b9fd-30a82fb8e917,6,103.1798,105.0783,space,1,0.4262,,0,9,9,0,1,A,space,,,,,,,,,,
,,,,,R_4aDED6tut5LAQSZ,001,2025-08-16_12h13.23.009,continuous_performance_test,2024.2.4,Win32,59.88023952,8f5ffa10-340b-4d0c-b9fd-30a82fb8e917,6,105.0798,107.0281,,1,,,0,10,10,25,1,X,,,,,,,,,,,
,,,,,R_4aDED6tut5LAQSZ,001,2025-08-16_12h13.23.009,continuous_performance_test,2024.2.4,Win32,59.88023952,8f5ffa10-340b-4d0c-b9fd-30a82fb8e917,6,107.0292,108.9774,space,1,0.3024,,0,11,11,16,1,Q,space,,,,,,,,,,
,,,,,R_4aDED6tut5LAQSZ,001,2025-08-16_12h13.23.009,continuous_performance_test,2024.2.4,Win32,59.88023952,8f5ffa10-340b-4d0c-b9fd-30a82fb8e917,6,108.9787,110.7762,,1,,,0,12,12,29,1,X,,,,,,,,,,,
,,,,,R_4aDED6tut5LAQSZ,001,2025-08-16_12h13.23.009,continuous_performance_test,2024.2.4,Win32,59.88023952,8f5ffa10-340b-4d0c-b9fd-30a82fb8e917,6,110.7775,112.3257,space,1,0.3067,,0,13,13,12,1,M,space,,,,,,,,,,
,,,,,R_4aDED6tut5LAQSZ,001,2025-08-16_12h13.23.009,continuous_performance_test,2024.2.4,Win32,59.88023952,8f5ffa10-340b-4d0c-b9fd-30a82fb8e917,6,112.327,114.2253,space,1,0.2786,,0,14,14,14,1,O,space,,,,,,,,,,
,,,,,R_4aDED6tut5LAQSZ,001,2025-08-16_12h13.23.009,continuous_performance_test,2024.2.4,Win32,59.88023952,8f5ffa10-340b-4d0c-b9fd-30a82fb8e917,6,114.2268,116.1749,space,1,0.3337,,0,15,15,20,1,U,space,,,,,,,,,,
,,,,,R_4aDED6tut5LAQSZ,001,2025-08-16_12h13.23.009,continuous_performance_test,2024.2.4,Win32,59.88023952,8f5ffa10-340b-4d0c-b9fd-30a82fb8e917,6,116.1761,117.8244,space,1,0.2874,,0,16,16,10,1,K,space,,,,,,,,,,
,,,,,R_4aDED6tut5LAQSZ,001,2025-08-16_12h13.23.009,continuous_performance_test,2024.2.4,Win32,59.88023952,8f5ffa10-340b-4d0c-b9fd-30a82fb8e917,6,117.8256,119.3736,space,1,0.3186,,0,17,17,3,1,D,space,,,,,,,,,,
,,,,,R_4aDED6tut5LAQSZ,001,2025-08-16_12h13.23.009,continuous_performance_test,2024.2.4,Win32,59.88023952,8f5ffa10-340b-4d0c-b9fd-30a82fb8e917,6,119.3749,120.9233,,1,,,0,18,18,26,1,X,,,,,,,,,,,
,,,,,R_4aDED6tut5LAQSZ,001,2025-08-16_12h13.23.009,continuous_performance_test,2024.2.4,Win32,59.88023952,8f5ffa10-340b-4d0c-b9fd-30a82fb8e917,6,120.9243,122.9258,,1,,,0,19,19,28,1,X,,,,,,,,,,,
,,,,,R_4aDED6tut5LAQSZ,001,2025-08-16_12h13.23.009,continuous_performance_test,2024.2.4,Win32,59.88023952,8f5ffa10-340b-4d0c-b9fd-30a82fb8e917,6,122.9269,124.9216,space,1,0.298,,0,20,20,13,1,N,space,,,,,,,,,,
,,,,,R_4aDED6tut5LAQSZ,001,2025-08-16_12h13.23.009,continuous_performance_test,2024.2.4,Win32,59.88023952,8f5ffa10-340b-4d0c-b9fd-30a82fb8e917,6,124.9229,126.7215,space,1,0.3673,,0,21,21,1,1,B,space,,,,,,,,,,
,,,,,R_4aDED6tut5LAQSZ,001,2025-08-16_12h13.23.009,continuous_performance_test,2024.2.4,Win32,59.88023952,8f5ffa10-340b-4d0c-b9fd-30a82fb8e917,6,126.7232,128.6205,space,1,0.3938,,0,22,22,5,1,F,space,,,,,,,,,,
,,,,,R_4aDED6tut5LAQSZ,001,2025-08-16_12h13.23.009,continuous_performance_test,2024.2.4,Win32,59.88023952,8f5ffa10-340b-4d0c-b9fd-30a82fb8e917,6,128.6217,130.3198,space,1,0.5334,,0,23,23,24,1,Z,space,,,,,,,,,,
,,,,,R_4aDED6tut5LAQSZ,001,2025-08-16_12h13.23.009,continuous_performance_test,2024.2.4,Win32,59.88023952,8f5ffa10-340b-4d0c-b9fd-30a82fb8e917,6,130.3208,132.1691,space,1,0.3836,,0,24,24,15,1,P,space,,,,,,,,,,
,,,,,R_4aDED6tut5LAQSZ,001,2025-08-16_12h13.23.009,continuous_performance_test,2024.2.4,Win32,59.88023952,8f5ffa10-340b-4d0c-b9fd-30a82fb8e917,6,132.1703,134.1203,space,0,0.2954,,0,25,25,27,1,X,,,,,,,,,,,
,,,,,R_4aDED6tut5LAQSZ,001,2025-08-16_12h13.23.009,continuous_performance_test,2024.2.4,Win32,59.88023952,8f5ffa10-340b-4d0c-b9fd-30a82fb8e917,6,134.122,135.7212,space,1,0.3556,,0,26,26,11,1,L,space,,,,,,,,,,
,,,,,R_4aDED6tut5LAQSZ,001,2025-08-16_12h13.23.009,continuous_performance_test,2024.2.4,Win32,59.88023952,8f5ffa10-340b-4d0c-b9fd-30a82fb8e917,6,135.7229,137.6674,space,1,0.3188,,0,27,27,22,1,W,space,,,,,,,,,,
,,,,,R_4aDED6tut5LAQSZ,001,2025-08-16_12h13.23.009,continuous_performance_test,2024.2.4,Win32,59.88023952,8f5ffa10-340b-4d0c-b9fd-30a82fb8e917,6,137.6685,139.4669,space,1,0.3523,,0,28,28,9,1,J,space,,,,,,,,,,
,,,,,R_4aDED6tut5LAQSZ,001,2025-08-16_12h13.23.009,continuous_performance_test,2024.2.4,Win32,59.88023952,8f5ffa10-340b-4d0c-b9fd-30a82fb8e917,6,139.4689,141.116,space,1,0.3836,,0,29,29,8,1,I,space,,,,,,,,,,
,,,,,R_4aDED6tut5LAQSZ,001,2025-08-16_12h13.23.009,continuous_performance_test,2024.2.4,Win32,59.88023952,8f5ffa10-340b-4d0c-b9fd-30a82fb8e917,6,156.1336,157.7277,space,1,0.357,,0,0,0,5,1,F,space,141.1173,156.1116,,,,,,,,
,,,,,R_4aDED6tut5LAQSZ,001,2025-08-16_12h13.23.009,continuous_performance_test,2024.2.4,Win32,59.88023952,8f5ffa10-340b-4d0c-b9fd-30a82fb8e917,6,157.7296,159.427,space,1,0.3386,,0,1,1,22,1,W,space,,,,,,,,,,
,,,,,R_4aDED6tut5LAQSZ,001,2025-08-16_12h13.23.009,continuous_performance_test,2024.2.4,Win32,59.88023952,8f5ffa10-340b-4d0c-b9fd-30a82fb8e917,6,159.4291,161.1261,space,1,0.3611,,0,2,2,9,1,J,space,,,,,,,,,,
,,,,,R_4aDED6tut5LAQSZ,001,2025-08-16_12h13.23.009,continuous_performance_test,2024.2.4,Win32,59.88023952,8f5ffa10-340b-4d0c-b9fd-30a82fb8e917,6,161.1414,162.8426,space,1,0.3455,,0,3,3,8,1,I,space,,,,,,,,,,
,,,,,R_4aDED6tut5LAQSZ,001,2025-08-16_12h13.23.009,continuous_performance_test,2024.2.4,Win32,59.88023952,8f5ffa10-340b-4d0c-b9fd-30a82fb8e917,6,162.8447,164.692,space,1,0.2565,,0,4,4,3,1,D,space,,,,,,,,,,
,,,,,R_4aDED6tut5LAQSZ,001,2025-08-16_12h13.23.009,continuous_performance_test,2024.2.4,Win32,59.88023952,8f5ffa10-340b-4d0c-b9fd-30a82fb8e917,6,164.6938,166.6414,space,0,0.2685,,0,5,5,28,1,X,,,,,,,,,,,
,,,,,R_4aDED6tut5LAQSZ,001,2025-08-16_12h13.23.009,continuous_performance_test,2024.2.4,Win32,59.88023952,8f5ffa10-340b-4d0c-b9fd-30a82fb8e917,6,166.6433,168.6434,space,1,0.3646,,0,6,6,21,1,V,space,,,,,,,,,,
,,,,,R_4aDED6tut5LAQSZ,001,2025-08-16_12h13.23.009,continuous_performance_test,2024.2.4,Win32,59.88023952,8f5ffa10-340b-4d0c-b9fd-30a82fb8e917,6,168.6455,170.3926,space,1,0.4161,,0,7,7,16,1,Q,space,,,,,,,,,,
,,,,,R_4aDED6tut5LAQSZ,001,2025-08-16_12h13.23.009,continuous_performance_test,2024.2.4,Win32,59.88023952,8f5ffa10-340b-4d0c-b9fd-30a82fb8e917,6,170.3947,172.2895,space,1,0.3752,,0,8,8,24,1,Z,space,,,,,,,,,,
,,,,,R_4aDED6tut5LAQSZ,001,2025-08-16_12h13.23.009,continuous_performance_test,2024.2.4,Win32,59.88023952,8f5ffa10-340b-4d0c-b9fd-30a82fb8e917,6,172.2911,174.089,space,1,0.3853,,0,9,9,0,1,A,space,,,,,,,,,,
,,,,,R_4aDED6tut5LAQSZ,001,2025-08-16_12h13.23.009,continuous_performance_test,2024.2.4,Win32,59.88023952,8f5ffa10-340b-4d0c-b9fd-30a82fb8e917,6,174.0908,175.7882,,1,,,0,10,10,25,1,X,,,,,,,,,,,
,,,,,R_4aDED6tut5LAQSZ,001,2025-08-16_12h13.23.009,continuous_performance_test,2024.2.4,Win32,59.88023952,8f5ffa10-340b-4d0c-b9fd-30a82fb8e917,6,175.7899,177.6409,space,1,0.3727,,0,11,11,14,1,O,space,,,,,,,,,,
,,,,,R_4aDED6tut5LAQSZ,001,2025-08-16_12h13.23.009,continuous_performance_test,2024.2.4,Win32,59.88023952,8f5ffa10-340b-4d0c-b9fd-30a82fb8e917,6,177.6423,179.237,space,1,0.3852,,0,12,12,2,1,C,space,,,,,,,,,,
,,,,,R_4aDED6tut5LAQSZ,001,2025-08-16_12h13.23.009,continuous_performance_test,2024.2.4,Win32,59.88023952,8f5ffa10-340b-4d0c-b9fd-30a82fb8e917,6,179.239,181.1393,space,1,0.361,,0,13,13,18,1,S,space,,,,,,,,,,
,,,,,R_4aDED6tut5LAQSZ,001,2025-08-16_12h13.23.009,continuous_performance_test,2024.2.4,Win32,59.88023952,8f5ffa10-340b-4d0c-b9fd-30a82fb8e917,6,181.1411,182.7857,space,1,0.4017,,0,14,14,13,1,N,space,,,,,,,,,,
,,,,,R_4aDED6tut5LAQSZ,001,2025-08-16_12h13.23.009,continuous_performance_test,2024.2.4,Win32,59.88023952,8f5ffa10-340b-4d0c-b9fd-30a82fb8e917,6,182.787,184.7847,space,1,0.3542,,0,15,15,17,1,R,space,,,,,,,,,,
,,,,,R_4aDED6tut5LAQSZ,001,2025-08-16_12h13.23.009,continuous_performance_test,2024.2.4,Win32,59.88023952,8f5ffa10-340b-4d0c-b9fd-30a82fb8e917,6,184.7865,186.5844,space,1,0.4206,,0,16,16,19,1,T,space,,,,,,,,,,
,,,,,R_4aDED6tut5LAQSZ,001,2025-08-16_12h13.23.009,continuous_performance_test,2024.2.4,Win32,59.88023952,8f5ffa10-340b-4d0c-b9fd-30a82fb8e917,6,186.5865,188.534,space,1,0.4084,,0,17,17,20,1,U,space,,,,,,,,,,
,,,,,R_4aDED6tut5LAQSZ,001,2025-08-16_12h13.23.009,continuous_performance_test,2024.2.4,Win32,59.88023952,8f5ffa10-340b-4d0c-b9fd-30a82fb8e917,6,188.5356,190.4332,space,1,0.3744,,0,18,18,12,1,M,space,,,,,,,,,,
,,,,,R_4aDED6tut5LAQSZ,001,2025-08-16_12h13.23.009,continuous_performance_test,2024.2.4,Win32,59.88023952,8f5ffa10-340b-4d0c-b9fd-30a82fb8e917,6,190.4353,192.1328,space,1,0.3254,,0,19,19,7,1,H,space,,,,,,,,,,
,,,,,R_4aDED6tut5LAQSZ,001,2025-08-16_12h13.23.009,continuous_performance_test,2024.2.4,Win32,59.88023952,8f5ffa10-340b-4d0c-b9fd-30a82fb8e917,6,192.1343,194.0316,space,1,0.3549,,0,20,20,11,1,L,space,,,,,,,,,,
,,,,,R_4aDED6tut5LAQSZ,001,2025-08-16_12h13.23.009,continuous_performance_test,2024.2.4,Win32,59.88023952,8f5ffa10-340b-4d0c-b9fd-30a82fb8e917,6,194.0334,195.5812,space,1,0.3567,,0,21,21,15,1,P,space,,,,,,,,,,
,,,,,R_4aDED6tut5LAQSZ,001,2025-08-16_12h13.23.009,continuous_performance_test,2024.2.4,Win32,59.88023952,8f5ffa10-340b-4d0c-b9fd-30a82fb8e917,6,195.5827,197.331,space,1,0.3263,,0,22,22,4,1,E,space,,,,,,,,,,
,,,,,R_4aDED6tut5LAQSZ,001,2025-08-16_12h13.23.009,continuous_performance_test,2024.2.4,Win32,59.88023952,8f5ffa10-340b-4d0c-b9fd-30a82fb8e917,6,197.3345,198.9803,space,1,0.2871,,0,23,23,1,1,B,space,,,,,,,,,,
,,,,,R_4aDED6tut5LAQSZ,001,2025-08-16_12h13.23.009,continuous_performance_test,2024.2.4,Win32,59.88023952,8f5ffa10-340b-4d0c-b9fd-30a82fb8e917,6,198.9821,200.9297,,1,,,0,24,24,26,1,X,,,,,,,,,,,
,,,,,R_4aDED6tut5LAQSZ,001,2025-08-16_12h13.23.009,continuous_performance_test,2024.2.4,Win32,59.88023952,8f5ffa10-340b-4d0c-b9fd-30a82fb8e917,6,200.9316,202.4793,space,1,0.4017,,0,25,25,6,1,G,space,,,,,,,,,,
,,,,,R_4aDED6tut5LAQSZ,001,2025-08-16_12h13.23.009,continuous_performance_test,2024.2.4,Win32,59.88023952,8f5ffa10-340b-4d0c-b9fd-30a82fb8e917,6,202.4807,204.0799,space,0,0.2745,,0,26,26,29,1,X,,,,,,,,,,,
,,,,,R_4aDED6tut5LAQSZ,001,2025-08-16_12h13.23.009,continuous_performance_test,2024.2.4,Win32,59.88023952,8f5ffa10-340b-4d0c-b9fd-30a82fb8e917,6,204.0814,205.9808,,1,,,0,27,27,27,1,X,,,,,,,,,,,
,,,,,R_4aDED6tut5LAQSZ,001,2025-08-16_12h13.23.009,continuous_performance_test,2024.2.4,Win32,59.88023952,8f5ffa10-340b-4d0c-b9fd-30a82fb8e917,6,205.9824,207.8308,space,1,0.3647,,0,28,28,10,1,K,space,,,,,,,,,,
,,,,,R_4aDED6tut5LAQSZ,001,2025-08-16_12h13.23.009,continuous_performance_test,2024.2.4,Win32,59.88023952,8f5ffa10-340b-4d0c-b9fd-30a82fb8e917,6,207.8328,209.5764,space,1,0.3839,,0,29,29,23,1,Y,space,,,,,,,,,,
,,,,,R_4aDED6tut5LAQSZ,001,2025-08-16_12h13.23.009,continuous_performance_test,2024.2.4,Win32,59.88023952,8f5ffa10-340b-4d0c-b9fd-30a82fb8e917,6,211.4858,213.3752,space,1,0.3036,,0,0,0,10,1,K,space,209.5781,211.4762,space,1.8717,,,,,,
,,,,,R_4aDED6tut5LAQSZ,001,2025-08-16_12h13.23.009,continuous_performance_test,2024.2.4,Win32,59.88023952,8f5ffa10-340b-4d0c-b9fd-30a82fb8e917,6,213.3772,214.9745,space,1,0.3099,,0,1,1,13,1,N,space,,,,,,,,,,
,,,,,R_4aDED6tut5LAQSZ,001,2025-08-16_12h13.23.009,continuous_performance_test,2024.2.4,Win32,59.88023952,8f5ffa10-340b-4d0c-b9fd-30a82fb8e917,6,214.9756,216.9738,space,1,0.2671,,0,2,2,3,1,D,space,,,,,,,,,,
,,,,,R_4aDED6tut5LAQSZ,001,2025-08-16_12h13.23.009,continuous_performance_test,2024.2.4,Win32,59.88023952,8f5ffa10-340b-4d0c-b9fd-30a82fb8e917,6,216.9752,218.5735,space,1,0.3527,,0,3,3,6,1,G,space,,,,,,,,,,
,,,,,R_4aDED6tut5LAQSZ,001,2025-08-16_12h13.23.009,continuous_performance_test,2024.2.4,Win32,59.88023952,8f5ffa10-340b-4d0c-b9fd-30a82fb8e917,6,218.5751,220.5234,,1,,,0,4,4,26,1,X,,,,,,,,,,,
,,,,,R_4aDED6tut5LAQSZ,001,2025-08-16_12h13.23.009,continuous_performance_test,2024.2.4,Win32,59.88023952,8f5ffa10-340b-4d0c-b9fd-30a82fb8e917,6,220.5251,222.1737,space,1,0.3726,,0,5,5,21,1,V,space,,,,,,,,,,
,,,,,R_4aDED6tut5LAQSZ,001,2025-08-16_12h13.23.009,continuous_performance_test,2024.2.4,Win32,59.88023952,8f5ffa10-340b-4d0c-b9fd-30a82fb8e917,6,222.1754,224.1716,space,1,0.2836,,0,6,6,18,1,S,space,,,,,,,,,,
,,,,,R_4aDED6tut5LAQSZ,001,2025-08-16_12h13.23.009,continuous_performance_test,2024.2.4,Win32,59.88023952,8f5ffa10-340b-4d0c-b9fd-30a82fb8e917,6,224.1733,226.0205,space,1,0.3257,,0,7,7,15,1,P,space,,,,,,,,,,
,,,,,R_4aDED6tut5LAQSZ,001,2025-08-16_12h13.23.009,continuous_performance_test,2024.2.4,Win32,59.88023952,8f5ffa10-340b-4d0c-b9fd-30a82fb8e917,6,226.0226,227.6201,space,1,0.2837,,0,8,8,8,1,I,space,,,,,,,,,,
,,,,,R_4aDED6tut5LAQSZ,001,2025-08-16_12h13.23.009,continuous_performance_test,2024.2.4,Win32,59.88023952,8f5ffa10-340b-4d0c-b9fd-30a82fb8e917,6,227.6221,229.4199,space,1,0.3232,,0,9,9,9,1,J,space,,,,,,,,,,
,,,,,R_4aDED6tut5LAQSZ,001,2025-08-16_12h13.23.009,continuous_performance_test,2024.2.4,Win32,59.88023952,8f5ffa10-340b-4d0c-b9fd-30a82fb8e917,6,229.4214,231.0693,space,1,0.2994,,0,10,10,0,1,A,space,,,,,,,,,,
,,,,,R_4aDED6tut5LAQSZ,001,2025-08-16_12h13.23.009,continuous_performance_test,2024.2.4,Win32,59.88023952,8f5ffa10-340b-4d0c-b9fd-30a82fb8e917,6,231.071,232.6189,space,1,0.3365,,0,11,11,17,1,R,space,,,,,,,,,,
,,,,,R_4aDED6tut5LAQSZ,001,2025-08-16_12h13.23.009,continuous_performance_test,2024.2.4,Win32,59.88023952,8f5ffa10-340b-4d0c-b9fd-30a82fb8e917,6,232.6207,234.2719,space,1,0.3856,,0,12,12,23,1,Y,space,,,,,,,,,,
,,,,,R_4aDED6tut5LAQSZ,001,2025-08-16_12h13.23.009,continuous_performance_test,2024.2.4,Win32,59.88023952,8f5ffa10-340b-4d0c-b9fd-30a82fb8e917,6,234.274,236.0679,space,1,0.3278,,0,13,13,22,1,W,space,,,,,,,,,,
,,,,,R_4aDED6tut5LAQSZ,001,2025-08-16_12h13.23.009,continuous_performance_test,2024.2.4,Win32,59.88023952,8f5ffa10-340b-4d0c-b9fd-30a82fb8e917,6,236.0699,237.9174,,1,,,0,14,14,29,1,X,,,,,,,,,,,
,,,,,R_4aDED6tut5LAQSZ,001,2025-08-16_12h13.23.009,continuous_performance_test,2024.2.4,Win32,59.88023952,8f5ffa10-340b-4d0c-b9fd-30a82fb8e917,6,237.9189,239.6664,space,1,0.2846,,0,15,15,12,1,M,space,,,,,,,,,,
,,,,,R_4aDED6tut5LAQSZ,001,2025-08-16_12h13.23.009,continuous_performance_test,2024.2.4,Win32,59.88023952,8f5ffa10-340b-4d0c-b9fd-30a82fb8e917,6,239.6683,241.3161,space,1,0.3669,,0,16,16,14,1,O,space,,,,,,,,,,
,,,,,R_4aDED6tut5LAQSZ,001,2025-08-16_12h13.23.009,continuous_performance_test,2024.2.4,Win32,59.88023952,8f5ffa10-340b-4d0c-b9fd-30a82fb8e917,6,241.3182,242.8647,space,1,0.3322,,0,17,17,5,1,F,space,,,,,,,,,,
,,,,,R_4aDED6tut5LAQSZ,001,2025-08-16_12h13.23.009,continuous_performance_test,2024.2.4,Win32,59.88023952,8f5ffa10-340b-4d0c-b9fd-30a82fb8e917,6,242.8661,244.765,space,1,0.2594,,0,18,18,7,1,H,space,,,,,,,,,,
,,,,,R_4aDED6tut5LAQSZ,001,2025-08-16_12h13.23.009,continuous_performance_test,2024.2.4,Win32,59.88023952,8f5ffa10-340b-4d0c-b9fd-30a82fb8e917,6,244.7664,246.3143,space,1,0.2814,,0,19,19,1,1,B,space,,,,,,,,,,
,,,,,R_4aDED6tut5LAQSZ,001,2025-08-16_12h13.23.009,continuous_performance_test,2024.2.4,Win32,59.88023952,8f5ffa10-340b-4d0c-b9fd-30a82fb8e917,6,246.3161,247.8636,space,1,0.2727,,0,20,20,16,1,Q,space,,,,,,,,,,
,,,,,R_4aDED6tut5LAQSZ,001,2025-08-16_12h13.23.009,continuous_performance_test,2024.2.4,Win32,59.88023952,8f5ffa10-340b-4d0c-b9fd-30a82fb8e917,6,247.865,249.4637,space,1,0.3564,,0,21,21,11,1,L,space,,,,,,,,,,
,,,,,R_4aDED6tut5LAQSZ,001,2025-08-16_12h13.23.009,continuous_performance_test,2024.2.4,Win32,59.88023952,8f5ffa10-340b-4d0c-b9fd-30a82fb8e917,6,249.4657,251.4123,,1,,,0,22,22,27,1,X,,,,,,,,,,,
,,,,,R_4aDED6tut5LAQSZ,001,2025-08-16_12h13.23.009,continuous_performance_test,2024.2.4,Win32,59.88023952,8f5ffa10-340b-4d0c-b9fd-30a82fb8e917,6,251.4135,253.0119,space,0,0.3488,,0,23,23,28,1,X,,,,,,,,,,,
,,,,,R_4aDED6tut5LAQSZ,001,2025-08-16_12h13.23.009,continuous_performance_test,2024.2.4,Win32,59.88023952,8f5ffa10-340b-4d0c-b9fd-30a82fb8e917,6,253.0132,254.7613,,1,,,0,24,24,25,1,X,,,,,,,,,,,
,,,,,R_4aDED6tut5LAQSZ,001,2025-08-16_12h13.23.009,continuous_performance_test,2024.2.4,Win32,59.88023952,8f5ffa10-340b-4d0c-b9fd-30a82fb8e917,6,254.7629,256.4605,space,1,0.3562,,0,25,25,19,1,T,space,,,,,,,,,,
,,,,,R_4aDED6tut5LAQSZ,001,2025-08-16_12h13.23.009,continuous_performance_test,2024.2.4,Win32,59.88023952,8f5ffa10-340b-4d0c-b9fd-30a82fb8e917,6,256.4622,258.2603,space,1,0.3194,,0,26,26,24,1,Z,space,,,,,,,,,,
,,,,,R_4aDED6tut5LAQSZ,001,2025-08-16_12h13.23.009,continuous_performance_test,2024.2.4,Win32,59.88023952,8f5ffa10-340b-4d0c-b9fd-30a82fb8e917,6,258.262,260.2092,space,1,0.322,,0,27,27,2,1,C,space,,,,,,,,,,
,,,,,R_4aDED6tut5LAQSZ,001,2025-08-16_12h13.23.009,continuous_performance_test,2024.2.4,Win32,59.88023952,8f5ffa10-340b-4d0c-b9fd-30a82fb8e917,6,260.2109,262.009,space,1,0.3517,,0,28,28,4,1,E,space,,,,,,,,,,
,,,,,R_4aDED6tut5LAQSZ,001,2025-08-16_12h13.23.009,continuous_performance_test,2024.2.4,Win32,59.88023952,8f5ffa10-340b-4d0c-b9fd-30a82fb8e917,6,262.011,263.8086,space,1,0.2913,,0,29,29,20,1,U,space,,,,,,,,,,
,,,,,R_4aDED6tut5LAQSZ,001,2025-08-16_12h13.23.009,continuous_performance_test,2024.2.4,Win32,59.88023952,8f5ffa10-340b-4d0c-b9fd-30a82fb8e917,6,270.6979,272.2922,space,1,0.3506,,0,0,0,11,1,L,space,263.8101,270.6895,space,6.8534,,,,,,
,,,,,R_4aDED6tut5LAQSZ,001,2025-08-16_12h13.23.009,continuous_performance_test,2024.2.4,Win32,59.88023952,8f5ffa10-340b-4d0c-b9fd-30a82fb8e917,6,272.2939,274.2883,,1,,,0,1,1,27,1,X,,,,,,,,,,,
,,,,,R_4aDED6tut5LAQSZ,001,2025-08-16_12h13.23.009,continuous_performance_test,2024.2.4,Win32,59.88023952,8f5ffa10-340b-4d0c-b9fd-30a82fb8e917,6,274.2901,276.1373,space,1,0.5251,,0,2,2,10,1,K,space,,,,,,,,,,
,,,,,R_4aDED6tut5LAQSZ,001,2025-08-16_12h13.23.009,continuous_performance_test,2024.2.4,Win32,59.88023952,8f5ffa10-340b-4d0c-b9fd-30a82fb8e917,6,276.1396,277.8871,space,1,0.3577,,0,3,3,16,1,Q,space,,,,,,,,,,
,,,,,R_4aDED6tut5LAQSZ,001,2025-08-16_12h13.23.009,continuous_performance_test,2024.2.4,Win32,59.88023952,8f5ffa10-340b-4d0c-b9fd-30a82fb8e917,6,277.8888,279.5859,space,1,0.309,,0,4,4,6,1,G,space,,,,,,,,,,
,,,,,R_4aDED6tut5LAQSZ,001,2025-08-16_12h13.23.009,continuous_performance_test,2024.2.4,Win32,59.88023952,8f5ffa10-340b-4d0c-b9fd-30a82fb8e917,6,279.5878,281.5357,space,1,0.3356,,0,5,5,20,1,U,space,,,,,,,,,,
,,,,,R_4aDED6tut5LAQSZ,001,2025-08-16_12h13.23.009,continuous_performance_test,2024.2.4,Win32,59.88023952,8f5ffa10-340b-4d0c-b9fd-30a82fb8e917,6,281.5376,283.5351,space,1,0.2561,,0,6,6,24,1,Z,space,,,,,,,,,,
,,,,,R_4aDED6tut5LAQSZ,001,2025-08-16_12h13.23.009,continuous_performance_test,2024.2.4,Win32,59.88023952,8f5ffa10-340b-4d0c-b9fd-30a82fb8e917,6,283.5371,285.5338,space,1,0.4363,,0,7,7,13,1,N,space,,,,,,,,,,
,,,,,R_4aDED6tut5LAQSZ,001,2025-08-16_12h13.23.009,continuous_performance_test,2024.2.4,Win32,59.88023952,8f5ffa10-340b-4d0c-b9fd-30a82fb8e917,6,285.5349,287.3837,space,1,0.305,,0,8,8,17,1,R,space,,,,,,,,,,
,,,,,R_4aDED6tut5LAQSZ,001,2025-08-16_12h13.23.009,continuous_performance_test,2024.2.4,Win32,59.88023952,8f5ffa10-340b-4d0c-b9fd-30a82fb8e917,6,287.3851,289.1328,space,1,0.3455,,0,9,9,0,1,A,space,,,,,,,,,,
,,,,,R_4aDED6tut5LAQSZ,001,2025-08-16_12h13.23.009,continuous_performance_test,2024.2.4,Win32,59.88023952,8f5ffa10-340b-4d0c-b9fd-30a82fb8e917,6,289.1352,290.8319,space,1,0.3314,,0,10,10,15,1,P,space,,,,,,,,,,
,,,,,R_4aDED6tut5LAQSZ,001,2025-08-16_12h13.23.009,continuous_performance_test,2024.2.4,Win32,59.88023952,8f5ffa10-340b-4d0c-b9fd-30a82fb8e917,6,290.8373,292.5322,space,1,0.3264,,0,11,11,12,1,M,space,,,,,,,,,,
,,,,,R_4aDED6tut5LAQSZ,001,2025-08-16_12h13.23.009,continuous_performance_test,2024.2.4,Win32,59.88023952,8f5ffa10-340b-4d0c-b9fd-30a82fb8e917,6,292.534,294.3312,space,1,0.4262,,0,12,12,19,1,T,space,,,,,,,,,,
,,,,,R_4aDED6tut5LAQSZ,001,2025-08-16_12h13.23.009,continuous_performance_test,2024.2.4,Win32,59.88023952,8f5ffa10-340b-4d0c-b9fd-30a82fb8e917,6,294.3335,296.081,space,1,0.3892,,0,13,13,3,1,D,space,,,,,,,,,,
,,,,,R_4aDED6tut5LAQSZ,001,2025-08-16_12h13.23.009,continuous_performance_test,2024.2.4,Win32,59.88023952,8f5ffa10-340b-4d0c-b9fd-30a82fb8e917,6,296.0826,297.7306,space,1,0.3178,,0,14,14,7,1,H,space,,,,,,,,,,
,,,,,R_4aDED6tut5LAQSZ,001,2025-08-16_12h13.23.009,continuous_performance_test,2024.2.4,Win32,59.88023952,8f5ffa10-340b-4d0c-b9fd-30a82fb8e917,6,297.7323,299.2795,,1,,,0,15,15,25,1,X,,,,,,,,,,,
,,,,,R_4aDED6tut5LAQSZ,001,2025-08-16_12h13.23.009,continuous_performance_test,2024.2.4,Win32,59.88023952,8f5ffa10-340b-4d0c-b9fd-30a82fb8e917,6,299.2815,301.2789,space,1,0.352,,0,16,16,2,1,C,space,,,,,,,,,,
,,,,,R_4aDED6tut5LAQSZ,001,2025-08-16_12h13.23.009,continuous_performance_test,2024.2.4,Win32,59.88023952,8f5ffa10-340b-4d0c-b9fd-30a82fb8e917,6,301.2807,303.2782,space,1,0.3593,,0,17,17,18,1,S,space,,,,,,,,,,
,,,,,R_4aDED6tut5LAQSZ,001,2025-08-16_12h13.23.009,continuous_performance_test,2024.2.4,Win32,59.88023952,8f5ffa10-340b-4d0c-b9fd-30a82fb8e917,6,303.2799,305.0273,space,1,0.3621,,0,18,18,4,1,E,space,,,,,,,,,,
,,,,,R_4aDED6tut5LAQSZ,001,2025-08-16_12h13.23.009,continuous_performance_test,2024.2.4,Win32,59.88023952,8f5ffa10-340b-4d0c-b9fd-30a82fb8e917,6,305.0294,306.6272,space,1,0.519,,0,19,19,21,1,V,space,,,,,,,,,,
,,,,,R_4aDED6tut5LAQSZ,001,2025-08-16_12h13.23.009,continuous_performance_test,2024.2.4,Win32,59.88023952,8f5ffa10-340b-4d0c-b9fd-30a82fb8e917,6,306.629,308.6264,space,1,0.3266,,0,20,20,14,1,O,space,,,,,,,,,,
,,,,,R_4aDED6tut5LAQSZ,001,2025-08-16_12h13.23.009,continuous_performance_test,2024.2.4,Win32,59.88023952,8f5ffa10-340b-4d0c-b9fd-30a82fb8e917,6,308.628,310.2257,space,1,0.3838,,0,21,21,8,1,I,space,,,,,,,,,,
,,,,,R_4aDED6tut5LAQSZ,001,2025-08-16_12h13.23.009,continuous_performance_test,2024.2.4,Win32,59.88023952,8f5ffa10-340b-4d0c-b9fd-30a82fb8e917,6,310.2277,311.8254,space,1,0.3683,,0,22,22,5,1,F,space,,,,,,,,,,
,,,,,R_4aDED6tut5LAQSZ,001,2025-08-16_12h13.23.009,continuous_performance_test,2024.2.4,Win32,59.88023952,8f5ffa10-340b-4d0c-b9fd-30a82fb8e917,6,311.8278,313.6248,,1,,,0,23,23,26,1,X,,,,,,,,,,,
,,,,,R_4aDED6tut5LAQSZ,001,2025-08-16_12h13.23.009,continuous_performance_test,2024.2.4,Win32,59.88023952,8f5ffa10-340b-4d0c-b9fd-30a82fb8e917,6,313.6265,315.4771,,1,,,0,24,24,28,1,X,,,,,,,,,,,
,,,,,R_4aDED6tut5LAQSZ,001,2025-08-16_12h13.23.009,continuous_performance_test,2024.2.4,Win32,59.88023952,8f5ffa10-340b-4d0c-b9fd-30a82fb8e917,6,315.4781,317.1736,space,1,0.4225,,0,25,25,9,1,J,space,,,,,,,,,,
,,,,,R_4aDED6tut5LAQSZ,001,2025-08-16_12h13.23.009,continuous_performance_test,2024.2.4,Win32,59.88023952,8f5ffa10-340b-4d0c-b9fd-30a82fb8e917,6,317.1756,318.8228,,1,,,0,26,26,29,1,X,,,,,,,,,,,
,,,,,R_4aDED6tut5LAQSZ,001,2025-08-16_12h13.23.009,continuous_performance_test,2024.2.4,Win32,59.88023952,8f5ffa10-340b-4d0c-b9fd-30a82fb8e917,6,318.8246,320.5229,space,1,0.4001,,0,27,27,23,1,Y,space,,,,,,,,,,
,,,,,R_4aDED6tut5LAQSZ,001,2025-08-16_12h13.23.009,continuous_performance_test,2024.2.4,Win32,59.88023952,8f5ffa10-340b-4d0c-b9fd-30a82fb8e917,6,320.5243,322.0716,space,1,0.502,,0,28,28,22,1,W,space,,,,,,,,,,
,,,,,R_4aDED6tut5LAQSZ,001,2025-08-16_12h13.23.009,continuous_performance_test,2024.2.4,Win32,59.88023952,8f5ffa10-340b-4d0c-b9fd-30a82fb8e917,6,322.0733,323.9209,space,1,0.4017,,0,29,29,1,1,B,space,,,,,,,,,,
,,,,,R_4aDED6tut5LAQSZ,001,2025-08-16_12h13.23.009,continuous_performance_test,2024.2.4,Win32,59.88023952,8f5ffa10-340b-4d0c-b9fd-30a82fb8e917,6,328.1791,329.9692,space,1,0.3274,,0,0,0,7,1,H,space,323.9223,328.17,space,4.2174,,,,,,
,,,,,R_4aDED6tut5LAQSZ,001,2025-08-16_12h13.23.009,continuous_performance_test,2024.2.4,Win32,59.88023952,8f5ffa10-340b-4d0c-b9fd-30a82fb8e917,6,329.9713,331.5687,space,1,0.3483,,0,1,1,6,1,G,space,,,,,,,,,,
,,,,,R_4aDED6tut5LAQSZ,001,2025-08-16_12h13.23.009,continuous_performance_test,2024.2.4,Win32,59.88023952,8f5ffa10-340b-4d0c-b9fd-30a82fb8e917,6,331.5703,333.3677,space,1,0.2687,,0,2,2,23,1,Y,space,,,,,,,,,,
,,,,,R_4aDED6tut5LAQSZ,001,2025-08-16_12h13.23.009,continuous_performance_test,2024.2.4,Win32,59.88023952,8f5ffa10-340b-4d0c-b9fd-30a82fb8e917,6,333.3692,335.2672,space,1,0.3518,,0,3,3,5,1,F,space,,,,,,,,,,
,,,,,R_4aDED6tut5LAQSZ,001,2025-08-16_12h13.23.009,continuous_performance_test,2024.2.4,Win32,59.88023952,8f5ffa10-340b-4d0c-b9fd-30a82fb8e917,6,335.269,336.817,,1,,,0,4,4,29,1,X,,,,,,,,,,,
,,,,,R_4aDED6tut5LAQSZ,001,2025-08-16_12h13.23.009,continuous_performance_test,2024.2.4,Win32,59.88023952,8f5ffa10-340b-4d0c-b9fd-30a82fb8e917,6,336.8188,338.4663,space,1,0.3779,,0,5,5,4,1,E,space,,,,,,,,,,
,,,,,R_4aDED6tut5LAQSZ,001,2025-08-16_12h13.23.009,continuous_performance_test,2024.2.4,Win32,59.88023952,8f5ffa10-340b-4d0c-b9fd-30a82fb8e917,6,338.4682,340.1153,space,1,0.3045,,0,6,6,13,1,N,space,,,,,,,,,,
,,,,,R_4aDED6tut5LAQSZ,001,2025-08-16_12h13.23.009,continuous_performance_test,2024.2.4,Win32,59.88023952,8f5ffa10-340b-4d0c-b9fd-30a82fb8e917,6,340.1165,342.0187,space,1,0.2698,,0,7,7,11,1,L,space,,,,,,,,,,
,,,,,R_4aDED6tut5LAQSZ,001,2025-08-16_12h13.23.009,continuous_performance_test,2024.2.4,Win32,59.88023952,8f5ffa10-340b-4d0c-b9fd-30a82fb8e917,6,342.0205,343.5647,space,1,0.384,,0,8,8,10,1,K,space,,,,,,,,,,
,,,,,R_4aDED6tut5LAQSZ,001,2025-08-16_12h13.23.009,continuous_performance_test,2024.2.4,Win32,59.88023952,8f5ffa10-340b-4d0c-b9fd-30a82fb8e917,6,343.5664,345.264,space,1,0.3842,,0,9,9,9,1,J,space,,,,,,,,,,
,,,,,R_4aDED6tut5LAQSZ,001,2025-08-16_12h13.23.009,continuous_performance_test,2024.2.4,Win32,59.88023952,8f5ffa10-340b-4d0c-b9fd-30a82fb8e917,6,345.2646,346.9137,space,1,0.2774,,0,10,10,12,1,M,space,,,,,,,,,,
,,,,,R_4aDED6tut5LAQSZ,001,2025-08-16_12h13.23.009,continuous_performance_test,2024.2.4,Win32,59.88023952,8f5ffa10-340b-4d0c-b9fd-30a82fb8e917,6,346.9154,348.4629,space,1,0.4852,,0,11,11,15,1,P,space,,,,,,,,,,
,,,,,R_4aDED6tut5LAQSZ,001,2025-08-16_12h13.23.009,continuous_performance_test,2024.2.4,Win32,59.88023952,8f5ffa10-340b-4d0c-b9fd-30a82fb8e917,6,348.4648,350.3149,space,0,0.3207,,0,12,12,28,1,X,,,,,,,,,,,
,,,,,R_4aDED6tut5LAQSZ,001,2025-08-16_12h13.23.009,continuous_performance_test,2024.2.4,Win32,59.88023952,8f5ffa10-340b-4d0c-b9fd-30a82fb8e917,6,350.3161,352.3139,space,1,0.3163,,0,13,13,1,1,B,space,,,,,,,,,,
,,,,,R_4aDED6tut5LAQSZ,001,2025-08-16_12h13.23.009,continuous_performance_test,2024.2.4,Win32,59.88023952,8f5ffa10-340b-4d0c-b9fd-30a82fb8e917,6,352.3156,354.211,,1,,,0,14,14,26,1,X,,,,,,,,,,,
,,,,,R_4aDED6tut5LAQSZ,001,2025-08-16_12h13.23.009,continuous_performance_test,2024.2.4,Win32,59.88023952,8f5ffa10-340b-4d0c-b9fd-30a82fb8e917,6,354.2131,356.1096,space,1,0.5762,,0,15,15,17,1,R,space,,,,,,,,,,
,,,,,R_4aDED6tut5LAQSZ,001,2025-08-16_12h13.23.009,continuous_performance_test,2024.2.4,Win32,59.88023952,8f5ffa10-340b-4d0c-b9fd-30a82fb8e917,6,356.1109,358.0594,space,1,0.3733,,0,16,16,8,1,I,space,,,,,,,,,,
,,,,,R_4aDED6tut5LAQSZ,001,2025-08-16_12h13.23.009,continuous_performance_test,2024.2.4,Win32,59.88023952,8f5ffa10-340b-4d0c-b9fd-30a82fb8e917,6,358.0613,360.0088,,1,,,0,17,17,27,1,X,,,,,,,,,,,
,,,,,R_4aDED6tut5LAQSZ,001,2025-08-16_12h13.23.009,continuous_performance_test,2024.2.4,Win32,59.88023952,8f5ffa10-340b-4d0c-b9fd-30a82fb8e917,6,360.0102,361.6585,space,1,0.4027,,0,18,18,2,1,C,space,,,,,,,,,,
,,,,,R_4aDED6tut5LAQSZ,001,2025-08-16_12h13.23.009,continuous_performance_test,2024.2.4,Win32,59.88023952,8f5ffa10-340b-4d0c-b9fd-30a82fb8e917,6,361.6607,363.4581,space,1,0.3516,,0,19,19,21,1,V,space,,,,,,,,,,
,,,,,R_4aDED6tut5LAQSZ,001,2025-08-16_12h13.23.009,continuous_performance_test,2024.2.4,Win32,59.88023952,8f5ffa10-340b-4d0c-b9fd-30a82fb8e917,6,363.4595,365.4607,,1,,,0,20,20,25,1,X,,,,,,,,,,,
,,,,,R_4aDED6tut5LAQSZ,001,2025-08-16_12h13.23.009,continuous_performance_test,2024.2.4,Win32,59.88023952,8f5ffa10-340b-4d0c-b9fd-30a82fb8e917,6,365.4624,367.157,space,1,0.3154,,0,21,21,18,1,S,space,,,,,,,,,,
,,,,,R_4aDED6tut5LAQSZ,001,2025-08-16_12h13.23.009,continuous_performance_test,2024.2.4,Win32,59.88023952,8f5ffa10-340b-4d0c-b9fd-30a82fb8e917,6,367.1587,369.0057,space,1,0.3568,,0,22,22,0,1,A,space,,,,,,,,,,
,,,,,R_4aDED6tut5LAQSZ,001,2025-08-16_12h13.23.009,continuous_performance_test,2024.2.4,Win32,59.88023952,8f5ffa10-340b-4d0c-b9fd-30a82fb8e917,6,369.0068,370.659,space,1,0.4287,,0,23,23,22,1,W,space,,,,,,,,,,
,,,,,R_4aDED6tut5LAQSZ,001,2025-08-16_12h13.23.009,continuous_performance_test,2024.2.4,Win32,59.88023952,8f5ffa10-340b-4d0c-b9fd-30a82fb8e917,6,370.6607,372.5549,space,1,0.2934,,0,24,24,19,1,T,space,,,,,,,,,,
,,,,,R_4aDED6tut5LAQSZ,001,2025-08-16_12h13.23.009,continuous_performance_test,2024.2.4,Win32,59.88023952,8f5ffa10-340b-4d0c-b9fd-30a82fb8e917,6,372.5567,374.504,space,1,0.2932,,0,25,25,20,1,U,space,,,,,,,,,,
,,,,,R_4aDED6tut5LAQSZ,001,2025-08-16_12h13.23.009,continuous_performance_test,2024.2.4,Win32,59.88023952,8f5ffa10-340b-4d0c-b9fd-30a82fb8e917,6,374.5059,376.3536,space,1,0.3333,,0,26,26,14,1,O,space,,,,,,,,,,
,,,,,R_4aDED6tut5LAQSZ,001,2025-08-16_12h13.23.009,continuous_performance_test,2024.2.4,Win32,59.88023952,8f5ffa10-340b-4d0c-b9fd-30a82fb8e917,6,376.3554,378.3528,space,1,0.3269,,0,27,27,24,1,Z,space,,,,,,,,,,
,,,,,R_4aDED6tut5LAQSZ,001,2025-08-16_12h13.23.009,continuous_performance_test,2024.2.4,Win32,59.88023952,8f5ffa10-340b-4d0c-b9fd-30a82fb8e917,6,378.3547,380.2033,space,1,0.3804,,0,28,28,16,1,Q,space,,,,,,,,,,
,,,,,R_4aDED6tut5LAQSZ,001,2025-08-16_12h13.23.009,continuous_performance_test,2024.2.4,Win32,59.88023952,8f5ffa10-340b-4d0c-b9fd-30a82fb8e917,6,380.2052,381.8015,space,1,0.2931,,0,29,29,3,1,D,space,,,,,,,,,,
,,,,,R_4aDED6tut5LAQSZ,001,2025-08-16_12h13.23.009,continuous_performance_test,2024.2.4,Win32,59.88023952,8f5ffa10-340b-4d0c-b9fd-30a82fb8e917,6,390.7606,392.4,space,1,0.3168,,0,0,0,7,1,H,space,381.8035,390.7524,space,8.9299,,,,,,
,,,,,R_4aDED6tut5LAQSZ,001,2025-08-16_12h13.23.009,continuous_performance_test,2024.2.4,Win32,59.88023952,8f5ffa10-340b-4d0c-b9fd-30a82fb8e917,6,392.4017,394.0009,space,1,0.2585,,0,1,1,13,1,N,space,,,,,,,,,,
,,,,,R_4aDED6tut5LAQSZ,001,2025-08-16_12h13.23.009,continuous_performance_test,2024.2.4,Win32,59.88023952,8f5ffa10-340b-4d0c-b9fd-30a82fb8e917,6,394.0027,395.9967,space,0,0.2948,,0,2,2,29,1,X,,,,,,,,,,,
,,,,,R_4aDED6tut5LAQSZ,001,2025-08-16_12h13.23.009,continuous_performance_test,2024.2.4,Win32,59.88023952,8f5ffa10-340b-4d0c-b9fd-30a82fb8e917,6,395.9986,397.596,space,1,0.3671,,0,3,3,23,1,Y,space,,,,,,,,,,
,,,,,R_4aDED6tut5LAQSZ,001,2025-08-16_12h13.23.009,continuous_performance_test,2024.2.4,Win32,59.88023952,8f5ffa10-340b-4d0c-b9fd-30a82fb8e917,6,397.5977,399.1957,space,1,0.4499,,0,4,4,12,1,M,space,,,,,,,,,,
,,,,,R_4aDED6tut5LAQSZ,001,2025-08-16_12h13.23.009,continuous_performance_test,2024.2.4,Win32,59.88023952,8f5ffa10-340b-4d0c-b9fd-30a82fb8e917,6,399.1976,400.8954,,1,,,0,5,5,28,1,X,,,,,,,,,,,
,,,,,R_4aDED6tut5LAQSZ,001,2025-08-16_12h13.23.009,continuous_performance_test,2024.2.4,Win32,59.88023952,8f5ffa10-340b-4d0c-b9fd-30a82fb8e917,6,400.8969,402.5442,space,1,0.3253,,0,6,6,9,1,J,space,,,,,,,,,,
,,,,,R_4aDED6tut5LAQSZ,001,2025-08-16_12h13.23.009,continuous_performance_test,2024.2.4,Win32,59.88023952,8f5ffa10-340b-4d0c-b9fd-30a82fb8e917,6,402.546,404.5442,space,1,0.3483,,0,7,7,8,1,I,space,,,,,,,,,,
,,,,,R_4aDED6tut5LAQSZ,001,2025-08-16_12h13.23.009,continuous_performance_test,2024.2.4,Win32,59.88023952,8f5ffa10-340b-4d0c-b9fd-30a82fb8e917,6,404.5459,406.2434,space,1,0.2701,,0,8,8,21,1,V,space,,,,,,,,,,
,,,,,R_4aDED6tut5LAQSZ,001,2025-08-16_12h13.23.009,continuous_performance_test,2024.2.4,Win32,59.88023952,8f5ffa10-340b-4d0c-b9fd-30a82fb8e917,6,406.2455,407.8929,space,0,0.302,,0,9,9,26,1,X,,,,,,,,,,,
,,,,,R_4aDED6tut5LAQSZ,001,2025-08-16_12h13.23.009,continuous_performance_test,2024.2.4,Win32,59.88023952,8f5ffa10-340b-4d0c-b9fd-30a82fb8e917,6,407.8941,409.842,space,1,0.2499,,0,10,10,16,1,Q,space,,,,,,,,,,
,,,,,R_4aDED6tut5LAQSZ,001,2025-08-16_12h13.23.009,continuous_performance_test,2024.2.4,Win32,59.88023952,8f5ffa10-340b-4d0c-b9fd-30a82fb8e917,6,409.844,411.6916,space,1,0.4397,,0,11,11,11,1,L,space,,,,,,,,,,
,,,,,R_4aDED6tut5LAQSZ,001,2025-08-16_12h13.23.009,continuous_performance_test,2024.2.4,Win32,59.88023952,8f5ffa10-340b-4d0c-b9fd-30a82fb8e917,6,411.6936,413.4408,space,1,0.3517,,0,12,12,5,1,F,space,,,,,,,,,,
,,,,,R_4aDED6tut5LAQSZ,001,2025-08-16_12h13.23.009,continuous_performance_test,2024.2.4,Win32,59.88023952,8f5ffa10-340b-4d0c-b9fd-30a82fb8e917,6,413.4426,414.9903,space,1,0.3427,,0,13,13,3,1,D,space,,,,,,,,,,
,,,,,R_4aDED6tut5LAQSZ,001,2025-08-16_12h13.23.009,continuous_performance_test,2024.2.4,Win32,59.88023952,8f5ffa10-340b-4d0c-b9fd-30a82fb8e917,6,414.992,416.7398,space,1,0.5335,,0,14,14,22,1,W,space,,,,,,,,,,
,,,,,R_4aDED6tut5LAQSZ,001,2025-08-16_12h13.23.009,continuous_performance_test,2024.2.4,Win32,59.88023952,8f5ffa10-340b-4d0c-b9fd-30a82fb8e917,6,416.7415,418.3426,space,1,0.262,,0,15,15,10,1,K,space,,,,,,,,,,
,,,,,R_4aDED6tut5LAQSZ,001,2025-08-16_12h13.23.009,continuous_performance_test,2024.2.4,Win32,59.88023952,8f5ffa10-340b-4d0c-b9fd-30a82fb8e917,6,418.3441,420.2887,space,1,0.2815,,0,16,16,15,1,P,space,,,,,,,,,,
,,,,,R_4aDED6tut5LAQSZ,001,2025-08-16_12h13.23.009,continuous_performance_test,2024.2.4,Win32,59.88023952,8f5ffa10-340b-4d0c-b9fd-30a82fb8e917,6,420.2905,421.9882,space,0,0.2384,,0,17,17,27,1,X,,,,,,,,,,,
,,,,,R_4aDED6tut5LAQSZ,001,2025-08-16_12h13.23.009,continuous_performance_test,2024.2.4,Win32,59.88023952,8f5ffa10-340b-4d0c-b9fd-30a82fb8e917,6,421.9902,423.9408,,0,,,0,18,18,17,1,R,space,,,,,,,,,,
,,,,,R_4aDED6tut5LAQSZ,001,2025-08-16_12h13.23.009,continuous_performance_test,2024.2.4,Win32,59.88023952,8f5ffa10-340b-4d0c-b9fd-30a82fb8e917,6,423.9426,425.8863,space,1,0.1671,,0,19,19,19,1,T,space,,,,,,,,,,
,,,,,R_4aDED6tut5LAQSZ,001,2025-08-16_12h13.23.009,continuous_performance_test,2024.2.4,Win32,59.88023952,8f5ffa10-340b-4d0c-b9fd-30a82fb8e917,6,425.8883,427.4364,space,1,0.3161,,0,20,20,24,1,Z,space,,,,,,,,,,
,,,,,R_4aDED6tut5LAQSZ,001,2025-08-16_12h13.23.009,continuous_performance_test,2024.2.4,Win32,59.88023952,8f5ffa10-340b-4d0c-b9fd-30a82fb8e917,6,427.438,429.1382,space,1,0.3045,,0,21,21,14,1,O,space,,,,,,,,,,
,,,,,R_4aDED6tut5LAQSZ,001,2025-08-16_12h13.23.009,continuous_performance_test,2024.2.4,Win32,59.88023952,8f5ffa10-340b-4d0c-b9fd-30a82fb8e917,6,429.1398,430.6847,space,1,0.2898,,0,22,22,1,1,B,space,,,,,,,,,,
,,,,,R_4aDED6tut5LAQSZ,001,2025-08-16_12h13.23.009,continuous_performance_test,2024.2.4,Win32,59.88023952,8f5ffa10-340b-4d0c-b9fd-30a82fb8e917,6,430.6862,432.2343,space,1,0.2998,,0,23,23,2,1,C,space,,,,,,,,,,
,,,,,R_4aDED6tut5LAQSZ,001,2025-08-16_12h13.23.009,continuous_performance_test,2024.2.4,Win32,59.88023952,8f5ffa10-340b-4d0c-b9fd-30a82fb8e917,6,432.2358,434.1342,space,1,0.3337,,0,24,24,6,1,G,space,,,,,,,,,,
,,,,,R_4aDED6tut5LAQSZ,001,2025-08-16_12h13.23.009,continuous_performance_test,2024.2.4,Win32,59.88023952,8f5ffa10-340b-4d0c-b9fd-30a82fb8e917,6,434.1357,436.1334,space,1,0.2454,,0,25,25,0,1,A,space,,,,,,,,,,
,,,,,R_4aDED6tut5LAQSZ,001,2025-08-16_12h13.23.009,continuous_performance_test,2024.2.4,Win32,59.88023952,8f5ffa10-340b-4d0c-b9fd-30a82fb8e917,6,436.1355,437.6827,space,1,0.2758,,0,26,26,18,1,S,space,,,,,,,,,,
,,,,,R_4aDED6tut5LAQSZ,001,2025-08-16_12h13.23.009,continuous_performance_test,2024.2.4,Win32,59.88023952,8f5ffa10-340b-4d0c-b9fd-30a82fb8e917,6,437.6844,439.6321,space,1,0.2689,,0,27,27,4,1,E,space,,,,,,,,,,
,,,,,R_4aDED6tut5LAQSZ,001,2025-08-16_12h13.23.009,continuous_performance_test,2024.2.4,Win32,59.88023952,8f5ffa10-340b-4d0c-b9fd-30a82fb8e917,6,439.634,441.2816,space,0,0.3063,,0,28,28,25,1,X,,,,,,,,,,,
,,,,,R_4aDED6tut5LAQSZ,001,2025-08-16_12h13.23.009,continuous_performance_test,2024.2.4,Win32,59.88023952,8f5ffa10-340b-4d0c-b9fd-30a82fb8e917,6,441.2832,442.931,space,1,0.2651,,0,29,29,20,1,U,space,,,,,,,,,,
,,,,,R_4aDED6tut5LAQSZ,001,2025-08-16_12h13.23.009,continuous_performance_test,2024.2.4,Win32,59.88023952,8f5ffa10-340b-4d0c-b9fd-30a82fb8e917,6,454.7183,456.4096,space,1,0.3679,,0,0,0,18,1,S,space,442.933,454.7111,space,11.7589,,,,,,
,,,,,R_4aDED6tut5LAQSZ,001,2025-08-16_12h13.23.009,continuous_performance_test,2024.2.4,Win32,59.88023952,8f5ffa10-340b-4d0c-b9fd-30a82fb8e917,6,456.4116,458.1091,space,1,0.3684,,0,1,1,7,1,H,space,,,,,,,,,,
,,,,,R_4aDED6tut5LAQSZ,001,2025-08-16_12h13.23.009,continuous_performance_test,2024.2.4,Win32,59.88023952,8f5ffa10-340b-4d0c-b9fd-30a82fb8e917,6,458.1107,460.1085,space,1,0.2564,,0,2,2,12,1,M,space,,,,,,,,,,
,,,,,R_4aDED6tut5LAQSZ,001,2025-08-16_12h13.23.009,continuous_performance_test,2024.2.4,Win32,59.88023952,8f5ffa10-340b-4d0c-b9fd-30a82fb8e917,6,460.11,461.8614,space,1,0.3329,,0,3,3,24,1,Z,space,,,,,,,,,,
,,,,,R_4aDED6tut5LAQSZ,001,2025-08-16_12h13.23.009,continuous_performance_test,2024.2.4,Win32,59.88023952,8f5ffa10-340b-4d0c-b9fd-30a82fb8e917,6,461.8628,463.858,space,1,0.3684,,0,4,4,3,1,D,space,,,,,,,,,,
,,,,,R_4aDED6tut5LAQSZ,001,2025-08-16_12h13.23.009,continuous_performance_test,2024.2.4,Win32,59.88023952,8f5ffa10-340b-4d0c-b9fd-30a82fb8e917,6,463.8588,465.4063,space,1,0.3261,,0,5,5,23,1,Y,space,,,,,,,,,,
,,,,,R_4aDED6tut5LAQSZ,001,2025-08-16_12h13.23.009,continuous_performance_test,2024.2.4,Win32,59.88023952,8f5ffa10-340b-4d0c-b9fd-30a82fb8e917,6,465.4074,467.3554,space,1,0.2918,,0,6,6,22,1,W,space,,,,,,,,,,
,,,,,R_4aDED6tut5LAQSZ,001,2025-08-16_12h13.23.009,continuous_performance_test,2024.2.4,Win32,59.88023952,8f5ffa10-340b-4d0c-b9fd-30a82fb8e917,6,467.3566,469.3046,space,1,0.2496,,0,7,7,16,1,Q,space,,,,,,,,,,
,,,,,R_4aDED6tut5LAQSZ,001,2025-08-16_12h13.23.009,continuous_performance_test,2024.2.4,Win32,59.88023952,8f5ffa10-340b-4d0c-b9fd-30a82fb8e917,6,469.3058,471.2047,,1,,,0,8,8,28,1,X,,,,,,,,,,,
,,,,,R_4aDED6tut5LAQSZ,001,2025-08-16_12h13.23.009,continuous_performance_test,2024.2.4,Win32,59.88023952,8f5ffa10-340b-4d0c-b9fd-30a82fb8e917,6,471.2068,472.8042,space,1,0.3549,,0,9,9,21,1,V,space,,,,,,,,,,
,,,,,R_4aDED6tut5LAQSZ,001,2025-08-16_12h13.23.009,continuous_performance_test,2024.2.4,Win32,59.88023952,8f5ffa10-340b-4d0c-b9fd-30a82fb8e917,6,472.8058,474.4568,space,1,0.3192,,0,10,10,19,1,T,space,,,,,,,,,,
,,,,,R_4aDED6tut5LAQSZ,001,2025-08-16_12h13.23.009,continuous_performance_test,2024.2.4,Win32,59.88023952,8f5ffa10-340b-4d0c-b9fd-30a82fb8e917,6,474.4584,476.4029,space,1,0.307,,0,11,11,6,1,G,space,,,,,,,,,,
,,,,,R_4aDED6tut5LAQSZ,001,2025-08-16_12h13.23.009,continuous_performance_test,2024.2.4,Win32,59.88023952,8f5ffa10-340b-4d0c-b9fd-30a82fb8e917,6,476.4044,478.1522,space,1,0.3452,,0,12,12,4,1,E,space,,,,,,,,,,
,,,,,R_4aDED6tut5LAQSZ,001,2025-08-16_12h13.23.009,continuous_performance_test,2024.2.4,Win32,59.88023952,8f5ffa10-340b-4d0c-b9fd-30a82fb8e917,6,478.1538,479.7518,space,0,0.287,,0,13,13,25,1,X,,,,,,,,,,,
,,,,,R_4aDED6tut5LAQSZ,001,2025-08-16_12h13.23.009,continuous_performance_test,2024.2.4,Win32,59.88023952,8f5ffa10-340b-4d0c-b9fd-30a82fb8e917,6,479.7532,481.5512,space,0,0.2547,,0,14,14,27,1,X,,,,,,,,,,,
,,,,,R_4aDED6tut5LAQSZ,001,2025-08-16_12h13.23.009,continuous_performance_test,2024.2.4,Win32,59.88023952,8f5ffa10-340b-4d0c-b9fd-30a82fb8e917,6,481.5529,483.151,space,1,0.3106,,0,15,15,14,1,O,space,,,,,,,,,,
,,,,,R_4aDED6tut5LAQSZ,001,2025-08-16_12h13.23.009,continuous_performance_test,2024.2.4,Win32,59.88023952,8f5ffa10-340b-4d0c-b9fd-30a82fb8e917,6,483.1528,484.9498,space,1,0.2685,,0,16,16,5,1,F,space,,,,,,,,,,
,,,,,R_4aDED6tut5LAQSZ,001,2025-08-16_12h13.23.009,continuous_performance_test,2024.2.4,Win32,59.88023952,8f5ffa10-340b-4d0c-b9fd-30a82fb8e917,6,484.9515,486.8489,space,1,0.2691,,0,17,17,20,1,U,space,,,,,,,,,,
,,,,,R_4aDED6tut5LAQSZ,001,2025-08-16_12h13.23.009,continuous_performance_test,2024.2.4,Win32,59.88023952,8f5ffa10-340b-4d0c-b9fd-30a82fb8e917,6,486.8509,488.8488,space,1,0.3589,,0,18,18,0,1,A,space,,,,,,,,,,
,,,,,R_4aDED6tut5LAQSZ,001,2025-08-16_12h13.23.009,continuous_performance_test,2024.2.4,Win32,59.88023952,8f5ffa10-340b-4d0c-b9fd-30a82fb8e917,6,488.8507,490.4982,space,1,0.3763,,0,19,19,2,1,C,space,,,,,,,,,,
,,,,,R_4aDED6tut5LAQSZ,001,2025-08-16_12h13.23.009,continuous_performance_test,2024.2.4,Win32,59.88023952,8f5ffa10-340b-4d0c-b9fd-30a82fb8e917,6,490.5001,492.1476,space,1,0.3399,,0,20,20,17,1,R,space,,,,,,,,,,
,,,,,R_4aDED6tut5LAQSZ,001,2025-08-16_12h13.23.009,continuous_performance_test,2024.2.4,Win32,59.88023952,8f5ffa10-340b-4d0c-b9fd-30a82fb8e917,6,492.1496,494.1471,space,1,0.3887,,0,21,21,9,1,J,space,,,,,,,,,,
,,,,,R_4aDED6tut5LAQSZ,001,2025-08-16_12h13.23.009,continuous_performance_test,2024.2.4,Win32,59.88023952,8f5ffa10-340b-4d0c-b9fd-30a82fb8e917,6,494.149,495.8464,space,1,0.375,,0,22,22,15,1,P,space,,,,,,,,,,
,,,,,R_4aDED6tut5LAQSZ,001,2025-08-16_12h13.23.009,continuous_performance_test,2024.2.4,Win32,59.88023952,8f5ffa10-340b-4d0c-b9fd-30a82fb8e917,6,495.8483,497.5455,space,1,0.3623,,0,23,23,13,1,N,space,,,,,,,,,,
,,,,,R_4aDED6tut5LAQSZ,001,2025-08-16_12h13.23.009,continuous_performance_test,2024.2.4,Win32,59.88023952,8f5ffa10-340b-4d0c-b9fd-30a82fb8e917,6,497.547,499.3951,space,1,0.4419,,0,24,24,8,1,I,space,,,,,,,,,,
,,,,,R_4aDED6tut5LAQSZ,001,2025-08-16_12h13.23.009,continuous_performance_test,2024.2.4,Win32,59.88023952,8f5ffa10-340b-4d0c-b9fd-30a82fb8e917,6,499.3972,500.998,space,1,0.3782,,0,25,25,10,1,K,space,,,,,,,,,,
,,,,,R_4aDED6tut5LAQSZ,001,2025-08-16_12h13.23.009,continuous_performance_test,2024.2.4,Win32,59.88023952,8f5ffa10-340b-4d0c-b9fd-30a82fb8e917,6,500.9998,502.8939,space,1,0.4182,,0,26,26,1,1,B,space,,,,,,,,,,
,,,,,R_4aDED6tut5LAQSZ,001,2025-08-16_12h13.23.009,continuous_performance_test,2024.2.4,Win32,59.88023952,8f5ffa10-340b-4d0c-b9fd-30a82fb8e917,6,502.8957,504.4935,,1,,,0,27,27,29,1,X,,,,,,,,,,,
,,,,,R_4aDED6tut5LAQSZ,001,2025-08-16_12h13.23.009,continuous_performance_test,2024.2.4,Win32,59.88023952,8f5ffa10-340b-4d0c-b9fd-30a82fb8e917,6,504.4946,506.2926,,1,,,0,28,28,26,1,X,,,,,,,,,,,
,,,,,R_4aDED6tut5LAQSZ,001,2025-08-16_12h13.23.009,continuous_performance_test,2024.2.4,Win32,59.88023952,8f5ffa10-340b-4d0c-b9fd-30a82fb8e917,6,506.2947,508.2421,space,1,0.3471,,0,29,29,11,1,L,space,,,,,,,,,,
,,,,,R_4aDED6tut5LAQSZ,001,2025-08-16_12h13.23.009,continuous_performance_test,2024.2.4,Win32,59.88023952,8f5ffa10-340b-4d0c-b9fd-30a82fb8e917,6,510.1997,512.1909,space,1,0.3184,,0,0,0,18,1,S,space,508.2438,510.1915,space,1.9233,,,,,,
,,,,,R_4aDED6tut5LAQSZ,001,2025-08-16_12h13.23.009,continuous_performance_test,2024.2.4,Win32,59.88023952,8f5ffa10-340b-4d0c-b9fd-30a82fb8e917,6,512.1925,513.8901,space,1,0.3265,,0,1,1,11,1,L,space,,,,,,,,,,
,,,,,R_4aDED6tut5LAQSZ,001,2025-08-16_12h13.23.009,continuous_performance_test,2024.2.4,Win32,59.88023952,8f5ffa10-340b-4d0c-b9fd-30a82fb8e917,6,513.8916,515.8896,space,1,0.3025,,0,2,2,20,1,U,space,,,,,,,,,,
,,,,,R_4aDED6tut5LAQSZ,001,2025-08-16_12h13.23.009,continuous_performance_test,2024.2.4,Win32,59.88023952,8f5ffa10-340b-4d0c-b9fd-30a82fb8e917,6,515.8912,517.7887,space,1,0.3004,,0,3,3,0,1,A,space,,,,,,,,,,
,,,,,R_4aDED6tut5LAQSZ,001,2025-08-16_12h13.23.009,continuous_performance_test,2024.2.4,Win32,59.88023952,8f5ffa10-340b-4d0c-b9fd-30a82fb8e917,6,517.7908,519.392,space,1,0.4559,,0,4,4,21,1,V,space,,,,,,,,,,
,,,,,R_4aDED6tut5LAQSZ,001,2025-08-16_12h13.23.009,continuous_performance_test,2024.2.4,Win32,59.88023952,8f5ffa10-340b-4d0c-b9fd-30a82fb8e917,6,519.3935,521.2877,,1,,,0,5,5,28,1,X,,,,,,,,,,,
,,,,,R_4aDED6tut5LAQSZ,001,2025-08-16_12h13.23.009,continuous_performance_test,2024.2.4,Win32,59.88023952,8f5ffa10-340b-4d0c-b9fd-30a82fb8e917,6,521.2895,523.2867,space,1,0.433,,0,6,6,23,1,Y,space,,,,,,,,,,
,,,,,R_4aDED6tut5LAQSZ,001,2025-08-16_12h13.23.009,continuous_performance_test,2024.2.4,Win32,59.88023952,8f5ffa10-340b-4d0c-b9fd-30a82fb8e917,6,523.2883,525.036,space,1,0.3751,,0,7,7,12,1,M,space,,,,,,,,,,
,,,,,R_4aDED6tut5LAQSZ,001,2025-08-16_12h13.23.009,continuous_performance_test,2024.2.4,Win32,59.88023952,8f5ffa10-340b-4d0c-b9fd-30a82fb8e917,6,525.0379,526.7358,space,1,0.3916,,0,8,8,1,1,B,space,,,,,,,,,,
,,,,,R_4aDED6tut5LAQSZ,001,2025-08-16_12h13.23.009,continuous_performance_test,2024.2.4,Win32,59.88023952,8f5ffa10-340b-4d0c-b9fd-30a82fb8e917,6,526.7375,528.3857,space,1,0.3353,,0,9,9,5,1,F,space,,,,,,,,,,
,,,,,R_4aDED6tut5LAQSZ,001,2025-08-16_12h13.23.009,continuous_performance_test,2024.2.4,Win32,59.88023952,8f5ffa10-340b-4d0c-b9fd-30a82fb8e917,6,528.3868,530.2348,space,1,0.3556,,0,10,10,16,1,Q,space,,,,,,,,,,
,,,,,R_4aDED6tut5LAQSZ,001,2025-08-16_12h13.23.009,continuous_performance_test,2024.2.4,Win32,59.88023952,8f5ffa10-340b-4d0c-b9fd-30a82fb8e917,6,530.2368,532.2341,space,1,0.3585,,0,11,11,4,1,E,space,,,,,,,,,,
,,,,,R_4aDED6tut5LAQSZ,001,2025-08-16_12h13.23.009,continuous_performance_test,2024.2.4,Win32,59.88023952,8f5ffa10-340b-4d0c-b9fd-30a82fb8e917,6,532.2359,534.0334,space,1,0.3827,,0,12,12,13,1,N,space,,,,,,,,,,
,,,,,R_4aDED6tut5LAQSZ,001,2025-08-16_12h13.23.009,continuous_performance_test,2024.2.4,Win32,59.88023952,8f5ffa10-340b-4d0c-b9fd-30a82fb8e917,6,534.0352,535.7826,space,1,0.3267,,0,13,13,22,1,W,space,,,,,,,,,,
,,,,,R_4aDED6tut5LAQSZ,001,2025-08-16_12h13.23.009,continuous_performance_test,2024.2.4,Win32,59.88023952,8f5ffa10-340b-4d0c-b9fd-30a82fb8e917,6,535.7841,537.4818,space,0,0.3119,,0,14,14,25,1,X,,,,,,,,,,,
,,,,,R_4aDED6tut5LAQSZ,001,2025-08-16_12h13.23.009,continuous_performance_test,2024.2.4,Win32,59.88023952,8f5ffa10-340b-4d0c-b9fd-30a82fb8e917,6,537.4836,539.0818,space,1,0.4076,,0,15,15,24,1,Z,space,,,,,,,,,,
,,,,,R_4aDED6tut5LAQSZ,001,2025-08-16_12h13.23.009,continuous_performance_test,2024.2.4,Win32,59.88023952,8f5ffa10-340b-4d0c-b9fd-30a82fb8e917,6,539.0833,540.6315,space,1,0.4232,,0,16,16,14,1,O,space,,,,,,,,,,
,,,,,R_4aDED6tut5LAQSZ,001,2025-08-16_12h13.23.009,continuous_performance_test,2024.2.4,Win32,59.88023952,8f5ffa10-340b-4d0c-b9fd-30a82fb8e917,6,540.6333,542.5306,space,0,0.2995,,0,17,17,27,1,X,,,,,,,,,,,
,,,,,R_4aDED6tut5LAQSZ,001,2025-08-16_12h13.23.009,continuous_performance_test,2024.2.4,Win32,59.88023952,8f5ffa10-340b-4d0c-b9fd-30a82fb8e917,6,542.5322,544.0799,space,1,0.2744,,0,18,18,8,1,I,space,,,,,,,,,,
,,,,,R_4aDED6tut5LAQSZ,001,2025-08-16_12h13.23.009,continuous_performance_test,2024.2.4,Win32,59.88023952,8f5ffa10-340b-4d0c-b9fd-30a82fb8e917,6,544.0814,545.6295,space,1,0.3882,,0,19,19,17,1,R,space,,,,,,,,,,
,,,,,R_4aDED6tut5LAQSZ,001,2025-08-16_12h13.23.009,continuous_performance_test,2024.2.4,Win32,59.88023952,8f5ffa10-340b-4d0c-b9fd-30a82fb8e917,6,545.6318,547.379,space,1,0.3492,,0,20,20,19,1,T,space,,,,,,,,,,
,,,,,R_4aDED6tut5LAQSZ,001,2025-08-16_12h13.23.009,continuous_performance_test,2024.2.4,Win32,59.88023952,8f5ffa10-340b-4d0c-b9fd-30a82fb8e917,6,547.381,549.1285,,1,,,0,21,21,29,1,X,,,,,,,,,,,
,,,,,R_4aDED6tut5LAQSZ,001,2025-08-16_12h13.23.009,continuous_performance_test,2024.2.4,Win32,59.88023952,8f5ffa10-340b-4d0c-b9fd-30a82fb8e917,6,549.1304,550.928,space,1,0.2926,,0,22,22,7,1,H,space,,,,,,,,,,
,,,,,R_4aDED6tut5LAQSZ,001,2025-08-16_12h13.23.009,continuous_performance_test,2024.2.4,Win32,59.88023952,8f5ffa10-340b-4d0c-b9fd-30a82fb8e917,6,550.9294,552.4794,space,1,0.333,,0,23,23,2,1,C,space,,,,,,,,,,
,,,,,R_4aDED6tut5LAQSZ,001,2025-08-16_12h13.23.009,continuous_performance_test,2024.2.4,Win32,59.88023952,8f5ffa10-340b-4d0c-b9fd-30a82fb8e917,6,552.481,554.3761,space,1,0.533,,0,24,24,15,1,P,space,,,,,,,,,,
,,,,,R_4aDED6tut5LAQSZ,001,2025-08-16_12h13.23.009,continuous_performance_test,2024.2.4,Win32,59.88023952,8f5ffa10-340b-4d0c-b9fd-30a82fb8e917,6,554.3781,555.9791,space,1,0.3183,,0,25,25,10,1,K,space,,,,,,,,,,
,,,,,R_4aDED6tut5LAQSZ,001,2025-08-16_12h13.23.009,continuous_performance_test,2024.2.4,Win32,59.88023952,8f5ffa10-340b-4d0c-b9fd-30a82fb8e917,6,555.9811,557.7752,space,0,0.3673,,0,26,26,26,1,X,,,,,,,,,,,
,,,,,R_4aDED6tut5LAQSZ,001,2025-08-16_12h13.23.009,continuous_performance_test,2024.2.4,Win32,59.88023952,8f5ffa10-340b-4d0c-b9fd-30a82fb8e917,6,557.7769,559.6247,space,1,0.3389,,0,27,27,6,1,G,space,,,,,,,,,,
,,,,,R_4aDED6tut5LAQSZ,001,2025-08-16_12h13.23.009,continuous_performance_test,2024.2.4,Win32,59.88023952,8f5ffa10-340b-4d0c-b9fd-30a82fb8e917,6,559.6267,561.5239,space,1,0.3492,,0,28,28,9,1,J,space,,,,,,,,,,
,,,,,R_4aDED6tut5LAQSZ,001,2025-08-16_12h13.23.009,continuous_performance_test,2024.2.4,Win32,59.88023952,8f5ffa10-340b-4d0c-b9fd-30a82fb8e917,6,561.5255,563.2237,space,1,0.2884,,0,29,29,3,1,D,space,,,,,,,,,,
,,,,,R_4aDED6tut5LAQSZ,001,2025-08-16_12h13.23.009,continuous_performance_test,2024.2.4,Win32,59.88023952,8f5ffa10-340b-4d0c-b9fd-30a82fb8e917,6,575.4777,577.169,space,1,0.3169,,0,0,0,19,1,T,space,563.2252,575.4693,space,12.2238,,,,,,
,,,,,R_4aDED6tut5LAQSZ,001,2025-08-16_12h13.23.009,continuous_performance_test,2024.2.4,Win32,59.88023952,8f5ffa10-340b-4d0c-b9fd-30a82fb8e917,6,577.1708,578.7183,space,0,0.2546,,0,1,1,28,1,X,,,,,,,,,,,
,,,,,R_4aDED6tut5LAQSZ,001,2025-08-16_12h13.23.009,continuous_performance_test,2024.2.4,Win32,59.88023952,8f5ffa10-340b-4d0c-b9fd-30a82fb8e917,6,578.72,580.3176,space,1,0.2868,,0,2,2,7,1,H,space,,,,,,,,,,
,,,,,R_4aDED6tut5LAQSZ,001,2025-08-16_12h13.23.009,continuous_performance_test,2024.2.4,Win32,59.88023952,8f5ffa10-340b-4d0c-b9fd-30a82fb8e917,6,580.3198,581.9672,space,1,0.3461,,0,3,3,8,1,I,space,,,,,,,,,,
,,,,,R_4aDED6tut5LAQSZ,001,2025-08-16_12h13.23.009,continuous_performance_test,2024.2.4,Win32,59.88023952,8f5ffa10-340b-4d0c-b9fd-30a82fb8e917,6,581.9688,583.9162,space,1,0.3391,,0,4,4,4,1,E,space,,,,,,,,,,
,,,,,R_4aDED6tut5LAQSZ,001,2025-08-16_12h13.23.009,continuous_performance_test,2024.2.4,Win32,59.88023952,8f5ffa10-340b-4d0c-b9fd-30a82fb8e917,6,583.9181,585.766,space,1,0.2594,,0,5,5,12,1,M,space,,,,,,,,,,
,,,,,R_4aDED6tut5LAQSZ,001,2025-08-16_12h13.23.009,continuous_performance_test,2024.2.4,Win32,59.88023952,8f5ffa10-340b-4d0c-b9fd-30a82fb8e917,6,585.7677,587.7152,space,1,0.3854,,0,6,6,6,1,G,space,,,,,,,,,,
,,,,,R_4aDED6tut5LAQSZ,001,2025-08-16_12h13.23.009,continuous_performance_test,2024.2.4,Win32,59.88023952,8f5ffa10-340b-4d0c-b9fd-30a82fb8e917,6,587.7171,589.5182,space,1,0.3202,,0,7,7,9,1,J,space,,,,,,,,,,
,,,,,R_4aDED6tut5LAQSZ,001,2025-08-16_12h13.23.009,continuous_performance_test,2024.2.4,Win32,59.88023952,8f5ffa10-340b-4d0c-b9fd-30a82fb8e917,6,589.52,591.0641,space,1,0.2945,,0,8,8,13,1,N,space,,,,,,,,,,
,,,,,R_4aDED6tut5LAQSZ,001,2025-08-16_12h13.23.009,continuous_performance_test,2024.2.4,Win32,59.88023952,8f5ffa10-340b-4d0c-b9fd-30a82fb8e917,6,591.0659,592.9132,space,1,0.4099,,0,9,9,2,1,C,space,,,,,,,,,,
,,,,,R_4aDED6tut5LAQSZ,001,2025-08-16_12h13.23.009,continuous_performance_test,2024.2.4,Win32,59.88023952,8f5ffa10-340b-4d0c-b9fd-30a82fb8e917,6,592.9149,594.9129,space,1,0.4484,,0,10,10,23,1,Y,space,,,,,,,,,,
,,,,,R_4aDED6tut5LAQSZ,001,2025-08-16_12h13.23.009,continuous_performance_test,2024.2.4,Win32,59.88023952,8f5ffa10-340b-4d0c-b9fd-30a82fb8e917,6,594.9145,596.6161,space,1,0.3521,,0,11,11,0,1,A,space,,,,,,,,,,
,,,,,R_4aDED6tut5LAQSZ,001,2025-08-16_12h13.23.009,continuous_performance_test,2024.2.4,Win32,59.88023952,8f5ffa10-340b-4d0c-b9fd-30a82fb8e917,6,596.6181,598.5615,space,1,0.3337,,0,12,12,17,1,R,space,,,,,,,,,,
,,,,,R_4aDED6tut5LAQSZ,001,2025-08-16_12h13.23.009,continuous_performance_test,2024.2.4,Win32,59.88023952,8f5ffa10-340b-4d0c-b9fd-30a82fb8e917,6,598.5632,600.3605,space,1,0.3027,,0,13,13,15,1,P,space,,,,,,,,,,
,,,,,R_4aDED6tut5LAQSZ,001,2025-08-16_12h13.23.009,continuous_performance_test,2024.2.4,Win32,59.88023952,8f5ffa10-340b-4d0c-b9fd-30a82fb8e917,6,600.3625,601.91,space,1,0.3534,,0,14,14,3,1,D,space,,,,,,,,,,
,,,,,R_4aDED6tut5LAQSZ,001,2025-08-16_12h13.23.009,continuous_performance_test,2024.2.4,Win32,59.88023952,8f5ffa10-340b-4d0c-b9fd-30a82fb8e917,6,601.9116,603.51,space,1,0.3269,,0,15,15,16,1,Q,space,,,,,,,,,,
,,,,,R_4aDED6tut5LAQSZ,001,2025-08-16_12h13.23.009,continuous_performance_test,2024.2.4,Win32,59.88023952,8f5ffa10-340b-4d0c-b9fd-30a82fb8e917,6,603.5116,605.1593,,1,,,0,16,16,25,1,X,,,,,,,,,,,
,,,,,R_4aDED6tut5LAQSZ,001,2025-08-16_12h13.23.009,continuous_performance_test,2024.2.4,Win32,59.88023952,8f5ffa10-340b-4d0c-b9fd-30a82fb8e917,6,605.1613,606.7588,space,1,0.3669,,0,17,17,18,1,S,space,,,,,,,,,,
,,,,,R_4aDED6tut5LAQSZ,001,2025-08-16_12h13.23.009,continuous_performance_test,2024.2.4,Win32,59.88023952,8f5ffa10-340b-4d0c-b9fd-30a82fb8e917,6,606.7608,608.7082,space,1,0.4017,,0,18,18,11,1,L,space,,,,,,,,,,
,,,,,R_4aDED6tut5LAQSZ,001,2025-08-16_12h13.23.009,continuous_performance_test,2024.2.4,Win32,59.88023952,8f5ffa10-340b-4d0c-b9fd-30a82fb8e917,6,608.71,610.6075,space,1,0.2983,,0,19,19,24,1,Z,space,,,,,,,,,,
,,,,,R_4aDED6tut5LAQSZ,001,2025-08-16_12h13.23.009,continuous_performance_test,2024.2.4,Win32,59.88023952,8f5ffa10-340b-4d0c-b9fd-30a82fb8e917,6,610.6091,612.4068,,1,,,0,20,20,29,1,X,,,,,,,,,,,
,,,,,R_4aDED6tut5LAQSZ,001,2025-08-16_12h13.23.009,continuous_performance_test,2024.2.4,Win32,59.88023952,8f5ffa10-340b-4d0c-b9fd-30a82fb8e917,6,612.4085,614.4059,space,1,0.3184,,0,21,21,5,1,F,space,,,,,,,,,,
,,,,,R_4aDED6tut5LAQSZ,001,2025-08-16_12h13.23.009,continuous_performance_test,2024.2.4,Win32,59.88023952,8f5ffa10-340b-4d0c-b9fd-30a82fb8e917,6,614.4075,616.3054,space,1,0.2724,,0,22,22,20,1,U,space,,,,,,,,,,
,,,,,R_4aDED6tut5LAQSZ,001,2025-08-16_12h13.23.009,continuous_performance_test,2024.2.4,Win32,59.88023952,8f5ffa10-340b-4d0c-b9fd-30a82fb8e917,6,616.3073,618.3048,space,1,0.3395,,0,23,23,21,1,V,space,,,,,,,,,,
,,,,,R_4aDED6tut5LAQSZ,001,2025-08-16_12h13.23.009,continuous_performance_test,2024.2.4,Win32,59.88023952,8f5ffa10-340b-4d0c-b9fd-30a82fb8e917,6,618.3063,620.3076,,1,,,0,24,24,27,1,X,,,,,,,,,,,
,,,,,R_4aDED6tut5LAQSZ,001,2025-08-16_12h13.23.009,continuous_performance_test,2024.2.4,Win32,59.88023952,8f5ffa10-340b-4d0c-b9fd-30a82fb8e917,6,620.3096,622.0034,space,1,0.4498,,0,25,25,10,1,K,space,,,,,,,,,,
,,,,,R_4aDED6tut5LAQSZ,001,2025-08-16_12h13.23.009,continuous_performance_test,2024.2.4,Win32,59.88023952,8f5ffa10-340b-4d0c-b9fd-30a82fb8e917,6,622.0049,623.8029,,1,,,0,26,26,26,1,X,,,,,,,,,,,
,,,,,R_4aDED6tut5LAQSZ,001,2025-08-16_12h13.23.009,continuous_performance_test,2024.2.4,Win32,59.88023952,8f5ffa10-340b-4d0c-b9fd-30a82fb8e917,6,623.8043,625.6557,space,1,0.2927,,0,27,27,1,1,B,space,,,,,,,,,,
,,,,,R_4aDED6tut5LAQSZ,001,2025-08-16_12h13.23.009,continuous_performance_test,2024.2.4,Win32,59.88023952,8f5ffa10-340b-4d0c-b9fd-30a82fb8e917,6,625.6574,627.6018,space,1,0.269,,0,28,28,22,1,W,space,,,,,,,,,,
,,,,,R_4aDED6tut5LAQSZ,001,2025-08-16_12h13.23.009,continuous_performance_test,2024.2.4,Win32,59.88023952,8f5ffa10-340b-4d0c-b9fd-30a82fb8e917,6,627.6034,629.601,space,1,0.4099,,0,29,29,14,1,O,space,,,,,,,,,,
,,,,,R_4aDED6tut5LAQSZ,001,2025-08-16_12h13.23.009,continuous_performance_test,2024.2.4,Win32,59.88023952,8f5ffa10-340b-4d0c-b9fd-30a82fb8e917,6,,,,,,,,,,,,,,629.6027,629.6036,,,,629.6042,634.3329,space,4.7096,
