Instructions.started,Instructions.stopped,key_resp.keys,key_resp.rt,key_resp.duration,participant,session,date,expName,psychopyVersion,OS,frameRate,realeye-tester-id,realeye-tester-quality_grade,Trial_noX.started,Trial_noX.stopped,response.keys,response.corr,response.rt,response.duration,trials_noX.thisRepN,trials_noX.thisTrialN,trials_noX.thisN,trials_noX.thisIndex,trials_noX.ran,letter,corrAns,BlockBreak.started,BlockBreak.stopped,key_instruct.keys,key_instruct.rt,key_instruct.duration,End_NoX.started,End_NoX.stopped,key_resp_end_noX.keys,key_resp_end_noX.rt,key_resp_end_noX.duration
0.007,21.9209,space,21.8691,,R_4D8pnTZcEuUojVl,001,2025-09-09_22h08.35.108,continuous_performance_test,2024.2.4,Win32,59.88023952,28225624-ef14-4d40-a341-b4072f76a63a,5,,,,,,,,,,,,,,,,,,,,,,,
,,,,,R_4D8pnTZcEuUojVl,001,2025-09-09_22h08.35.108,continuous_performance_test,2024.2.4,Win32,59.88023952,28225624-ef14-4d40-a341-b4072f76a63a,5,21.9705,23.8675,space,1,0.5308,,0,0,0,21,1,V,space,,,,,,,,,,
,,,,,R_4D8pnTZcEuUojVl,001,2025-09-09_22h08.35.108,continuous_performance_test,2024.2.4,Win32,59.88023952,28225624-ef14-4d40-a341-b4072f76a63a,5,23.8709,25.8177,space,1,0.3936,,0,1,1,8,1,I,space,,,,,,,,,,
,,,,,R_4D8pnTZcEuUojVl,001,2025-09-09_22h08.35.108,continuous_performance_test,2024.2.4,Win32,59.88023952,28225624-ef14-4d40-a341-b4072f76a63a,5,25.8213,27.4169,space,1,0.3415,,0,2,2,19,1,T,space,,,,,,,,,,
,,,,,R_4D8pnTZcEuUojVl,001,2025-09-09_22h08.35.108,continuous_performance_test,2024.2.4,Win32,59.88023952,28225624-ef14-4d40-a341-b4072f76a63a,5,27.421,29.0661,space,1,0.3251,,0,3,3,20,1,U,space,,,,,,,,,,
,,,,,R_4D8pnTZcEuUojVl,001,2025-09-09_22h08.35.108,continuous_performance_test,2024.2.4,Win32,59.88023952,28225624-ef14-4d40-a341-b4072f76a63a,5,29.0692,30.667,,1,,,0,4,4,25,1,X,,,,,,,,,,,
,,,,,R_4D8pnTZcEuUojVl,001,2025-09-09_22h08.35.108,continuous_performance_test,2024.2.4,Win32,59.88023952,28225624-ef14-4d40-a341-b4072f76a63a,5,30.6716,32.3172,space,1,0.2852,,0,5,5,15,1,P,space,,,,,,,,,,
,,,,,R_4D8pnTZcEuUojVl,001,2025-09-09_22h08.35.108,continuous_performance_test,2024.2.4,Win32,59.88023952,28225624-ef14-4d40-a341-b4072f76a63a,5,32.3206,33.9669,space,1,0.4021,,0,6,6,11,1,L,space,,,,,,,,,,
,,,,,R_4D8pnTZcEuUojVl,001,2025-09-09_22h08.35.108,continuous_performance_test,2024.2.4,Win32,59.88023952,28225624-ef14-4d40-a341-b4072f76a63a,5,33.9704,35.7663,space,0,0.2904,,0,7,7,28,1,X,,,,,,,,,,,
,,,,,R_4D8pnTZcEuUojVl,001,2025-09-09_22h08.35.108,continuous_performance_test,2024.2.4,Win32,59.88023952,28225624-ef14-4d40-a341-b4072f76a63a,5,35.7703,37.4168,space,1,0.2739,,0,8,8,16,1,Q,space,,,,,,,,,,
,,,,,R_4D8pnTZcEuUojVl,001,2025-09-09_22h08.35.108,continuous_performance_test,2024.2.4,Win32,59.88023952,28225624-ef14-4d40-a341-b4072f76a63a,5,37.4192,39.0699,,1,,,0,9,9,26,1,X,,,,,,,,,,,
,,,,,R_4D8pnTZcEuUojVl,001,2025-09-09_22h08.35.108,continuous_performance_test,2024.2.4,Win32,59.88023952,28225624-ef14-4d40-a341-b4072f76a63a,5,39.0725,40.8672,space,1,0.2563,,0,10,10,18,1,S,space,,,,,,,,,,
,,,,,R_4D8pnTZcEuUojVl,001,2025-09-09_22h08.35.108,continuous_performance_test,2024.2.4,Win32,59.88023952,28225624-ef14-4d40-a341-b4072f76a63a,5,40.8703,42.4173,space,1,0.3517,,0,11,11,10,1,K,space,,,,,,,,,,
,,,,,R_4D8pnTZcEuUojVl,001,2025-09-09_22h08.35.108,continuous_performance_test,2024.2.4,Win32,59.88023952,28225624-ef14-4d40-a341-b4072f76a63a,5,42.4201,44.3672,space,1,0.3521,,0,12,12,1,1,B,space,,,,,,,,,,
,,,,,R_4D8pnTZcEuUojVl,001,2025-09-09_22h08.35.108,continuous_performance_test,2024.2.4,Win32,59.88023952,28225624-ef14-4d40-a341-b4072f76a63a,5,44.3701,46.2169,space,1,0.2686,,0,13,13,0,1,A,space,,,,,,,,,,
,,,,,R_4D8pnTZcEuUojVl,001,2025-09-09_22h08.35.108,continuous_performance_test,2024.2.4,Win32,59.88023952,28225624-ef14-4d40-a341-b4072f76a63a,5,46.2199,48.0168,space,1,0.3243,,0,14,14,5,1,F,space,,,,,,,,,,
,,,,,R_4D8pnTZcEuUojVl,001,2025-09-09_22h08.35.108,continuous_performance_test,2024.2.4,Win32,59.88023952,28225624-ef14-4d40-a341-b4072f76a63a,5,48.0201,49.5666,space,1,0.2357,,0,15,15,6,1,G,space,,,,,,,,,,
,,,,,R_4D8pnTZcEuUojVl,001,2025-09-09_22h08.35.108,continuous_performance_test,2024.2.4,Win32,59.88023952,28225624-ef14-4d40-a341-b4072f76a63a,5,49.5701,51.2668,space,1,0.3366,,0,16,16,24,1,Z,space,,,,,,,,,,
,,,,,R_4D8pnTZcEuUojVl,001,2025-09-09_22h08.35.108,continuous_performance_test,2024.2.4,Win32,59.88023952,28225624-ef14-4d40-a341-b4072f76a63a,5,51.27,52.9166,space,1,0.2516,,0,17,17,17,1,R,space,,,,,,,,,,
,,,,,R_4D8pnTZcEuUojVl,001,2025-09-09_22h08.35.108,continuous_performance_test,2024.2.4,Win32,59.88023952,28225624-ef14-4d40-a341-b4072f76a63a,5,52.92,54.5167,space,1,0.319,,0,18,18,9,1,J,space,,,,,,,,,,
,,,,,R_4D8pnTZcEuUojVl,001,2025-09-09_22h08.35.108,continuous_performance_test,2024.2.4,Win32,59.88023952,28225624-ef14-4d40-a341-b4072f76a63a,5,54.5203,56.217,space,1,0.018,,0,19,19,4,1,E,space,,,,,,,,,,
,,,,,R_4D8pnTZcEuUojVl,001,2025-09-09_22h08.35.108,continuous_performance_test,2024.2.4,Win32,59.88023952,28225624-ef14-4d40-a341-b4072f76a63a,5,56.2203,58.1167,space,1,0.3185,,0,20,20,14,1,O,space,,,,,,,,,,
,,,,,R_4D8pnTZcEuUojVl,001,2025-09-09_22h08.35.108,continuous_performance_test,2024.2.4,Win32,59.88023952,28225624-ef14-4d40-a341-b4072f76a63a,5,58.1201,60.0166,space,1,0.3724,,0,21,21,3,1,D,space,,,,,,,,,,
,,,,,R_4D8pnTZcEuUojVl,001,2025-09-09_22h08.35.108,continuous_performance_test,2024.2.4,Win32,59.88023952,28225624-ef14-4d40-a341-b4072f76a63a,5,60.0192,61.9669,space,1,0.2684,,0,22,22,12,1,M,space,,,,,,,,,,
,,,,,R_4D8pnTZcEuUojVl,001,2025-09-09_22h08.35.108,continuous_performance_test,2024.2.4,Win32,59.88023952,28225624-ef14-4d40-a341-b4072f76a63a,5,61.9697,63.8159,space,0,0.2348,,0,23,23,27,1,X,,,,,,,,,,,
,,,,,R_4D8pnTZcEuUojVl,001,2025-09-09_22h08.35.108,continuous_performance_test,2024.2.4,Win32,59.88023952,28225624-ef14-4d40-a341-b4072f76a63a,5,63.8184,65.6664,space,1,0.2764,,0,24,24,13,1,N,space,,,,,,,,,,
,,,,,R_4D8pnTZcEuUojVl,001,2025-09-09_22h08.35.108,continuous_performance_test,2024.2.4,Win32,59.88023952,28225624-ef14-4d40-a341-b4072f76a63a,5,65.6703,67.2668,space,1,0.2683,,0,25,25,2,1,C,space,,,,,,,,,,
,,,,,R_4D8pnTZcEuUojVl,001,2025-09-09_22h08.35.108,continuous_performance_test,2024.2.4,Win32,59.88023952,28225624-ef14-4d40-a341-b4072f76a63a,5,67.2693,68.8664,space,0,0.252,,0,26,26,29,1,X,,,,,,,,,,,
,,,,,R_4D8pnTZcEuUojVl,001,2025-09-09_22h08.35.108,continuous_performance_test,2024.2.4,Win32,59.88023952,28225624-ef14-4d40-a341-b4072f76a63a,5,68.8699,70.8664,space,1,0.2347,,0,27,27,23,1,Y,space,,,,,,,,,,
,,,,,R_4D8pnTZcEuUojVl,001,2025-09-09_22h08.35.108,continuous_performance_test,2024.2.4,Win32,59.88023952,28225624-ef14-4d40-a341-b4072f76a63a,5,70.8705,72.5162,space,1,0.2524,,0,28,28,22,1,W,space,,,,,,,,,,
,,,,,R_4D8pnTZcEuUojVl,001,2025-09-09_22h08.35.108,continuous_performance_test,2024.2.4,Win32,59.88023952,28225624-ef14-4d40-a341-b4072f76a63a,5,72.5194,74.3163,space,1,0.2518,,0,29,29,7,1,H,space,,,,,,,,,,
,,,,,R_4D8pnTZcEuUojVl,001,2025-09-09_22h08.35.108,continuous_performance_test,2024.2.4,Win32,59.88023952,28225624-ef14-4d40-a341-b4072f76a63a,5,84.8685,86.7667,,1,,,0,0,0,29,1,X,,74.3178,84.851,space,10.5013,,,,,,
,,,,,R_4D8pnTZcEuUojVl,001,2025-09-09_22h08.35.108,continuous_performance_test,2024.2.4,Win32,59.88023952,28225624-ef14-4d40-a341-b4072f76a63a,5,86.7691,88.6662,space,1,0.202,,0,1,1,22,1,W,space,,,,,,,,,,
,,,,,R_4D8pnTZcEuUojVl,001,2025-09-09_22h08.35.108,continuous_performance_test,2024.2.4,Win32,59.88023952,28225624-ef14-4d40-a341-b4072f76a63a,5,88.6686,90.216,space,1,0.3022,,0,2,2,5,1,F,space,,,,,,,,,,
,,,,,R_4D8pnTZcEuUojVl,001,2025-09-09_22h08.35.108,continuous_performance_test,2024.2.4,Win32,59.88023952,28225624-ef14-4d40-a341-b4072f76a63a,5,90.2184,91.7663,space,0,0.3374,,0,3,3,27,1,X,,,,,,,,,,,
,,,,,R_4D8pnTZcEuUojVl,001,2025-09-09_22h08.35.108,continuous_performance_test,2024.2.4,Win32,59.88023952,28225624-ef14-4d40-a341-b4072f76a63a,5,91.7691,93.6163,space,1,0.199,,0,4,4,9,1,J,space,,,,,,,,,,
,,,,,R_4D8pnTZcEuUojVl,001,2025-09-09_22h08.35.108,continuous_performance_test,2024.2.4,Win32,59.88023952,28225624-ef14-4d40-a341-b4072f76a63a,5,93.6187,95.4662,space,1,0.3071,,0,5,5,0,1,A,space,,,,,,,,,,
,,,,,R_4D8pnTZcEuUojVl,001,2025-09-09_22h08.35.108,continuous_performance_test,2024.2.4,Win32,59.88023952,28225624-ef14-4d40-a341-b4072f76a63a,5,95.4688,97.2662,space,1,0.3081,,0,6,6,12,1,M,space,,,,,,,,,,
,,,,,R_4D8pnTZcEuUojVl,001,2025-09-09_22h08.35.108,continuous_performance_test,2024.2.4,Win32,59.88023952,28225624-ef14-4d40-a341-b4072f76a63a,5,97.2694,99.1659,space,1,0.3517,,0,7,7,20,1,U,space,,,,,,,,,,
,,,,,R_4D8pnTZcEuUojVl,001,2025-09-09_22h08.35.108,continuous_performance_test,2024.2.4,Win32,59.88023952,28225624-ef14-4d40-a341-b4072f76a63a,5,99.1689,100.8161,space,1,0.2517,,0,8,8,8,1,I,space,,,,,,,,,,
,,,,,R_4D8pnTZcEuUojVl,001,2025-09-09_22h08.35.108,continuous_performance_test,2024.2.4,Win32,59.88023952,28225624-ef14-4d40-a341-b4072f76a63a,5,100.8186,102.366,space,1,0.301,,0,9,9,18,1,S,space,,,,,,,,,,
,,,,,R_4D8pnTZcEuUojVl,001,2025-09-09_22h08.35.108,continuous_performance_test,2024.2.4,Win32,59.88023952,28225624-ef14-4d40-a341-b4072f76a63a,5,102.3694,104.166,space,1,0.3579,,0,10,10,4,1,E,space,,,,,,,,,,
,,,,,R_4D8pnTZcEuUojVl,001,2025-09-09_22h08.35.108,continuous_performance_test,2024.2.4,Win32,59.88023952,28225624-ef14-4d40-a341-b4072f76a63a,5,104.1686,105.9158,space,1,0.4516,,0,11,11,3,1,D,space,,,,,,,,,,
,,,,,R_4D8pnTZcEuUojVl,001,2025-09-09_22h08.35.108,continuous_performance_test,2024.2.4,Win32,59.88023952,28225624-ef14-4d40-a341-b4072f76a63a,5,105.9184,107.6155,space,1,0.3021,,0,12,12,7,1,H,space,,,,,,,,,,
,,,,,R_4D8pnTZcEuUojVl,001,2025-09-09_22h08.35.108,continuous_performance_test,2024.2.4,Win32,59.88023952,28225624-ef14-4d40-a341-b4072f76a63a,5,107.6188,109.3655,space,1,0.2357,,0,13,13,1,1,B,space,,,,,,,,,,
,,,,,R_4D8pnTZcEuUojVl,001,2025-09-09_22h08.35.108,continuous_performance_test,2024.2.4,Win32,59.88023952,28225624-ef14-4d40-a341-b4072f76a63a,5,109.3684,111.266,space,0,0.2188,,0,14,14,25,1,X,,,,,,,,,,,
,,,,,R_4D8pnTZcEuUojVl,001,2025-09-09_22h08.35.108,continuous_performance_test,2024.2.4,Win32,59.88023952,28225624-ef14-4d40-a341-b4072f76a63a,5,111.268,113.2656,space,1,0.2702,,0,15,15,14,1,O,space,,,,,,,,,,
,,,,,R_4D8pnTZcEuUojVl,001,2025-09-09_22h08.35.108,continuous_performance_test,2024.2.4,Win32,59.88023952,28225624-ef14-4d40-a341-b4072f76a63a,5,113.2677,115.2654,space,1,0.2516,,0,16,16,21,1,V,space,,,,,,,,,,
,,,,,R_4D8pnTZcEuUojVl,001,2025-09-09_22h08.35.108,continuous_performance_test,2024.2.4,Win32,59.88023952,28225624-ef14-4d40-a341-b4072f76a63a,5,115.2682,117.0654,space,1,0.3352,,0,17,17,15,1,P,space,,,,,,,,,,
,,,,,R_4D8pnTZcEuUojVl,001,2025-09-09_22h08.35.108,continuous_performance_test,2024.2.4,Win32,59.88023952,28225624-ef14-4d40-a341-b4072f76a63a,5,117.0674,119.0155,space,1,0.2591,,0,18,18,13,1,N,space,,,,,,,,,,
,,,,,R_4D8pnTZcEuUojVl,001,2025-09-09_22h08.35.108,continuous_performance_test,2024.2.4,Win32,59.88023952,28225624-ef14-4d40-a341-b4072f76a63a,5,119.0186,120.7655,space,1,0.3227,,0,19,19,2,1,C,space,,,,,,,,,,
,,,,,R_4D8pnTZcEuUojVl,001,2025-09-09_22h08.35.108,continuous_performance_test,2024.2.4,Win32,59.88023952,28225624-ef14-4d40-a341-b4072f76a63a,5,120.768,122.5156,space,1,0.3687,,0,20,20,16,1,Q,space,,,,,,,,,,
,,,,,R_4D8pnTZcEuUojVl,001,2025-09-09_22h08.35.108,continuous_performance_test,2024.2.4,Win32,59.88023952,28225624-ef14-4d40-a341-b4072f76a63a,5,122.5184,124.2149,space,1,0.3681,,0,21,21,10,1,K,space,,,,,,,,,,
,,,,,R_4D8pnTZcEuUojVl,001,2025-09-09_22h08.35.108,continuous_performance_test,2024.2.4,Win32,59.88023952,28225624-ef14-4d40-a341-b4072f76a63a,5,124.2169,125.9157,space,1,0.3674,,0,22,22,11,1,L,space,,,,,,,,,,
,,,,,R_4D8pnTZcEuUojVl,001,2025-09-09_22h08.35.108,continuous_performance_test,2024.2.4,Win32,59.88023952,28225624-ef14-4d40-a341-b4072f76a63a,5,125.9186,127.6149,space,0,0.668,,0,23,23,26,1,X,,,,,,,,,,,
,,,,,R_4D8pnTZcEuUojVl,001,2025-09-09_22h08.35.108,continuous_performance_test,2024.2.4,Win32,59.88023952,28225624-ef14-4d40-a341-b4072f76a63a,5,127.6182,129.3653,space,1,0.2532,,0,24,24,24,1,Z,space,,,,,,,,,,
,,,,,R_4D8pnTZcEuUojVl,001,2025-09-09_22h08.35.108,continuous_performance_test,2024.2.4,Win32,59.88023952,28225624-ef14-4d40-a341-b4072f76a63a,5,129.3676,131.1156,space,0,0.2922,,0,25,25,28,1,X,,,,,,,,,,,
,,,,,R_4D8pnTZcEuUojVl,001,2025-09-09_22h08.35.108,continuous_performance_test,2024.2.4,Win32,59.88023952,28225624-ef14-4d40-a341-b4072f76a63a,5,131.1183,132.9153,space,1,0.2864,,0,26,26,6,1,G,space,,,,,,,,,,
,,,,,R_4D8pnTZcEuUojVl,001,2025-09-09_22h08.35.108,continuous_performance_test,2024.2.4,Win32,59.88023952,28225624-ef14-4d40-a341-b4072f76a63a,5,132.9182,134.8154,space,1,0.2561,,0,27,27,23,1,Y,space,,,,,,,,,,
,,,,,R_4D8pnTZcEuUojVl,001,2025-09-09_22h08.35.108,continuous_performance_test,2024.2.4,Win32,59.88023952,28225624-ef14-4d40-a341-b4072f76a63a,5,134.8184,136.5152,space,1,0.3017,,0,28,28,17,1,R,space,,,,,,,,,,
,,,,,R_4D8pnTZcEuUojVl,001,2025-09-09_22h08.35.108,continuous_performance_test,2024.2.4,Win32,59.88023952,28225624-ef14-4d40-a341-b4072f76a63a,5,136.5184,138.3154,space,1,0.3516,,0,29,29,19,1,T,space,,,,,,,,,,
,,,,,R_4D8pnTZcEuUojVl,001,2025-09-09_22h08.35.108,continuous_performance_test,2024.2.4,Win32,59.88023952,28225624-ef14-4d40-a341-b4072f76a63a,5,150.5992,152.5986,,1,,,0,0,0,25,1,X,,138.3179,150.5815,space,12.2349,,,,,,
,,,,,R_4D8pnTZcEuUojVl,001,2025-09-09_22h08.35.108,continuous_performance_test,2024.2.4,Win32,59.88023952,28225624-ef14-4d40-a341-b4072f76a63a,5,152.6016,154.5982,space,1,0.3003,,0,1,1,4,1,E,space,,,,,,,,,,
,,,,,R_4D8pnTZcEuUojVl,001,2025-09-09_22h08.35.108,continuous_performance_test,2024.2.4,Win32,59.88023952,28225624-ef14-4d40-a341-b4072f76a63a,5,154.6007,156.3486,space,1,0.3179,,0,2,2,13,1,N,space,,,,,,,,,,
,,,,,R_4D8pnTZcEuUojVl,001,2025-09-09_22h08.35.108,continuous_performance_test,2024.2.4,Win32,59.88023952,28225624-ef14-4d40-a341-b4072f76a63a,5,156.3511,157.9983,space,1,0.3669,,0,3,3,15,1,P,space,,,,,,,,,,
,,,,,R_4D8pnTZcEuUojVl,001,2025-09-09_22h08.35.108,continuous_performance_test,2024.2.4,Win32,59.88023952,28225624-ef14-4d40-a341-b4072f76a63a,5,158.0008,159.8489,space,1,0.34,,0,4,4,3,1,D,space,,,,,,,,,,
,,,,,R_4D8pnTZcEuUojVl,001,2025-09-09_22h08.35.108,continuous_performance_test,2024.2.4,Win32,59.88023952,28225624-ef14-4d40-a341-b4072f76a63a,5,159.8513,161.698,space,1,0.5083,,0,5,5,1,1,B,space,,,,,,,,,,
,,,,,R_4D8pnTZcEuUojVl,001,2025-09-09_22h08.35.108,continuous_performance_test,2024.2.4,Win32,59.88023952,28225624-ef14-4d40-a341-b4072f76a63a,5,161.7008,163.3982,space,1,0.3686,,0,6,6,9,1,J,space,,,,,,,,,,
,,,,,R_4D8pnTZcEuUojVl,001,2025-09-09_22h08.35.108,continuous_performance_test,2024.2.4,Win32,59.88023952,28225624-ef14-4d40-a341-b4072f76a63a,5,163.4008,165.1486,space,1,0.3113,,0,7,7,20,1,U,space,,,,,,,,,,
,,,,,R_4D8pnTZcEuUojVl,001,2025-09-09_22h08.35.108,continuous_performance_test,2024.2.4,Win32,59.88023952,28225624-ef14-4d40-a341-b4072f76a63a,5,165.1511,166.9982,space,1,0.3014,,0,8,8,7,1,H,space,,,,,,,,,,
,,,,,R_4D8pnTZcEuUojVl,001,2025-09-09_22h08.35.108,continuous_performance_test,2024.2.4,Win32,59.88023952,28225624-ef14-4d40-a341-b4072f76a63a,5,167.0006,168.9493,space,1,0.2546,,0,9,9,22,1,W,space,,,,,,,,,,
,,,,,R_4D8pnTZcEuUojVl,001,2025-09-09_22h08.35.108,continuous_performance_test,2024.2.4,Win32,59.88023952,28225624-ef14-4d40-a341-b4072f76a63a,5,168.9517,170.7976,space,1,0.4018,,0,10,10,8,1,I,space,,,,,,,,,,
,,,,,R_4D8pnTZcEuUojVl,001,2025-09-09_22h08.35.108,continuous_performance_test,2024.2.4,Win32,59.88023952,28225624-ef14-4d40-a341-b4072f76a63a,5,170.8004,172.6981,space,1,0.3349,,0,11,11,5,1,F,space,,,,,,,,,,
,,,,,R_4D8pnTZcEuUojVl,001,2025-09-09_22h08.35.108,continuous_performance_test,2024.2.4,Win32,59.88023952,28225624-ef14-4d40-a341-b4072f76a63a,5,172.7004,174.5481,space,1,0.4516,,0,12,12,16,1,Q,space,,,,,,,,,,
,,,,,R_4D8pnTZcEuUojVl,001,2025-09-09_22h08.35.108,continuous_performance_test,2024.2.4,Win32,59.88023952,28225624-ef14-4d40-a341-b4072f76a63a,5,174.5507,176.2978,space,1,0.3508,,0,13,13,10,1,K,space,,,,,,,,,,
,,,,,R_4D8pnTZcEuUojVl,001,2025-09-09_22h08.35.108,continuous_performance_test,2024.2.4,Win32,59.88023952,28225624-ef14-4d40-a341-b4072f76a63a,5,176.3005,177.9981,space,1,0.4014,,0,14,14,12,1,M,space,,,,,,,,,,
,,,,,R_4D8pnTZcEuUojVl,001,2025-09-09_22h08.35.108,continuous_performance_test,2024.2.4,Win32,59.88023952,28225624-ef14-4d40-a341-b4072f76a63a,5,178.0009,179.7982,space,1,0.2689,,0,15,15,19,1,T,space,,,,,,,,,,
,,,,,R_4D8pnTZcEuUojVl,001,2025-09-09_22h08.35.108,continuous_performance_test,2024.2.4,Win32,59.88023952,28225624-ef14-4d40-a341-b4072f76a63a,5,179.8013,181.7487,space,0,0.236,,0,16,16,29,1,X,,,,,,,,,,,
,,,,,R_4D8pnTZcEuUojVl,001,2025-09-09_22h08.35.108,continuous_performance_test,2024.2.4,Win32,59.88023952,28225624-ef14-4d40-a341-b4072f76a63a,5,181.7506,183.2981,space,1,0.3346,,0,17,17,14,1,O,space,,,,,,,,,,
,,,,,R_4D8pnTZcEuUojVl,001,2025-09-09_22h08.35.108,continuous_performance_test,2024.2.4,Win32,59.88023952,28225624-ef14-4d40-a341-b4072f76a63a,5,183.3002,184.9978,space,0,0.3519,,0,18,18,27,1,X,,,,,,,,,,,
,,,,,R_4D8pnTZcEuUojVl,001,2025-09-09_22h08.35.108,continuous_performance_test,2024.2.4,Win32,59.88023952,28225624-ef14-4d40-a341-b4072f76a63a,5,185.0004,186.8977,space,1,0.2851,,0,19,19,2,1,C,space,,,,,,,,,,
,,,,,R_4D8pnTZcEuUojVl,001,2025-09-09_22h08.35.108,continuous_performance_test,2024.2.4,Win32,59.88023952,28225624-ef14-4d40-a341-b4072f76a63a,5,186.9007,188.6975,space,1,0.4231,,0,20,20,18,1,S,space,,,,,,,,,,
,,,,,R_4D8pnTZcEuUojVl,001,2025-09-09_22h08.35.108,continuous_performance_test,2024.2.4,Win32,59.88023952,28225624-ef14-4d40-a341-b4072f76a63a,5,188.6999,190.5478,space,1,0.3424,,0,21,21,17,1,R,space,,,,,,,,,,
,,,,,R_4D8pnTZcEuUojVl,001,2025-09-09_22h08.35.108,continuous_performance_test,2024.2.4,Win32,59.88023952,28225624-ef14-4d40-a341-b4072f76a63a,5,190.5516,192.2478,space,1,0.3522,,0,22,22,23,1,Y,space,,,,,,,,,,
,,,,,R_4D8pnTZcEuUojVl,001,2025-09-09_22h08.35.108,continuous_performance_test,2024.2.4,Win32,59.88023952,28225624-ef14-4d40-a341-b4072f76a63a,5,192.2506,194.1978,space,1,0.3428,,0,23,23,6,1,G,space,,,,,,,,,,
,,,,,R_4D8pnTZcEuUojVl,001,2025-09-09_22h08.35.108,continuous_performance_test,2024.2.4,Win32,59.88023952,28225624-ef14-4d40-a341-b4072f76a63a,5,194.2003,195.7479,space,1,0.3744,,0,24,24,0,1,A,space,,,,,,,,,,
,,,,,R_4D8pnTZcEuUojVl,001,2025-09-09_22h08.35.108,continuous_performance_test,2024.2.4,Win32,59.88023952,28225624-ef14-4d40-a341-b4072f76a63a,5,195.7502,197.5472,space,1,0.3705,,0,25,25,24,1,Z,space,,,,,,,,,,
,,,,,R_4D8pnTZcEuUojVl,001,2025-09-09_22h08.35.108,continuous_performance_test,2024.2.4,Win32,59.88023952,28225624-ef14-4d40-a341-b4072f76a63a,5,197.5496,199.2474,,1,,,0,26,26,28,1,X,,,,,,,,,,,
,,,,,R_4D8pnTZcEuUojVl,001,2025-09-09_22h08.35.108,continuous_performance_test,2024.2.4,Win32,59.88023952,28225624-ef14-4d40-a341-b4072f76a63a,5,199.2499,201.2477,space,1,0.2778,,0,27,27,11,1,L,space,,,,,,,,,,
,,,,,R_4D8pnTZcEuUojVl,001,2025-09-09_22h08.35.108,continuous_performance_test,2024.2.4,Win32,59.88023952,28225624-ef14-4d40-a341-b4072f76a63a,5,201.2499,203.2474,space,1,0.3018,,0,28,28,21,1,V,space,,,,,,,,,,
,,,,,R_4D8pnTZcEuUojVl,001,2025-09-09_22h08.35.108,continuous_performance_test,2024.2.4,Win32,59.88023952,28225624-ef14-4d40-a341-b4072f76a63a,5,203.25,205.0974,,1,,,0,29,29,26,1,X,,,,,,,,,,,
,,,,,R_4D8pnTZcEuUojVl,001,2025-09-09_22h08.35.108,continuous_performance_test,2024.2.4,Win32,59.88023952,28225624-ef14-4d40-a341-b4072f76a63a,5,212.3583,214.0473,space,1,0.3195,,0,0,0,1,1,B,space,205.0995,212.3472,space,7.2261,,,,,,
,,,,,R_4D8pnTZcEuUojVl,001,2025-09-09_22h08.35.108,continuous_performance_test,2024.2.4,Win32,59.88023952,28225624-ef14-4d40-a341-b4072f76a63a,5,214.0496,215.8966,space,0,0.2907,,0,1,1,25,1,X,,,,,,,,,,,
,,,,,R_4D8pnTZcEuUojVl,001,2025-09-09_22h08.35.108,continuous_performance_test,2024.2.4,Win32,59.88023952,28225624-ef14-4d40-a341-b4072f76a63a,5,215.8987,217.7971,,1,,,0,2,2,27,1,X,,,,,,,,,,,
,,,,,R_4D8pnTZcEuUojVl,001,2025-09-09_22h08.35.108,continuous_performance_test,2024.2.4,Win32,59.88023952,28225624-ef14-4d40-a341-b4072f76a63a,5,217.7995,219.7471,space,1,0.3035,,0,3,3,9,1,J,space,,,,,,,,,,
,,,,,R_4D8pnTZcEuUojVl,001,2025-09-09_22h08.35.108,continuous_performance_test,2024.2.4,Win32,59.88023952,28225624-ef14-4d40-a341-b4072f76a63a,5,219.7493,221.4465,space,1,0.3519,,0,4,4,17,1,R,space,,,,,,,,,,
,,,,,R_4D8pnTZcEuUojVl,001,2025-09-09_22h08.35.108,continuous_performance_test,2024.2.4,Win32,59.88023952,28225624-ef14-4d40-a341-b4072f76a63a,5,221.4486,223.2473,space,1,0.5441,,0,5,5,4,1,E,space,,,,,,,,,,
,,,,,R_4D8pnTZcEuUojVl,001,2025-09-09_22h08.35.108,continuous_performance_test,2024.2.4,Win32,59.88023952,28225624-ef14-4d40-a341-b4072f76a63a,5,223.2498,224.9472,space,1,0.3124,,0,6,6,3,1,D,space,,,,,,,,,,
,,,,,R_4D8pnTZcEuUojVl,001,2025-09-09_22h08.35.108,continuous_performance_test,2024.2.4,Win32,59.88023952,28225624-ef14-4d40-a341-b4072f76a63a,5,224.9498,226.7473,space,1,0.341,,0,7,7,14,1,O,space,,,,,,,,,,
,,,,,R_4D8pnTZcEuUojVl,001,2025-09-09_22h08.35.108,continuous_performance_test,2024.2.4,Win32,59.88023952,28225624-ef14-4d40-a341-b4072f76a63a,5,226.75,228.5468,space,0,0.3514,,0,8,8,29,1,X,,,,,,,,,,,
,,,,,R_4D8pnTZcEuUojVl,001,2025-09-09_22h08.35.108,continuous_performance_test,2024.2.4,Win32,59.88023952,28225624-ef14-4d40-a341-b4072f76a63a,5,228.5493,230.3968,space,1,0.3358,,0,9,9,7,1,H,space,,,,,,,,,,
,,,,,R_4D8pnTZcEuUojVl,001,2025-09-09_22h08.35.108,continuous_performance_test,2024.2.4,Win32,59.88023952,28225624-ef14-4d40-a341-b4072f76a63a,5,230.3995,232.0474,space,1,0.4086,,0,10,10,16,1,Q,space,,,,,,,,,,
,,,,,R_4D8pnTZcEuUojVl,001,2025-09-09_22h08.35.108,continuous_performance_test,2024.2.4,Win32,59.88023952,28225624-ef14-4d40-a341-b4072f76a63a,5,232.0496,233.6969,space,1,0.3867,,0,11,11,23,1,Y,space,,,,,,,,,,
,,,,,R_4D8pnTZcEuUojVl,001,2025-09-09_22h08.35.108,continuous_performance_test,2024.2.4,Win32,59.88023952,28225624-ef14-4d40-a341-b4072f76a63a,5,233.6995,235.6971,,1,,,0,12,12,28,1,X,,,,,,,,,,,
,,,,,R_4D8pnTZcEuUojVl,001,2025-09-09_22h08.35.108,continuous_performance_test,2024.2.4,Win32,59.88023952,28225624-ef14-4d40-a341-b4072f76a63a,5,235.6995,237.2467,space,1,0.4049,,0,13,13,19,1,T,space,,,,,,,,,,
,,,,,R_4D8pnTZcEuUojVl,001,2025-09-09_22h08.35.108,continuous_performance_test,2024.2.4,Win32,59.88023952,28225624-ef14-4d40-a341-b4072f76a63a,5,237.249,238.9472,space,1,0.3043,,0,14,14,5,1,F,space,,,,,,,,,,
,,,,,R_4D8pnTZcEuUojVl,001,2025-09-09_22h08.35.108,continuous_performance_test,2024.2.4,Win32,59.88023952,28225624-ef14-4d40-a341-b4072f76a63a,5,238.9497,240.9465,space,1,0.3171,,0,15,15,21,1,V,space,,,,,,,,,,
,,,,,R_4D8pnTZcEuUojVl,001,2025-09-09_22h08.35.108,continuous_performance_test,2024.2.4,Win32,59.88023952,28225624-ef14-4d40-a341-b4072f76a63a,5,240.9485,242.6468,space,1,0.4513,,0,16,16,11,1,L,space,,,,,,,,,,
,,,,,R_4D8pnTZcEuUojVl,001,2025-09-09_22h08.35.108,continuous_performance_test,2024.2.4,Win32,59.88023952,28225624-ef14-4d40-a341-b4072f76a63a,5,242.6495,244.2467,space,1,0.3707,,0,17,17,18,1,S,space,,,,,,,,,,
,,,,,R_4D8pnTZcEuUojVl,001,2025-09-09_22h08.35.108,continuous_performance_test,2024.2.4,Win32,59.88023952,28225624-ef14-4d40-a341-b4072f76a63a,5,244.2491,246.1465,space,1,0.3505,,0,18,18,2,1,C,space,,,,,,,,,,
,,,,,R_4D8pnTZcEuUojVl,001,2025-09-09_22h08.35.108,continuous_performance_test,2024.2.4,Win32,59.88023952,28225624-ef14-4d40-a341-b4072f76a63a,5,246.1487,248.1469,space,1,0.336,,0,19,19,20,1,U,space,,,,,,,,,,
,,,,,R_4D8pnTZcEuUojVl,001,2025-09-09_22h08.35.108,continuous_performance_test,2024.2.4,Win32,59.88023952,28225624-ef14-4d40-a341-b4072f76a63a,5,248.1498,249.997,,1,,,0,20,20,26,1,X,,,,,,,,,,,
,,,,,R_4D8pnTZcEuUojVl,001,2025-09-09_22h08.35.108,continuous_performance_test,2024.2.4,Win32,59.88023952,28225624-ef14-4d40-a341-b4072f76a63a,5,249.9996,251.8467,space,1,0.2546,,0,21,21,15,1,P,space,,,,,,,,,,
,,,,,R_4D8pnTZcEuUojVl,001,2025-09-09_22h08.35.108,continuous_performance_test,2024.2.4,Win32,59.88023952,28225624-ef14-4d40-a341-b4072f76a63a,5,251.8493,253.5968,space,1,0.3595,,0,22,22,13,1,N,space,,,,,,,,,,
,,,,,R_4D8pnTZcEuUojVl,001,2025-09-09_22h08.35.108,continuous_performance_test,2024.2.4,Win32,59.88023952,28225624-ef14-4d40-a341-b4072f76a63a,5,253.5996,255.1466,space,1,0.4231,,0,23,23,8,1,I,space,,,,,,,,,,
,,,,,R_4D8pnTZcEuUojVl,001,2025-09-09_22h08.35.108,continuous_performance_test,2024.2.4,Win32,59.88023952,28225624-ef14-4d40-a341-b4072f76a63a,5,255.1491,256.6968,space,1,0.391,,0,24,24,0,1,A,space,,,,,,,,,,
,,,,,R_4D8pnTZcEuUojVl,001,2025-09-09_22h08.35.108,continuous_performance_test,2024.2.4,Win32,59.88023952,28225624-ef14-4d40-a341-b4072f76a63a,5,256.6992,258.2971,space,1,0.3832,,0,25,25,6,1,G,space,,,,,,,,,,
,,,,,R_4D8pnTZcEuUojVl,001,2025-09-09_22h08.35.108,continuous_performance_test,2024.2.4,Win32,59.88023952,28225624-ef14-4d40-a341-b4072f76a63a,5,258.2995,260.0464,space,1,0.4003,,0,26,26,10,1,K,space,,,,,,,,,,
,,,,,R_4D8pnTZcEuUojVl,001,2025-09-09_22h08.35.108,continuous_performance_test,2024.2.4,Win32,59.88023952,28225624-ef14-4d40-a341-b4072f76a63a,5,260.0486,261.8465,space,1,0.3175,,0,27,27,12,1,M,space,,,,,,,,,,
,,,,,R_4D8pnTZcEuUojVl,001,2025-09-09_22h08.35.108,continuous_performance_test,2024.2.4,Win32,59.88023952,28225624-ef14-4d40-a341-b4072f76a63a,5,261.8488,263.6468,space,1,0.4021,,0,28,28,24,1,Z,space,,,,,,,,,,
,,,,,R_4D8pnTZcEuUojVl,001,2025-09-09_22h08.35.108,continuous_performance_test,2024.2.4,Win32,59.88023952,28225624-ef14-4d40-a341-b4072f76a63a,5,263.6488,265.2964,space,1,0.4774,,0,29,29,22,1,W,space,,,,,,,,,,
,,,,,R_4D8pnTZcEuUojVl,001,2025-09-09_22h08.35.108,continuous_performance_test,2024.2.4,Win32,59.88023952,28225624-ef14-4d40-a341-b4072f76a63a,5,273.3913,275.0299,space,1,0.4518,,0,0,0,21,1,V,space,265.2989,273.3793,space,8.0585,,,,,,
,,,,,R_4D8pnTZcEuUojVl,001,2025-09-09_22h08.35.108,continuous_performance_test,2024.2.4,Win32,59.88023952,28225624-ef14-4d40-a341-b4072f76a63a,5,275.0324,276.6796,space,1,0.3178,,0,1,1,1,1,B,space,,,,,,,,,,
,,,,,R_4D8pnTZcEuUojVl,001,2025-09-09_22h08.35.108,continuous_performance_test,2024.2.4,Win32,59.88023952,28225624-ef14-4d40-a341-b4072f76a63a,5,276.6824,278.4296,space,1,0.4825,,0,2,2,22,1,W,space,,,,,,,,,,
,,,,,R_4D8pnTZcEuUojVl,001,2025-09-09_22h08.35.108,continuous_performance_test,2024.2.4,Win32,59.88023952,28225624-ef14-4d40-a341-b4072f76a63a,5,278.4321,280.08,space,1,0.3705,,0,3,3,6,1,G,space,,,,,,,,,,
,,,,,R_4D8pnTZcEuUojVl,001,2025-09-09_22h08.35.108,continuous_performance_test,2024.2.4,Win32,59.88023952,28225624-ef14-4d40-a341-b4072f76a63a,5,280.082,281.8283,space,1,0.3382,,0,4,4,3,1,D,space,,,,,,,,,,
,,,,,R_4D8pnTZcEuUojVl,001,2025-09-09_22h08.35.108,continuous_performance_test,2024.2.4,Win32,59.88023952,28225624-ef14-4d40-a341-b4072f76a63a,5,281.8307,283.3794,space,1,0.6188,,0,5,5,12,1,M,space,,,,,,,,,,
,,,,,R_4D8pnTZcEuUojVl,001,2025-09-09_22h08.35.108,continuous_performance_test,2024.2.4,Win32,59.88023952,28225624-ef14-4d40-a341-b4072f76a63a,5,283.3818,285.2298,space,1,0.2847,,0,6,6,7,1,H,space,,,,,,,,,,
,,,,,R_4D8pnTZcEuUojVl,001,2025-09-09_22h08.35.108,continuous_performance_test,2024.2.4,Win32,59.88023952,28225624-ef14-4d40-a341-b4072f76a63a,5,285.2321,286.7797,space,1,0.3039,,0,7,7,23,1,Y,space,,,,,,,,,,
,,,,,R_4D8pnTZcEuUojVl,001,2025-09-09_22h08.35.108,continuous_performance_test,2024.2.4,Win32,59.88023952,28225624-ef14-4d40-a341-b4072f76a63a,5,286.7817,288.5293,space,1,0.3848,,0,8,8,14,1,O,space,,,,,,,,,,
,,,,,R_4D8pnTZcEuUojVl,001,2025-09-09_22h08.35.108,continuous_performance_test,2024.2.4,Win32,59.88023952,28225624-ef14-4d40-a341-b4072f76a63a,5,288.5322,290.2296,,1,,,0,9,9,29,1,X,,,,,,,,,,,
,,,,,R_4D8pnTZcEuUojVl,001,2025-09-09_22h08.35.108,continuous_performance_test,2024.2.4,Win32,59.88023952,28225624-ef14-4d40-a341-b4072f76a63a,5,290.2321,291.9293,space,1,0.3682,,0,10,10,0,1,A,space,,,,,,,,,,
,,,,,R_4D8pnTZcEuUojVl,001,2025-09-09_22h08.35.108,continuous_performance_test,2024.2.4,Win32,59.88023952,28225624-ef14-4d40-a341-b4072f76a63a,5,291.9317,293.5288,space,1,0.4108,,0,11,11,11,1,L,space,,,,,,,,,,
,,,,,R_4D8pnTZcEuUojVl,001,2025-09-09_22h08.35.108,continuous_performance_test,2024.2.4,Win32,59.88023952,28225624-ef14-4d40-a341-b4072f76a63a,5,293.5317,295.2292,space,1,0.2516,,0,12,12,16,1,Q,space,,,,,,,,,,
,,,,,R_4D8pnTZcEuUojVl,001,2025-09-09_22h08.35.108,continuous_performance_test,2024.2.4,Win32,59.88023952,28225624-ef14-4d40-a341-b4072f76a63a,5,295.2317,297.1794,space,1,0.2944,,0,13,13,4,1,E,space,,,,,,,,,,
,,,,,R_4D8pnTZcEuUojVl,001,2025-09-09_22h08.35.108,continuous_performance_test,2024.2.4,Win32,59.88023952,28225624-ef14-4d40-a341-b4072f76a63a,5,297.1815,299.1292,space,1,0.2525,,0,14,14,24,1,Z,space,,,,,,,,,,
,,,,,R_4D8pnTZcEuUojVl,001,2025-09-09_22h08.35.108,continuous_performance_test,2024.2.4,Win32,59.88023952,28225624-ef14-4d40-a341-b4072f76a63a,5,299.1319,300.7793,space,1,0.3264,,0,15,15,10,1,K,space,,,,,,,,,,
,,,,,R_4D8pnTZcEuUojVl,001,2025-09-09_22h08.35.108,continuous_performance_test,2024.2.4,Win32,59.88023952,28225624-ef14-4d40-a341-b4072f76a63a,5,300.7817,302.579,space,1,0.2756,,0,16,16,17,1,R,space,,,,,,,,,,
,,,,,R_4D8pnTZcEuUojVl,001,2025-09-09_22h08.35.108,continuous_performance_test,2024.2.4,Win32,59.88023952,28225624-ef14-4d40-a341-b4072f76a63a,5,302.5813,304.1294,space,1,0.3852,,0,17,17,13,1,N,space,,,,,,,,,,
,,,,,R_4D8pnTZcEuUojVl,001,2025-09-09_22h08.35.108,continuous_performance_test,2024.2.4,Win32,59.88023952,28225624-ef14-4d40-a341-b4072f76a63a,5,304.1317,305.9791,space,1,0.2341,,0,18,18,9,1,J,space,,,,,,,,,,
,,,,,R_4D8pnTZcEuUojVl,001,2025-09-09_22h08.35.108,continuous_performance_test,2024.2.4,Win32,59.88023952,28225624-ef14-4d40-a341-b4072f76a63a,5,305.9814,307.7785,space,1,0.3283,,0,19,19,18,1,S,space,,,,,,,,,,
,,,,,R_4D8pnTZcEuUojVl,001,2025-09-09_22h08.35.108,continuous_performance_test,2024.2.4,Win32,59.88023952,28225624-ef14-4d40-a341-b4072f76a63a,5,307.7811,309.3289,space,1,0.3553,,0,20,20,2,1,C,space,,,,,,,,,,
,,,,,R_4D8pnTZcEuUojVl,001,2025-09-09_22h08.35.108,continuous_performance_test,2024.2.4,Win32,59.88023952,28225624-ef14-4d40-a341-b4072f76a63a,5,309.3313,311.0792,space,1,0.3096,,0,21,21,20,1,U,space,,,,,,,,,,
,,,,,R_4D8pnTZcEuUojVl,001,2025-09-09_22h08.35.108,continuous_performance_test,2024.2.4,Win32,59.88023952,28225624-ef14-4d40-a341-b4072f76a63a,5,311.0816,312.7787,space,0,0.2879,,0,22,22,28,1,X,,,,,,,,,,,
,,,,,R_4D8pnTZcEuUojVl,001,2025-09-09_22h08.35.108,continuous_performance_test,2024.2.4,Win32,59.88023952,28225624-ef14-4d40-a341-b4072f76a63a,5,312.781,314.3288,space,1,0.3714,,0,23,23,5,1,F,space,,,,,,,,,,
,,,,,R_4D8pnTZcEuUojVl,001,2025-09-09_22h08.35.108,continuous_performance_test,2024.2.4,Win32,59.88023952,28225624-ef14-4d40-a341-b4072f76a63a,5,314.3313,316.1798,,1,,,0,24,24,26,1,X,,,,,,,,,,,
,,,,,R_4D8pnTZcEuUojVl,001,2025-09-09_22h08.35.108,continuous_performance_test,2024.2.4,Win32,59.88023952,28225624-ef14-4d40-a341-b4072f76a63a,5,316.1819,317.929,space,0,0.2679,,0,25,25,25,1,X,,,,,,,,,,,
,,,,,R_4D8pnTZcEuUojVl,001,2025-09-09_22h08.35.108,continuous_performance_test,2024.2.4,Win32,59.88023952,28225624-ef14-4d40-a341-b4072f76a63a,5,317.9317,319.7783,space,1,0.3095,,0,26,26,19,1,T,space,,,,,,,,,,
,,,,,R_4D8pnTZcEuUojVl,001,2025-09-09_22h08.35.108,continuous_performance_test,2024.2.4,Win32,59.88023952,28225624-ef14-4d40-a341-b4072f76a63a,5,319.7807,321.5791,space,1,0.3027,,0,27,27,8,1,I,space,,,,,,,,,,
,,,,,R_4D8pnTZcEuUojVl,001,2025-09-09_22h08.35.108,continuous_performance_test,2024.2.4,Win32,59.88023952,28225624-ef14-4d40-a341-b4072f76a63a,5,321.5815,323.5786,space,1,0.2682,,0,28,28,15,1,P,space,,,,,,,,,,
,,,,,R_4D8pnTZcEuUojVl,001,2025-09-09_22h08.35.108,continuous_performance_test,2024.2.4,Win32,59.88023952,28225624-ef14-4d40-a341-b4072f76a63a,5,323.5812,325.379,space,0,0.289,,0,29,29,27,1,X,,,,,,,,,,,
,,,,,R_4D8pnTZcEuUojVl,001,2025-09-09_22h08.35.108,continuous_performance_test,2024.2.4,Win32,59.88023952,28225624-ef14-4d40-a341-b4072f76a63a,5,330.1705,332.1115,space,1,0.3556,,0,0,0,6,1,G,space,325.3815,330.1671,space,4.7662,,,,,,
,,,,,R_4D8pnTZcEuUojVl,001,2025-09-09_22h08.35.108,continuous_performance_test,2024.2.4,Win32,59.88023952,28225624-ef14-4d40-a341-b4072f76a63a,5,332.1137,334.0617,space,1,0.2687,,0,1,1,3,1,D,space,,,,,,,,,,
,,,,,R_4D8pnTZcEuUojVl,001,2025-09-09_22h08.35.108,continuous_performance_test,2024.2.4,Win32,59.88023952,28225624-ef14-4d40-a341-b4072f76a63a,5,334.064,335.7117,space,1,0.2581,,0,2,2,14,1,O,space,,,,,,,,,,
,,,,,R_4D8pnTZcEuUojVl,001,2025-09-09_22h08.35.108,continuous_performance_test,2024.2.4,Win32,59.88023952,28225624-ef14-4d40-a341-b4072f76a63a,5,335.7145,337.2614,space,1,0.3254,,0,3,3,5,1,F,space,,,,,,,,,,
,,,,,R_4D8pnTZcEuUojVl,001,2025-09-09_22h08.35.108,continuous_performance_test,2024.2.4,Win32,59.88023952,28225624-ef14-4d40-a341-b4072f76a63a,5,337.2635,338.9611,space,1,0.2849,,0,4,4,0,1,A,space,,,,,,,,,,
,,,,,R_4D8pnTZcEuUojVl,001,2025-09-09_22h08.35.108,continuous_performance_test,2024.2.4,Win32,59.88023952,28225624-ef14-4d40-a341-b4072f76a63a,5,338.9636,340.6112,space,1,0.3356,,0,5,5,15,1,P,space,,,,,,,,,,
,,,,,R_4D8pnTZcEuUojVl,001,2025-09-09_22h08.35.108,continuous_performance_test,2024.2.4,Win32,59.88023952,28225624-ef14-4d40-a341-b4072f76a63a,5,340.6143,342.5505,space,1,0.3521,,0,6,6,21,1,V,space,,,,,,,,,,
,,,,,R_4D8pnTZcEuUojVl,001,2025-09-09_22h08.35.108,continuous_performance_test,2024.2.4,Win32,59.88023952,28225624-ef14-4d40-a341-b4072f76a63a,5,342.5512,344.1451,space,1,0.3371,,0,7,7,12,1,M,space,,,,,,,,,,
,,,,,R_4D8pnTZcEuUojVl,001,2025-09-09_22h08.35.108,continuous_performance_test,2024.2.4,Win32,59.88023952,28225624-ef14-4d40-a341-b4072f76a63a,5,344.148,345.9951,space,1,0.2867,,0,8,8,7,1,H,space,,,,,,,,,,
,,,,,R_4D8pnTZcEuUojVl,001,2025-09-09_22h08.35.108,continuous_performance_test,2024.2.4,Win32,59.88023952,28225624-ef14-4d40-a341-b4072f76a63a,5,345.9979,347.8447,space,1,0.327,,0,9,9,19,1,T,space,,,,,,,,,,
,,,,,R_4D8pnTZcEuUojVl,001,2025-09-09_22h08.35.108,continuous_performance_test,2024.2.4,Win32,59.88023952,28225624-ef14-4d40-a341-b4072f76a63a,5,347.8472,349.3948,space,1,0.3041,,0,10,10,22,1,W,space,,,,,,,,,,
,,,,,R_4D8pnTZcEuUojVl,001,2025-09-09_22h08.35.108,continuous_performance_test,2024.2.4,Win32,59.88023952,28225624-ef14-4d40-a341-b4072f76a63a,5,349.3979,351.3452,space,1,0.3541,,0,11,11,18,1,S,space,,,,,,,,,,
,,,,,R_4D8pnTZcEuUojVl,001,2025-09-09_22h08.35.108,continuous_performance_test,2024.2.4,Win32,59.88023952,28225624-ef14-4d40-a341-b4072f76a63a,5,351.3478,353.0446,space,0,0.358,,0,12,12,26,1,X,,,,,,,,,,,
,,,,,R_4D8pnTZcEuUojVl,001,2025-09-09_22h08.35.108,continuous_performance_test,2024.2.4,Win32,59.88023952,28225624-ef14-4d40-a341-b4072f76a63a,5,353.0469,354.5946,space,1,0.5229,,0,13,13,9,1,J,space,,,,,,,,,,
,,,,,R_4D8pnTZcEuUojVl,001,2025-09-09_22h08.35.108,continuous_performance_test,2024.2.4,Win32,59.88023952,28225624-ef14-4d40-a341-b4072f76a63a,5,354.5972,356.4446,space,1,0.3017,,0,14,14,24,1,Z,space,,,,,,,,,,
,,,,,R_4D8pnTZcEuUojVl,001,2025-09-09_22h08.35.108,continuous_performance_test,2024.2.4,Win32,59.88023952,28225624-ef14-4d40-a341-b4072f76a63a,5,356.4471,358.0447,space,1,0.6023,,0,15,15,1,1,B,space,,,,,,,,,,
,,,,,R_4D8pnTZcEuUojVl,001,2025-09-09_22h08.35.108,continuous_performance_test,2024.2.4,Win32,59.88023952,28225624-ef14-4d40-a341-b4072f76a63a,5,358.0473,359.6449,space,1,0.3074,,0,16,16,10,1,K,space,,,,,,,,,,
,,,,,R_4D8pnTZcEuUojVl,001,2025-09-09_22h08.35.108,continuous_performance_test,2024.2.4,Win32,59.88023952,28225624-ef14-4d40-a341-b4072f76a63a,5,359.6471,361.5952,,1,,,0,17,17,27,1,X,,,,,,,,,,,
,,,,,R_4D8pnTZcEuUojVl,001,2025-09-09_22h08.35.108,continuous_performance_test,2024.2.4,Win32,59.88023952,28225624-ef14-4d40-a341-b4072f76a63a,5,361.5972,363.2951,space,0,0.3002,,0,18,18,28,1,X,,,,,,,,,,,
,,,,,R_4D8pnTZcEuUojVl,001,2025-09-09_22h08.35.108,continuous_performance_test,2024.2.4,Win32,59.88023952,28225624-ef14-4d40-a341-b4072f76a63a,5,363.297,365.0448,space,0,0.2907,,0,19,19,25,1,X,,,,,,,,,,,
,,,,,R_4D8pnTZcEuUojVl,001,2025-09-09_22h08.35.108,continuous_performance_test,2024.2.4,Win32,59.88023952,28225624-ef14-4d40-a341-b4072f76a63a,5,365.0471,366.6442,space,1,0.4583,,0,20,20,13,1,N,space,,,,,,,,,,
,,,,,R_4D8pnTZcEuUojVl,001,2025-09-09_22h08.35.108,continuous_performance_test,2024.2.4,Win32,59.88023952,28225624-ef14-4d40-a341-b4072f76a63a,5,366.6461,368.3944,space,0,0.3666,,0,21,21,29,1,X,,,,,,,,,,,
,,,,,R_4D8pnTZcEuUojVl,001,2025-09-09_22h08.35.108,continuous_performance_test,2024.2.4,Win32,59.88023952,28225624-ef14-4d40-a341-b4072f76a63a,5,368.397,370.3946,space,1,0.3183,,0,22,22,23,1,Y,space,,,,,,,,,,
,,,,,R_4D8pnTZcEuUojVl,001,2025-09-09_22h08.35.108,continuous_performance_test,2024.2.4,Win32,59.88023952,28225624-ef14-4d40-a341-b4072f76a63a,5,370.3973,372.1449,space,1,0.5685,,0,23,23,20,1,U,space,,,,,,,,,,
,,,,,R_4D8pnTZcEuUojVl,001,2025-09-09_22h08.35.108,continuous_performance_test,2024.2.4,Win32,59.88023952,28225624-ef14-4d40-a341-b4072f76a63a,5,372.1475,374.1445,space,1,0.5779,,0,24,24,2,1,C,space,,,,,,,,,,
,,,,,R_4D8pnTZcEuUojVl,001,2025-09-09_22h08.35.108,continuous_performance_test,2024.2.4,Win32,59.88023952,28225624-ef14-4d40-a341-b4072f76a63a,5,374.1474,376.0942,space,1,0.3012,,0,25,25,17,1,R,space,,,,,,,,,,
,,,,,R_4D8pnTZcEuUojVl,001,2025-09-09_22h08.35.108,continuous_performance_test,2024.2.4,Win32,59.88023952,28225624-ef14-4d40-a341-b4072f76a63a,5,376.0976,377.8961,space,1,0.4673,,0,26,26,4,1,E,space,,,,,,,,,,
,,,,,R_4D8pnTZcEuUojVl,001,2025-09-09_22h08.35.108,continuous_performance_test,2024.2.4,Win32,59.88023952,28225624-ef14-4d40-a341-b4072f76a63a,5,377.8967,379.6485,space,1,0.5403,,0,27,27,11,1,L,space,,,,,,,,,,
,,,,,R_4D8pnTZcEuUojVl,001,2025-09-09_22h08.35.108,continuous_performance_test,2024.2.4,Win32,59.88023952,28225624-ef14-4d40-a341-b4072f76a63a,5,379.6491,381.4441,space,1,0.4913,,0,28,28,8,1,I,space,,,,,,,,,,
,,,,,R_4D8pnTZcEuUojVl,001,2025-09-09_22h08.35.108,continuous_performance_test,2024.2.4,Win32,59.88023952,28225624-ef14-4d40-a341-b4072f76a63a,5,381.4463,383.3941,space,1,0.5013,,0,29,29,16,1,Q,space,,,,,,,,,,
,,,,,R_4D8pnTZcEuUojVl,001,2025-09-09_22h08.35.108,continuous_performance_test,2024.2.4,Win32,59.88023952,28225624-ef14-4d40-a341-b4072f76a63a,5,386.9047,388.7943,space,1,0.7537,,0,0,0,0,1,A,space,383.3966,386.8945,space,3.4761,,,,,,
,,,,,R_4D8pnTZcEuUojVl,001,2025-09-09_22h08.35.108,continuous_performance_test,2024.2.4,Win32,59.88023952,28225624-ef14-4d40-a341-b4072f76a63a,5,388.7969,390.7441,space,1,0.5524,,0,1,1,7,1,H,space,,,,,,,,,,
,,,,,R_4D8pnTZcEuUojVl,001,2025-09-09_22h08.35.108,continuous_performance_test,2024.2.4,Win32,59.88023952,28225624-ef14-4d40-a341-b4072f76a63a,5,390.7469,392.3448,space,1,0.3686,,0,2,2,12,1,M,space,,,,,,,,,,
,,,,,R_4D8pnTZcEuUojVl,001,2025-09-09_22h08.35.108,continuous_performance_test,2024.2.4,Win32,59.88023952,28225624-ef14-4d40-a341-b4072f76a63a,5,392.347,394.1443,space,1,0.3169,,0,3,3,13,1,N,space,,,,,,,,,,
,,,,,R_4D8pnTZcEuUojVl,001,2025-09-09_22h08.35.108,continuous_performance_test,2024.2.4,Win32,59.88023952,28225624-ef14-4d40-a341-b4072f76a63a,5,394.1466,395.7943,space,1,0.6355,,0,4,4,8,1,I,space,,,,,,,,,,
,,,,,R_4D8pnTZcEuUojVl,001,2025-09-09_22h08.35.108,continuous_performance_test,2024.2.4,Win32,59.88023952,28225624-ef14-4d40-a341-b4072f76a63a,5,395.797,397.5942,space,1,0.2706,,0,5,5,20,1,U,space,,,,,,,,,,
,,,,,R_4D8pnTZcEuUojVl,001,2025-09-09_22h08.35.108,continuous_performance_test,2024.2.4,Win32,59.88023952,28225624-ef14-4d40-a341-b4072f76a63a,5,397.5963,399.5435,space,1,0.3516,,0,6,6,24,1,Z,space,,,,,,,,,,
,,,,,R_4D8pnTZcEuUojVl,001,2025-09-09_22h08.35.108,continuous_performance_test,2024.2.4,Win32,59.88023952,28225624-ef14-4d40-a341-b4072f76a63a,5,399.5459,401.5439,space,1,0.351,,0,7,7,4,1,E,space,,,,,,,,,,
,,,,,R_4D8pnTZcEuUojVl,001,2025-09-09_22h08.35.108,continuous_performance_test,2024.2.4,Win32,59.88023952,28225624-ef14-4d40-a341-b4072f76a63a,5,401.5467,403.2441,space,1,0.421,,0,8,8,18,1,S,space,,,,,,,,,,
,,,,,R_4D8pnTZcEuUojVl,001,2025-09-09_22h08.35.108,continuous_performance_test,2024.2.4,Win32,59.88023952,28225624-ef14-4d40-a341-b4072f76a63a,5,403.2468,404.9943,space,1,0.4347,,0,9,9,22,1,W,space,,,,,,,,,,
,,,,,R_4D8pnTZcEuUojVl,001,2025-09-09_22h08.35.108,continuous_performance_test,2024.2.4,Win32,59.88023952,28225624-ef14-4d40-a341-b4072f76a63a,5,404.9971,406.9941,space,1,0.527,,0,10,10,3,1,D,space,,,,,,,,,,
,,,,,R_4D8pnTZcEuUojVl,001,2025-09-09_22h08.35.108,continuous_performance_test,2024.2.4,Win32,59.88023952,28225624-ef14-4d40-a341-b4072f76a63a,5,406.9963,408.7437,,1,,,0,11,11,27,1,X,,,,,,,,,,,
,,,,,R_4D8pnTZcEuUojVl,001,2025-09-09_22h08.35.108,continuous_performance_test,2024.2.4,Win32,59.88023952,28225624-ef14-4d40-a341-b4072f76a63a,5,408.7465,410.6941,space,1,0.3702,,0,12,12,2,1,C,space,,,,,,,,,,
,,,,,R_4D8pnTZcEuUojVl,001,2025-09-09_22h08.35.108,continuous_performance_test,2024.2.4,Win32,59.88023952,28225624-ef14-4d40-a341-b4072f76a63a,5,410.6967,412.5936,space,1,0.3015,,0,13,13,19,1,T,space,,,,,,,,,,
,,,,,R_4D8pnTZcEuUojVl,001,2025-09-09_22h08.35.108,continuous_performance_test,2024.2.4,Win32,59.88023952,28225624-ef14-4d40-a341-b4072f76a63a,5,412.5961,414.3438,space,1,0.4851,,0,14,14,6,1,G,space,,,,,,,,,,
,,,,,R_4D8pnTZcEuUojVl,001,2025-09-09_22h08.35.108,continuous_performance_test,2024.2.4,Win32,59.88023952,28225624-ef14-4d40-a341-b4072f76a63a,5,414.3461,416.1443,space,1,0.4076,,0,15,15,11,1,L,space,,,,,,,,,,
,,,,,R_4D8pnTZcEuUojVl,001,2025-09-09_22h08.35.108,continuous_performance_test,2024.2.4,Win32,59.88023952,28225624-ef14-4d40-a341-b4072f76a63a,5,416.1467,417.894,space,1,0.327,,0,16,16,14,1,O,space,,,,,,,,,,
,,,,,R_4D8pnTZcEuUojVl,001,2025-09-09_22h08.35.108,continuous_performance_test,2024.2.4,Win32,59.88023952,28225624-ef14-4d40-a341-b4072f76a63a,5,417.8967,419.6439,space,1,0.352,,0,17,17,17,1,R,space,,,,,,,,,,
,,,,,R_4D8pnTZcEuUojVl,001,2025-09-09_22h08.35.108,continuous_performance_test,2024.2.4,Win32,59.88023952,28225624-ef14-4d40-a341-b4072f76a63a,5,419.6463,421.1939,space,0,0.57,,0,18,18,29,1,X,,,,,,,,,,,
,,,,,R_4D8pnTZcEuUojVl,001,2025-09-09_22h08.35.108,continuous_performance_test,2024.2.4,Win32,59.88023952,28225624-ef14-4d40-a341-b4072f76a63a,5,421.1963,422.9433,space,1,0.4736,,0,19,19,15,1,P,space,,,,,,,,,,
,,,,,R_4D8pnTZcEuUojVl,001,2025-09-09_22h08.35.108,continuous_performance_test,2024.2.4,Win32,59.88023952,28225624-ef14-4d40-a341-b4072f76a63a,5,422.9459,424.8436,space,1,0.3938,,0,20,20,5,1,F,space,,,,,,,,,,
,,,,,R_4D8pnTZcEuUojVl,001,2025-09-09_22h08.35.108,continuous_performance_test,2024.2.4,Win32,59.88023952,28225624-ef14-4d40-a341-b4072f76a63a,5,424.8462,426.7938,space,0,0.3393,,0,21,21,28,1,X,,,,,,,,,,,
,,,,,R_4D8pnTZcEuUojVl,001,2025-09-09_22h08.35.108,continuous_performance_test,2024.2.4,Win32,59.88023952,28225624-ef14-4d40-a341-b4072f76a63a,5,426.7967,428.3435,space,1,0.6683,,0,22,22,9,1,J,space,,,,,,,,,,
,,,,,R_4D8pnTZcEuUojVl,001,2025-09-09_22h08.35.108,continuous_performance_test,2024.2.4,Win32,59.88023952,28225624-ef14-4d40-a341-b4072f76a63a,5,428.3459,430.0938,space,1,0.3189,,0,23,23,1,1,B,space,,,,,,,,,,
,,,,,R_4D8pnTZcEuUojVl,001,2025-09-09_22h08.35.108,continuous_performance_test,2024.2.4,Win32,59.88023952,28225624-ef14-4d40-a341-b4072f76a63a,5,430.0964,431.7937,,1,,,0,24,24,26,1,X,,,,,,,,,,,
,,,,,R_4D8pnTZcEuUojVl,001,2025-09-09_22h08.35.108,continuous_performance_test,2024.2.4,Win32,59.88023952,28225624-ef14-4d40-a341-b4072f76a63a,5,431.7961,433.3437,space,1,0.4179,,0,25,25,21,1,V,space,,,,,,,,,,
,,,,,R_4D8pnTZcEuUojVl,001,2025-09-09_22h08.35.108,continuous_performance_test,2024.2.4,Win32,59.88023952,28225624-ef14-4d40-a341-b4072f76a63a,5,433.3463,435.1436,space,1,0.3514,,0,26,26,16,1,Q,space,,,,,,,,,,
,,,,,R_4D8pnTZcEuUojVl,001,2025-09-09_22h08.35.108,continuous_performance_test,2024.2.4,Win32,59.88023952,28225624-ef14-4d40-a341-b4072f76a63a,5,435.146,436.7933,space,1,0.6521,,0,27,27,10,1,K,space,,,,,,,,,,
,,,,,R_4D8pnTZcEuUojVl,001,2025-09-09_22h08.35.108,continuous_performance_test,2024.2.4,Win32,59.88023952,28225624-ef14-4d40-a341-b4072f76a63a,5,436.7956,438.3939,space,1,0.4395,,0,28,28,23,1,Y,space,,,,,,,,,,
,,,,,R_4D8pnTZcEuUojVl,001,2025-09-09_22h08.35.108,continuous_performance_test,2024.2.4,Win32,59.88023952,28225624-ef14-4d40-a341-b4072f76a63a,5,438.3964,440.1932,,1,,,0,29,29,25,1,X,,,,,,,,,,,
,,,,,R_4D8pnTZcEuUojVl,001,2025-09-09_22h08.35.108,continuous_performance_test,2024.2.4,Win32,59.88023952,28225624-ef14-4d40-a341-b4072f76a63a,5,443.2364,444.8772,space,1,0.3539,,0,0,0,11,1,L,space,440.1958,443.2275,space,3.0026,,,,,,
,,,,,R_4D8pnTZcEuUojVl,001,2025-09-09_22h08.35.108,continuous_performance_test,2024.2.4,Win32,59.88023952,28225624-ef14-4d40-a341-b4072f76a63a,5,444.8795,446.5268,space,1,0.4017,,0,1,1,1,1,B,space,,,,,,,,,,
,,,,,R_4D8pnTZcEuUojVl,001,2025-09-09_22h08.35.108,continuous_performance_test,2024.2.4,Win32,59.88023952,28225624-ef14-4d40-a341-b4072f76a63a,5,446.5294,448.1768,space,0,0.3185,,0,2,2,27,1,X,,,,,,,,,,,
,,,,,R_4D8pnTZcEuUojVl,001,2025-09-09_22h08.35.108,continuous_performance_test,2024.2.4,Win32,59.88023952,28225624-ef14-4d40-a341-b4072f76a63a,5,448.1791,449.9766,space,1,0.4096,,0,3,3,3,1,D,space,,,,,,,,,,
,,,,,R_4D8pnTZcEuUojVl,001,2025-09-09_22h08.35.108,continuous_performance_test,2024.2.4,Win32,59.88023952,28225624-ef14-4d40-a341-b4072f76a63a,5,449.9789,451.9756,space,1,0.4518,,0,4,4,12,1,M,space,,,,,,,,,,
,,,,,R_4D8pnTZcEuUojVl,001,2025-09-09_22h08.35.108,continuous_performance_test,2024.2.4,Win32,59.88023952,28225624-ef14-4d40-a341-b4072f76a63a,5,451.9777,453.5766,space,1,0.4184,,0,5,5,23,1,Y,space,,,,,,,,,,
,,,,,R_4D8pnTZcEuUojVl,001,2025-09-09_22h08.35.108,continuous_performance_test,2024.2.4,Win32,59.88023952,28225624-ef14-4d40-a341-b4072f76a63a,5,453.579,455.2766,space,1,0.4017,,0,6,6,14,1,O,space,,,,,,,,,,
,,,,,R_4D8pnTZcEuUojVl,001,2025-09-09_22h08.35.108,continuous_performance_test,2024.2.4,Win32,59.88023952,28225624-ef14-4d40-a341-b4072f76a63a,5,455.279,456.8764,space,1,0.5408,,0,7,7,9,1,J,space,,,,,,,,,,
,,,,,R_4D8pnTZcEuUojVl,001,2025-09-09_22h08.35.108,continuous_performance_test,2024.2.4,Win32,59.88023952,28225624-ef14-4d40-a341-b4072f76a63a,5,456.8791,458.7762,space,1,0.3041,,0,8,8,20,1,U,space,,,,,,,,,,
,,,,,R_4D8pnTZcEuUojVl,001,2025-09-09_22h08.35.108,continuous_performance_test,2024.2.4,Win32,59.88023952,28225624-ef14-4d40-a341-b4072f76a63a,5,458.7785,460.3267,space,1,0.4188,,0,9,9,17,1,R,space,,,,,,,,,,
,,,,,R_4D8pnTZcEuUojVl,001,2025-09-09_22h08.35.108,continuous_performance_test,2024.2.4,Win32,59.88023952,28225624-ef14-4d40-a341-b4072f76a63a,5,460.3289,462.126,space,1,0.3565,,0,10,10,13,1,N,space,,,,,,,,,,
,,,,,R_4D8pnTZcEuUojVl,001,2025-09-09_22h08.35.108,continuous_performance_test,2024.2.4,Win32,59.88023952,28225624-ef14-4d40-a341-b4072f76a63a,5,462.1281,463.8254,space,1,0.421,,0,11,11,8,1,I,space,,,,,,,,,,
,,,,,R_4D8pnTZcEuUojVl,001,2025-09-09_22h08.35.108,continuous_performance_test,2024.2.4,Win32,59.88023952,28225624-ef14-4d40-a341-b4072f76a63a,5,463.8278,465.5764,space,1,0.5253,,0,12,12,15,1,P,space,,,,,,,,,,
,,,,,R_4D8pnTZcEuUojVl,001,2025-09-09_22h08.35.108,continuous_performance_test,2024.2.4,Win32,59.88023952,28225624-ef14-4d40-a341-b4072f76a63a,5,465.5787,467.576,space,1,0.3597,,0,13,13,24,1,Z,space,,,,,,,,,,
,,,,,R_4D8pnTZcEuUojVl,001,2025-09-09_22h08.35.108,continuous_performance_test,2024.2.4,Win32,59.88023952,28225624-ef14-4d40-a341-b4072f76a63a,5,467.5778,469.5764,,1,,,0,14,14,29,1,X,,,,,,,,,,,
,,,,,R_4D8pnTZcEuUojVl,001,2025-09-09_22h08.35.108,continuous_performance_test,2024.2.4,Win32,59.88023952,28225624-ef14-4d40-a341-b4072f76a63a,5,469.5786,471.1262,space,1,0.452,,0,15,15,10,1,K,space,,,,,,,,,,
,,,,,R_4D8pnTZcEuUojVl,001,2025-09-09_22h08.35.108,continuous_performance_test,2024.2.4,Win32,59.88023952,28225624-ef14-4d40-a341-b4072f76a63a,5,471.129,472.9267,space,1,0.4938,,0,16,16,21,1,V,space,,,,,,,,,,
,,,,,R_4D8pnTZcEuUojVl,001,2025-09-09_22h08.35.108,continuous_performance_test,2024.2.4,Win32,59.88023952,28225624-ef14-4d40-a341-b4072f76a63a,5,472.9285,474.7761,,1,,,0,17,17,26,1,X,,,,,,,,,,,
,,,,,R_4D8pnTZcEuUojVl,001,2025-09-09_22h08.35.108,continuous_performance_test,2024.2.4,Win32,59.88023952,28225624-ef14-4d40-a341-b4072f76a63a,5,474.7785,476.5758,space,1,0.3558,,0,18,18,7,1,H,space,,,,,,,,,,
,,,,,R_4D8pnTZcEuUojVl,001,2025-09-09_22h08.35.108,continuous_performance_test,2024.2.4,Win32,59.88023952,28225624-ef14-4d40-a341-b4072f76a63a,5,476.578,478.326,space,1,0.5525,,0,19,19,4,1,E,space,,,,,,,,,,
,,,,,R_4D8pnTZcEuUojVl,001,2025-09-09_22h08.35.108,continuous_performance_test,2024.2.4,Win32,59.88023952,28225624-ef14-4d40-a341-b4072f76a63a,5,478.3285,480.1262,,1,,,0,20,20,28,1,X,,,,,,,,,,,
,,,,,R_4D8pnTZcEuUojVl,001,2025-09-09_22h08.35.108,continuous_performance_test,2024.2.4,Win32,59.88023952,28225624-ef14-4d40-a341-b4072f76a63a,5,480.1286,481.7762,space,1,0.5081,,0,21,21,18,1,S,space,,,,,,,,,,
,,,,,R_4D8pnTZcEuUojVl,001,2025-09-09_22h08.35.108,continuous_performance_test,2024.2.4,Win32,59.88023952,28225624-ef14-4d40-a341-b4072f76a63a,5,481.7787,483.3262,space,1,0.3183,,0,22,22,5,1,F,space,,,,,,,,,,
,,,,,R_4D8pnTZcEuUojVl,001,2025-09-09_22h08.35.108,continuous_performance_test,2024.2.4,Win32,59.88023952,28225624-ef14-4d40-a341-b4072f76a63a,5,483.3286,485.2761,,1,,,0,23,23,25,1,X,,,,,,,,,,,
,,,,,R_4D8pnTZcEuUojVl,001,2025-09-09_22h08.35.108,continuous_performance_test,2024.2.4,Win32,59.88023952,28225624-ef14-4d40-a341-b4072f76a63a,5,485.2788,487.2758,space,1,0.3709,,0,24,24,0,1,A,space,,,,,,,,,,
,,,,,R_4D8pnTZcEuUojVl,001,2025-09-09_22h08.35.108,continuous_performance_test,2024.2.4,Win32,59.88023952,28225624-ef14-4d40-a341-b4072f76a63a,5,487.2777,489.2763,space,1,0.3764,,0,25,25,19,1,T,space,,,,,,,,,,
,,,,,R_4D8pnTZcEuUojVl,001,2025-09-09_22h08.35.108,continuous_performance_test,2024.2.4,Win32,59.88023952,28225624-ef14-4d40-a341-b4072f76a63a,5,489.279,490.976,space,1,0.42,,0,26,26,6,1,G,space,,,,,,,,,,
,,,,,R_4D8pnTZcEuUojVl,001,2025-09-09_22h08.35.108,continuous_performance_test,2024.2.4,Win32,59.88023952,28225624-ef14-4d40-a341-b4072f76a63a,5,490.9786,492.6306,space,1,0.4696,,0,27,27,16,1,Q,space,,,,,,,,,,
,,,,,R_4D8pnTZcEuUojVl,001,2025-09-09_22h08.35.108,continuous_performance_test,2024.2.4,Win32,59.88023952,28225624-ef14-4d40-a341-b4072f76a63a,5,492.632,494.5259,space,1,0.3681,,0,28,28,2,1,C,space,,,,,,,,,,
,,,,,R_4D8pnTZcEuUojVl,001,2025-09-09_22h08.35.108,continuous_performance_test,2024.2.4,Win32,59.88023952,28225624-ef14-4d40-a341-b4072f76a63a,5,494.5282,496.4257,space,1,0.2678,,0,29,29,22,1,W,space,,,,,,,,,,
,,,,,R_4D8pnTZcEuUojVl,001,2025-09-09_22h08.35.108,continuous_performance_test,2024.2.4,Win32,59.88023952,28225624-ef14-4d40-a341-b4072f76a63a,5,499.7701,501.509,,1,,,0,0,0,29,1,X,,496.4283,499.7598,space,3.3036,,,,,,
,,,,,R_4D8pnTZcEuUojVl,001,2025-09-09_22h08.35.108,continuous_performance_test,2024.2.4,Win32,59.88023952,28225624-ef14-4d40-a341-b4072f76a63a,5,501.5114,503.5086,space,1,0.3253,,0,1,1,24,1,Z,space,,,,,,,,,,
,,,,,R_4D8pnTZcEuUojVl,001,2025-09-09_22h08.35.108,continuous_performance_test,2024.2.4,Win32,59.88023952,28225624-ef14-4d40-a341-b4072f76a63a,5,503.5109,505.3594,space,1,0.3898,,0,2,2,18,1,S,space,,,,,,,,,,
,,,,,R_4D8pnTZcEuUojVl,001,2025-09-09_22h08.35.108,continuous_performance_test,2024.2.4,Win32,59.88023952,28225624-ef14-4d40-a341-b4072f76a63a,5,505.3624,506.959,space,1,0.3744,,0,3,3,9,1,J,space,,,,,,,,,,
,,,,,R_4D8pnTZcEuUojVl,001,2025-09-09_22h08.35.108,continuous_performance_test,2024.2.4,Win32,59.88023952,28225624-ef14-4d40-a341-b4072f76a63a,5,506.9617,508.809,space,1,0.3696,,0,4,4,23,1,Y,space,,,,,,,,,,
,,,,,R_4D8pnTZcEuUojVl,001,2025-09-09_22h08.35.108,continuous_performance_test,2024.2.4,Win32,59.88023952,28225624-ef14-4d40-a341-b4072f76a63a,5,508.8114,510.7592,,1,,,0,5,5,25,1,X,,,,,,,,,,,
,,,,,R_4D8pnTZcEuUojVl,001,2025-09-09_22h08.35.108,continuous_performance_test,2024.2.4,Win32,59.88023952,28225624-ef14-4d40-a341-b4072f76a63a,5,510.7615,512.5092,space,1,0.4183,,0,6,6,10,1,K,space,,,,,,,,,,
,,,,,R_4D8pnTZcEuUojVl,001,2025-09-09_22h08.35.108,continuous_performance_test,2024.2.4,Win32,59.88023952,28225624-ef14-4d40-a341-b4072f76a63a,5,512.5116,514.1091,space,1,0.3098,,0,7,7,22,1,W,space,,,,,,,,,,
,,,,,R_4D8pnTZcEuUojVl,001,2025-09-09_22h08.35.108,continuous_performance_test,2024.2.4,Win32,59.88023952,28225624-ef14-4d40-a341-b4072f76a63a,5,514.1116,515.9589,space,1,0.3389,,0,8,8,21,1,V,space,,,,,,,,,,
,,,,,R_4D8pnTZcEuUojVl,001,2025-09-09_22h08.35.108,continuous_performance_test,2024.2.4,Win32,59.88023952,28225624-ef14-4d40-a341-b4072f76a63a,5,515.9617,517.6584,space,1,0.3354,,0,9,9,15,1,P,space,,,,,,,,,,
,,,,,R_4D8pnTZcEuUojVl,001,2025-09-09_22h08.35.108,continuous_performance_test,2024.2.4,Win32,59.88023952,28225624-ef14-4d40-a341-b4072f76a63a,5,517.661,519.6587,space,1,0.3514,,0,10,10,5,1,F,space,,,,,,,,,,
,,,,,R_4D8pnTZcEuUojVl,001,2025-09-09_22h08.35.108,continuous_performance_test,2024.2.4,Win32,59.88023952,28225624-ef14-4d40-a341-b4072f76a63a,5,519.6609,521.3588,space,1,0.3855,,0,11,11,8,1,I,space,,,,,,,,,,
,,,,,R_4D8pnTZcEuUojVl,001,2025-09-09_22h08.35.108,continuous_performance_test,2024.2.4,Win32,59.88023952,28225624-ef14-4d40-a341-b4072f76a63a,5,521.3614,523.2588,space,1,0.4447,,0,12,12,1,1,B,space,,,,,,,,,,
,,,,,R_4D8pnTZcEuUojVl,001,2025-09-09_22h08.35.108,continuous_performance_test,2024.2.4,Win32,59.88023952,28225624-ef14-4d40-a341-b4072f76a63a,5,523.2616,524.8589,space,1,0.3516,,0,13,13,14,1,O,space,,,,,,,,,,
,,,,,R_4D8pnTZcEuUojVl,001,2025-09-09_22h08.35.108,continuous_performance_test,2024.2.4,Win32,59.88023952,28225624-ef14-4d40-a341-b4072f76a63a,5,524.8618,526.4581,,1,,,0,14,14,26,1,X,,,,,,,,,,,
,,,,,R_4D8pnTZcEuUojVl,001,2025-09-09_22h08.35.108,continuous_performance_test,2024.2.4,Win32,59.88023952,28225624-ef14-4d40-a341-b4072f76a63a,5,526.4606,528.0588,space,1,0.3207,,0,15,15,4,1,E,space,,,,,,,,,,
,,,,,R_4D8pnTZcEuUojVl,001,2025-09-09_22h08.35.108,continuous_performance_test,2024.2.4,Win32,59.88023952,28225624-ef14-4d40-a341-b4072f76a63a,5,528.0611,529.6588,space,1,0.3184,,0,16,16,20,1,U,space,,,,,,,,,,
,,,,,R_4D8pnTZcEuUojVl,001,2025-09-09_22h08.35.108,continuous_performance_test,2024.2.4,Win32,59.88023952,28225624-ef14-4d40-a341-b4072f76a63a,5,529.6611,531.6087,space,1,0.3696,,0,17,17,7,1,H,space,,,,,,,,,,
,,,,,R_4D8pnTZcEuUojVl,001,2025-09-09_22h08.35.108,continuous_performance_test,2024.2.4,Win32,59.88023952,28225624-ef14-4d40-a341-b4072f76a63a,5,531.6113,533.4086,space,1,0.4748,,0,18,18,0,1,A,space,,,,,,,,,,
,,,,,R_4D8pnTZcEuUojVl,001,2025-09-09_22h08.35.108,continuous_performance_test,2024.2.4,Win32,59.88023952,28225624-ef14-4d40-a341-b4072f76a63a,5,533.4109,535.4087,,1,,,0,19,19,28,1,X,,,,,,,,,,,
,,,,,R_4D8pnTZcEuUojVl,001,2025-09-09_22h08.35.108,continuous_performance_test,2024.2.4,Win32,59.88023952,28225624-ef14-4d40-a341-b4072f76a63a,5,535.411,537.4085,space,1,0.3571,,0,20,20,2,1,C,space,,,,,,,,,,
,,,,,R_4D8pnTZcEuUojVl,001,2025-09-09_22h08.35.108,continuous_performance_test,2024.2.4,Win32,59.88023952,28225624-ef14-4d40-a341-b4072f76a63a,5,537.4109,539.1582,space,1,0.5596,,0,21,21,17,1,R,space,,,,,,,,,,
,,,,,R_4D8pnTZcEuUojVl,001,2025-09-09_22h08.35.108,continuous_performance_test,2024.2.4,Win32,59.88023952,28225624-ef14-4d40-a341-b4072f76a63a,5,539.161,540.9082,space,1,0.2564,,0,22,22,19,1,T,space,,,,,,,,,,
,,,,,R_4D8pnTZcEuUojVl,001,2025-09-09_22h08.35.108,continuous_performance_test,2024.2.4,Win32,59.88023952,28225624-ef14-4d40-a341-b4072f76a63a,5,540.9103,542.7587,space,1,0.3415,,0,23,23,16,1,Q,space,,,,,,,,,,
,,,,,R_4D8pnTZcEuUojVl,001,2025-09-09_22h08.35.108,continuous_performance_test,2024.2.4,Win32,59.88023952,28225624-ef14-4d40-a341-b4072f76a63a,5,542.7611,544.7086,space,1,0.3218,,0,24,24,11,1,L,space,,,,,,,,,,
,,,,,R_4D8pnTZcEuUojVl,001,2025-09-09_22h08.35.108,continuous_performance_test,2024.2.4,Win32,59.88023952,28225624-ef14-4d40-a341-b4072f76a63a,5,544.7114,546.2574,space,1,0.3675,,0,25,25,13,1,N,space,,,,,,,,,,
,,,,,R_4D8pnTZcEuUojVl,001,2025-09-09_22h08.35.108,continuous_performance_test,2024.2.4,Win32,59.88023952,28225624-ef14-4d40-a341-b4072f76a63a,5,546.2596,547.908,space,1,0.3676,,0,26,26,12,1,M,space,,,,,,,,,,
,,,,,R_4D8pnTZcEuUojVl,001,2025-09-09_22h08.35.108,continuous_performance_test,2024.2.4,Win32,59.88023952,28225624-ef14-4d40-a341-b4072f76a63a,5,547.9099,549.8081,space,0,0.2715,,0,27,27,27,1,X,,,,,,,,,,,
,,,,,R_4D8pnTZcEuUojVl,001,2025-09-09_22h08.35.108,continuous_performance_test,2024.2.4,Win32,59.88023952,28225624-ef14-4d40-a341-b4072f76a63a,5,549.8103,551.7583,space,1,0.3417,,0,28,28,3,1,D,space,,,,,,,,,,
,,,,,R_4D8pnTZcEuUojVl,001,2025-09-09_22h08.35.108,continuous_performance_test,2024.2.4,Win32,59.88023952,28225624-ef14-4d40-a341-b4072f76a63a,5,551.7606,553.7577,space,1,0.3359,,0,29,29,6,1,G,space,,,,,,,,,,
,,,,,R_4D8pnTZcEuUojVl,001,2025-09-09_22h08.35.108,continuous_performance_test,2024.2.4,Win32,59.88023952,28225624-ef14-4d40-a341-b4072f76a63a,5,556.4786,558.3744,space,1,0.3385,,0,0,0,2,1,C,space,553.7598,556.474,space,2.6923,,,,,,
,,,,,R_4D8pnTZcEuUojVl,001,2025-09-09_22h08.35.108,continuous_performance_test,2024.2.4,Win32,59.88023952,28225624-ef14-4d40-a341-b4072f76a63a,5,558.3761,560.2239,space,1,0.4245,,0,1,1,1,1,B,space,,,,,,,,,,
,,,,,R_4D8pnTZcEuUojVl,001,2025-09-09_22h08.35.108,continuous_performance_test,2024.2.4,Win32,59.88023952,28225624-ef14-4d40-a341-b4072f76a63a,5,560.2262,562.0249,space,1,0.5232,,0,2,2,19,1,T,space,,,,,,,,,,
,,,,,R_4D8pnTZcEuUojVl,001,2025-09-09_22h08.35.108,continuous_performance_test,2024.2.4,Win32,59.88023952,28225624-ef14-4d40-a341-b4072f76a63a,5,562.0265,563.774,space,1,0.5506,,0,3,3,13,1,N,space,,,,,,,,,,
,,,,,R_4D8pnTZcEuUojVl,001,2025-09-09_22h08.35.108,continuous_performance_test,2024.2.4,Win32,59.88023952,28225624-ef14-4d40-a341-b4072f76a63a,5,563.776,565.7735,space,0,0.3059,,0,4,4,28,1,X,,,,,,,,,,,
,,,,,R_4D8pnTZcEuUojVl,001,2025-09-09_22h08.35.108,continuous_performance_test,2024.2.4,Win32,59.88023952,28225624-ef14-4d40-a341-b4072f76a63a,5,565.7759,567.7242,space,1,0.3712,,0,5,5,20,1,U,space,,,,,,,,,,
,,,,,R_4D8pnTZcEuUojVl,001,2025-09-09_22h08.35.108,continuous_performance_test,2024.2.4,Win32,59.88023952,28225624-ef14-4d40-a341-b4072f76a63a,5,567.726,569.5252,space,1,0.4184,,0,6,6,16,1,Q,space,,,,,,,,,,
,,,,,R_4D8pnTZcEuUojVl,001,2025-09-09_22h08.35.108,continuous_performance_test,2024.2.4,Win32,59.88023952,28225624-ef14-4d40-a341-b4072f76a63a,5,569.528,571.1237,space,1,0.6342,,0,7,7,21,1,V,space,,,,,,,,,,
,,,,,R_4D8pnTZcEuUojVl,001,2025-09-09_22h08.35.108,continuous_performance_test,2024.2.4,Win32,59.88023952,28225624-ef14-4d40-a341-b4072f76a63a,5,571.1259,573.0235,space,1,0.3581,,0,8,8,4,1,E,space,,,,,,,,,,
,,,,,R_4D8pnTZcEuUojVl,001,2025-09-09_22h08.35.108,continuous_performance_test,2024.2.4,Win32,59.88023952,28225624-ef14-4d40-a341-b4072f76a63a,5,573.0258,574.7734,space,1,0.5344,,0,9,9,24,1,Z,space,,,,,,,,,,
,,,,,R_4D8pnTZcEuUojVl,001,2025-09-09_22h08.35.108,continuous_performance_test,2024.2.4,Win32,59.88023952,28225624-ef14-4d40-a341-b4072f76a63a,5,574.7754,576.7739,,1,,,0,10,10,26,1,X,,,,,,,,,,,
,,,,,R_4D8pnTZcEuUojVl,001,2025-09-09_22h08.35.108,continuous_performance_test,2024.2.4,Win32,59.88023952,28225624-ef14-4d40-a341-b4072f76a63a,5,576.7761,578.4742,space,1,0.3672,,0,11,11,5,1,F,space,,,,,,,,,,
,,,,,R_4D8pnTZcEuUojVl,001,2025-09-09_22h08.35.108,continuous_performance_test,2024.2.4,Win32,59.88023952,28225624-ef14-4d40-a341-b4072f76a63a,5,578.4762,580.1744,space,1,0.4255,,0,12,12,11,1,L,space,,,,,,,,,,
,,,,,R_4D8pnTZcEuUojVl,001,2025-09-09_22h08.35.108,continuous_performance_test,2024.2.4,Win32,59.88023952,28225624-ef14-4d40-a341-b4072f76a63a,5,580.1769,581.8742,space,1,0.66,,0,13,13,12,1,M,space,,,,,,,,,,
,,,,,R_4D8pnTZcEuUojVl,001,2025-09-09_22h08.35.108,continuous_performance_test,2024.2.4,Win32,59.88023952,28225624-ef14-4d40-a341-b4072f76a63a,5,581.8767,583.474,space,1,0.7007,,0,14,14,22,1,W,space,,,,,,,,,,
,,,,,R_4D8pnTZcEuUojVl,001,2025-09-09_22h08.35.108,continuous_performance_test,2024.2.4,Win32,59.88023952,28225624-ef14-4d40-a341-b4072f76a63a,5,583.4759,585.4749,space,1,0.4182,,0,15,15,10,1,K,space,,,,,,,,,,
,,,,,R_4D8pnTZcEuUojVl,001,2025-09-09_22h08.35.108,continuous_performance_test,2024.2.4,Win32,59.88023952,28225624-ef14-4d40-a341-b4072f76a63a,5,585.4772,587.474,,1,,,0,16,16,25,1,X,,,,,,,,,,,
,,,,,R_4D8pnTZcEuUojVl,001,2025-09-09_22h08.35.108,continuous_performance_test,2024.2.4,Win32,59.88023952,28225624-ef14-4d40-a341-b4072f76a63a,5,587.4763,589.3746,space,1,0.4093,,0,17,17,9,1,J,space,,,,,,,,,,
,,,,,R_4D8pnTZcEuUojVl,001,2025-09-09_22h08.35.108,continuous_performance_test,2024.2.4,Win32,59.88023952,28225624-ef14-4d40-a341-b4072f76a63a,5,589.3768,591.3238,space,1,0.6012,,0,18,18,8,1,I,space,,,,,,,,,,
,,,,,R_4D8pnTZcEuUojVl,001,2025-09-09_22h08.35.108,continuous_performance_test,2024.2.4,Win32,59.88023952,28225624-ef14-4d40-a341-b4072f76a63a,5,591.326,593.2238,space,1,0.6589,,0,19,19,0,1,A,space,,,,,,,,,,
,,,,,R_4D8pnTZcEuUojVl,001,2025-09-09_22h08.35.108,continuous_performance_test,2024.2.4,Win32,59.88023952,28225624-ef14-4d40-a341-b4072f76a63a,5,593.2261,594.8241,space,1,0.7503,,0,20,20,14,1,O,space,,,,,,,,,,
,,,,,R_4D8pnTZcEuUojVl,001,2025-09-09_22h08.35.108,continuous_performance_test,2024.2.4,Win32,59.88023952,28225624-ef14-4d40-a341-b4072f76a63a,5,594.8266,596.5231,space,1,0.5545,,0,21,21,15,1,P,space,,,,,,,,,,
,,,,,R_4D8pnTZcEuUojVl,001,2025-09-09_22h08.35.108,continuous_performance_test,2024.2.4,Win32,59.88023952,28225624-ef14-4d40-a341-b4072f76a63a,5,596.5254,598.0738,,1,,,0,22,22,27,1,X,,,,,,,,,,,
,,,,,R_4D8pnTZcEuUojVl,001,2025-09-09_22h08.35.108,continuous_performance_test,2024.2.4,Win32,59.88023952,28225624-ef14-4d40-a341-b4072f76a63a,5,598.076,599.6246,space,1,0.793,,0,23,23,17,1,R,space,,,,,,,,,,
,,,,,R_4D8pnTZcEuUojVl,001,2025-09-09_22h08.35.108,continuous_performance_test,2024.2.4,Win32,59.88023952,28225624-ef14-4d40-a341-b4072f76a63a,5,599.6268,601.4239,space,1,0.4019,,0,24,24,23,1,Y,space,,,,,,,,,,
,,,,,R_4D8pnTZcEuUojVl,001,2025-09-09_22h08.35.108,continuous_performance_test,2024.2.4,Win32,59.88023952,28225624-ef14-4d40-a341-b4072f76a63a,5,601.4263,603.2754,space,1,0.6903,,0,25,25,18,1,S,space,,,,,,,,,,
,,,,,R_4D8pnTZcEuUojVl,001,2025-09-09_22h08.35.108,continuous_performance_test,2024.2.4,Win32,59.88023952,28225624-ef14-4d40-a341-b4072f76a63a,5,603.2771,604.8242,space,1,0.4503,,0,26,26,3,1,D,space,,,,,,,,,,
,,,,,R_4D8pnTZcEuUojVl,001,2025-09-09_22h08.35.108,continuous_performance_test,2024.2.4,Win32,59.88023952,28225624-ef14-4d40-a341-b4072f76a63a,5,604.8272,606.5237,,1,,,0,27,27,29,1,X,,,,,,,,,,,
,,,,,R_4D8pnTZcEuUojVl,001,2025-09-09_22h08.35.108,continuous_performance_test,2024.2.4,Win32,59.88023952,28225624-ef14-4d40-a341-b4072f76a63a,5,606.5255,608.1733,space,1,0.3348,,0,28,28,6,1,G,space,,,,,,,,,,
,,,,,R_4D8pnTZcEuUojVl,001,2025-09-09_22h08.35.108,continuous_performance_test,2024.2.4,Win32,59.88023952,28225624-ef14-4d40-a341-b4072f76a63a,5,608.1751,609.874,space,1,0.5035,,0,29,29,7,1,H,space,,,,,,,,,,
,,,,,R_4D8pnTZcEuUojVl,001,2025-09-09_22h08.35.108,continuous_performance_test,2024.2.4,Win32,59.88023952,28225624-ef14-4d40-a341-b4072f76a63a,5,,,,,,,,,,,,,,609.8758,609.8766,,,,609.877,613.9581,space,4.0599,
