Instructions.started,Instructions.stopped,key_resp.keys,key_resp.rt,key_resp.duration,participant,session,date,expName,psychopyVersion,OS,frameRate,realeye-tester-id,realeye-tester-quality_grade,Trial_noX.started,Trial_noX.stopped,response.keys,response.corr,response.rt,response.duration,trials_noX.thisRepN,trials_noX.thisTrialN,trials_noX.thisN,trials_noX.thisIndex,trials_noX.ran,letter,corrAns,BlockBreak.started,BlockBreak.stopped,key_instruct.keys,key_instruct.rt,key_instruct.duration,End_NoX.started,End_NoX.stopped,key_resp_end_noX.keys,key_resp_end_noX.rt,key_resp_end_noX.duration
0.0002,2.0559,space,2.0328,,R_4E6L0ZuTwlsz0au,001,2025-08-23_21h58.19.279,continuous_performance_test,2024.2.4,MacIntel,60.24096386,b810d70b-9c3d-4e1a-ad40-4a662cbff726,4,,,,,,,,,,,,,,,,,,,,,,,
,,,,,R_4E6L0ZuTwlsz0au,001,2025-08-23_21h58.19.279,continuous_performance_test,2024.2.4,MacIntel,60.24096386,b810d70b-9c3d-4e1a-ad40-4a662cbff726,4,2.0681,3.6224,space,1,0.6884,,0,0,0,2,1,C,space,,,,,,,,,,
,,,,,R_4E6L0ZuTwlsz0au,001,2025-08-23_21h58.19.279,continuous_performance_test,2024.2.4,MacIntel,60.24096386,b810d70b-9c3d-4e1a-ad40-4a662cbff726,4,3.6239,5.3225,space,1,0.2691,,0,1,1,5,1,F,space,,,,,,,,,,
,,,,,R_4E6L0ZuTwlsz0au,001,2025-08-23_21h58.19.279,continuous_performance_test,2024.2.4,MacIntel,60.24096386,b810d70b-9c3d-4e1a-ad40-4a662cbff726,4,5.3243,6.9714,space,1,0.3257,,0,2,2,19,1,T,space,,,,,,,,,,
,,,,,R_4E6L0ZuTwlsz0au,001,2025-08-23_21h58.19.279,continuous_performance_test,2024.2.4,MacIntel,60.24096386,b810d70b-9c3d-4e1a-ad40-4a662cbff726,4,6.973,8.9226,space,1,0.3587,,0,3,3,4,1,E,space,,,,,,,,,,
,,,,,R_4E6L0ZuTwlsz0au,001,2025-08-23_21h58.19.279,continuous_performance_test,2024.2.4,MacIntel,60.24096386,b810d70b-9c3d-4e1a-ad40-4a662cbff726,4,8.925,10.4724,space,1,0.3783,,0,4,4,9,1,J,space,,,,,,,,,,
,,,,,R_4E6L0ZuTwlsz0au,001,2025-08-23_21h58.19.279,continuous_performance_test,2024.2.4,MacIntel,60.24096386,b810d70b-9c3d-4e1a-ad40-4a662cbff726,4,10.474,12.1714,space,1,0.2626,,0,5,5,11,1,L,space,,,,,,,,,,
,,,,,R_4E6L0ZuTwlsz0au,001,2025-08-23_21h58.19.279,continuous_performance_test,2024.2.4,MacIntel,60.24096386,b810d70b-9c3d-4e1a-ad40-4a662cbff726,4,12.173,13.7221,space,1,0.2771,,0,6,6,22,1,W,space,,,,,,,,,,
,,,,,R_4E6L0ZuTwlsz0au,001,2025-08-23_21h58.19.279,continuous_performance_test,2024.2.4,MacIntel,60.24096386,b810d70b-9c3d-4e1a-ad40-4a662cbff726,4,13.7231,15.7215,space,1,0.0448,,0,7,7,17,1,R,space,,,,,,,,,,
,,,,,R_4E6L0ZuTwlsz0au,001,2025-08-23_21h58.19.279,continuous_performance_test,2024.2.4,MacIntel,60.24096386,b810d70b-9c3d-4e1a-ad40-4a662cbff726,4,15.7229,17.6225,space,1,0.2736,,0,8,8,1,1,B,space,,,,,,,,,,
,,,,,R_4E6L0ZuTwlsz0au,001,2025-08-23_21h58.19.279,continuous_performance_test,2024.2.4,MacIntel,60.24096386,b810d70b-9c3d-4e1a-ad40-4a662cbff726,4,17.6243,19.3224,space,1,0.2789,,0,9,9,8,1,I,space,,,,,,,,,,
,,,,,R_4E6L0ZuTwlsz0au,001,2025-08-23_21h58.19.279,continuous_performance_test,2024.2.4,MacIntel,60.24096386,b810d70b-9c3d-4e1a-ad40-4a662cbff726,4,19.3243,21.1225,space,0,0.2458,,0,10,10,28,1,X,,,,,,,,,,,
,,,,,R_4E6L0ZuTwlsz0au,001,2025-08-23_21h58.19.279,continuous_performance_test,2024.2.4,MacIntel,60.24096386,b810d70b-9c3d-4e1a-ad40-4a662cbff726,4,21.1236,22.9224,space,0,0.2894,,0,11,11,25,1,X,,,,,,,,,,,
,,,,,R_4E6L0ZuTwlsz0au,001,2025-08-23_21h58.19.279,continuous_performance_test,2024.2.4,MacIntel,60.24096386,b810d70b-9c3d-4e1a-ad40-4a662cbff726,4,22.9237,24.8715,space,1,0.2727,,0,12,12,0,1,A,space,,,,,,,,,,
,,,,,R_4E6L0ZuTwlsz0au,001,2025-08-23_21h58.19.279,continuous_performance_test,2024.2.4,MacIntel,60.24096386,b810d70b-9c3d-4e1a-ad40-4a662cbff726,4,24.8727,26.4725,space,1,0.456,,0,13,13,20,1,U,space,,,,,,,,,,
,,,,,R_4E6L0ZuTwlsz0au,001,2025-08-23_21h58.19.279,continuous_performance_test,2024.2.4,MacIntel,60.24096386,b810d70b-9c3d-4e1a-ad40-4a662cbff726,4,26.4737,28.2716,space,1,0.2943,,0,14,14,6,1,G,space,,,,,,,,,,
,,,,,R_4E6L0ZuTwlsz0au,001,2025-08-23_21h58.19.279,continuous_performance_test,2024.2.4,MacIntel,60.24096386,b810d70b-9c3d-4e1a-ad40-4a662cbff726,4,28.2729,29.8225,space,1,0.2572,,0,15,15,15,1,P,space,,,,,,,,,,
,,,,,R_4E6L0ZuTwlsz0au,001,2025-08-23_21h58.19.279,continuous_performance_test,2024.2.4,MacIntel,60.24096386,b810d70b-9c3d-4e1a-ad40-4a662cbff726,4,29.8238,31.7225,space,1,0.2569,,0,16,16,7,1,H,space,,,,,,,,,,
,,,,,R_4E6L0ZuTwlsz0au,001,2025-08-23_21h58.19.279,continuous_performance_test,2024.2.4,MacIntel,60.24096386,b810d70b-9c3d-4e1a-ad40-4a662cbff726,4,31.7239,33.6727,space,1,0.0628,,0,17,17,13,1,N,space,,,,,,,,,,
,,,,,R_4E6L0ZuTwlsz0au,001,2025-08-23_21h58.19.279,continuous_performance_test,2024.2.4,MacIntel,60.24096386,b810d70b-9c3d-4e1a-ad40-4a662cbff726,4,33.6743,35.2727,space,0,0.2919,,0,18,18,29,1,X,,,,,,,,,,,
,,,,,R_4E6L0ZuTwlsz0au,001,2025-08-23_21h58.19.279,continuous_performance_test,2024.2.4,MacIntel,60.24096386,b810d70b-9c3d-4e1a-ad40-4a662cbff726,4,35.2739,37.0726,space,0,0.3203,,0,19,19,26,1,X,,,,,,,,,,,
,,,,,R_4E6L0ZuTwlsz0au,001,2025-08-23_21h58.19.279,continuous_performance_test,2024.2.4,MacIntel,60.24096386,b810d70b-9c3d-4e1a-ad40-4a662cbff726,4,37.0744,38.9217,,0,,,0,20,20,14,1,O,space,,,,,,,,,,
,,,,,R_4E6L0ZuTwlsz0au,001,2025-08-23_21h58.19.279,continuous_performance_test,2024.2.4,MacIntel,60.24096386,b810d70b-9c3d-4e1a-ad40-4a662cbff726,4,38.9235,40.9225,space,0,0.3312,,0,21,21,27,1,X,,,,,,,,,,,
,,,,,R_4E6L0ZuTwlsz0au,001,2025-08-23_21h58.19.279,continuous_performance_test,2024.2.4,MacIntel,60.24096386,b810d70b-9c3d-4e1a-ad40-4a662cbff726,4,40.9239,42.7728,space,1,0.2767,,0,22,22,23,1,Y,space,,,,,,,,,,
,,,,,R_4E6L0ZuTwlsz0au,001,2025-08-23_21h58.19.279,continuous_performance_test,2024.2.4,MacIntel,60.24096386,b810d70b-9c3d-4e1a-ad40-4a662cbff726,4,42.7744,44.6728,space,1,0.458,,0,23,23,3,1,D,space,,,,,,,,,,
,,,,,R_4E6L0ZuTwlsz0au,001,2025-08-23_21h58.19.279,continuous_performance_test,2024.2.4,MacIntel,60.24096386,b810d70b-9c3d-4e1a-ad40-4a662cbff726,4,44.6744,46.5725,space,1,0.7287,,0,24,24,10,1,K,space,,,,,,,,,,
,,,,,R_4E6L0ZuTwlsz0au,001,2025-08-23_21h58.19.279,continuous_performance_test,2024.2.4,MacIntel,60.24096386,b810d70b-9c3d-4e1a-ad40-4a662cbff726,4,46.5735,48.4218,,0,,,0,25,25,18,1,S,space,,,,,,,,,,
,,,,,R_4E6L0ZuTwlsz0au,001,2025-08-23_21h58.19.279,continuous_performance_test,2024.2.4,MacIntel,60.24096386,b810d70b-9c3d-4e1a-ad40-4a662cbff726,4,48.4235,50.3719,,0,,,0,26,26,24,1,Z,space,,,,,,,,,,
,,,,,R_4E6L0ZuTwlsz0au,001,2025-08-23_21h58.19.279,continuous_performance_test,2024.2.4,MacIntel,60.24096386,b810d70b-9c3d-4e1a-ad40-4a662cbff726,4,50.3735,52.1729,space,1,0.6364,,0,27,27,16,1,Q,space,,,,,,,,,,
,,,,,R_4E6L0ZuTwlsz0au,001,2025-08-23_21h58.19.279,continuous_performance_test,2024.2.4,MacIntel,60.24096386,b810d70b-9c3d-4e1a-ad40-4a662cbff726,4,52.1744,54.0229,,0,,,0,28,28,12,1,M,space,,,,,,,,,,
,,,,,R_4E6L0ZuTwlsz0au,001,2025-08-23_21h58.19.279,continuous_performance_test,2024.2.4,MacIntel,60.24096386,b810d70b-9c3d-4e1a-ad40-4a662cbff726,4,54.0245,55.6227,space,1,0.3933,,0,29,29,21,1,V,space,,,,,,,,,,
,,,,,R_4E6L0ZuTwlsz0au,001,2025-08-23_21h58.19.279,continuous_performance_test,2024.2.4,MacIntel,60.24096386,b810d70b-9c3d-4e1a-ad40-4a662cbff726,4,60.5198,62.523,space,1,0.3321,,0,0,0,6,1,G,space,55.6232,60.5066,space,4.8612,,,,,,
,,,,,R_4E6L0ZuTwlsz0au,001,2025-08-23_21h58.19.279,continuous_performance_test,2024.2.4,MacIntel,60.24096386,b810d70b-9c3d-4e1a-ad40-4a662cbff726,4,62.5242,64.3731,space,1,0.2769,,0,1,1,1,1,B,space,,,,,,,,,,
,,,,,R_4E6L0ZuTwlsz0au,001,2025-08-23_21h58.19.279,continuous_performance_test,2024.2.4,MacIntel,60.24096386,b810d70b-9c3d-4e1a-ad40-4a662cbff726,4,64.3746,66.123,space,0,0.2975,,0,2,2,26,1,X,,,,,,,,,,,
,,,,,R_4E6L0ZuTwlsz0au,001,2025-08-23_21h58.19.279,continuous_performance_test,2024.2.4,MacIntel,60.24096386,b810d70b-9c3d-4e1a-ad40-4a662cbff726,4,66.1242,67.773,space,0,0.27,,0,3,3,27,1,X,,,,,,,,,,,
,,,,,R_4E6L0ZuTwlsz0au,001,2025-08-23_21h58.19.279,continuous_performance_test,2024.2.4,MacIntel,60.24096386,b810d70b-9c3d-4e1a-ad40-4a662cbff726,4,67.7744,69.6731,space,1,0.3157,,0,4,4,11,1,L,space,,,,,,,,,,
,,,,,R_4E6L0ZuTwlsz0au,001,2025-08-23_21h58.19.279,continuous_performance_test,2024.2.4,MacIntel,60.24096386,b810d70b-9c3d-4e1a-ad40-4a662cbff726,4,69.6746,71.6731,space,1,0.4934,,0,5,5,16,1,Q,space,,,,,,,,,,
,,,,,R_4E6L0ZuTwlsz0au,001,2025-08-23_21h58.19.279,continuous_performance_test,2024.2.4,MacIntel,60.24096386,b810d70b-9c3d-4e1a-ad40-4a662cbff726,4,71.6745,73.523,,0,,,0,6,6,0,1,A,space,,,,,,,,,,
,,,,,R_4E6L0ZuTwlsz0au,001,2025-08-23_21h58.19.279,continuous_performance_test,2024.2.4,MacIntel,60.24096386,b810d70b-9c3d-4e1a-ad40-4a662cbff726,4,73.5239,75.1733,space,1,0.8982,,0,7,7,22,1,W,space,,,,,,,,,,
,,,,,R_4E6L0ZuTwlsz0au,001,2025-08-23_21h58.19.279,continuous_performance_test,2024.2.4,MacIntel,60.24096386,b810d70b-9c3d-4e1a-ad40-4a662cbff726,4,75.1744,76.7733,space,1,0.5349,,0,8,8,13,1,N,space,,,,,,,,,,
,,,,,R_4E6L0ZuTwlsz0au,001,2025-08-23_21h58.19.279,continuous_performance_test,2024.2.4,MacIntel,60.24096386,b810d70b-9c3d-4e1a-ad40-4a662cbff726,4,76.7747,78.3235,space,1,0.3652,,0,9,9,18,1,S,space,,,,,,,,,,
,,,,,R_4E6L0ZuTwlsz0au,001,2025-08-23_21h58.19.279,continuous_performance_test,2024.2.4,MacIntel,60.24096386,b810d70b-9c3d-4e1a-ad40-4a662cbff726,4,78.325,80.1235,space,1,0.3301,,0,10,10,3,1,D,space,,,,,,,,,,
,,,,,R_4E6L0ZuTwlsz0au,001,2025-08-23_21h58.19.279,continuous_performance_test,2024.2.4,MacIntel,60.24096386,b810d70b-9c3d-4e1a-ad40-4a662cbff726,4,80.1249,82.1234,space,1,0.2636,,0,11,11,15,1,P,space,,,,,,,,,,
,,,,,R_4E6L0ZuTwlsz0au,001,2025-08-23_21h58.19.279,continuous_performance_test,2024.2.4,MacIntel,60.24096386,b810d70b-9c3d-4e1a-ad40-4a662cbff726,4,82.125,83.7235,space,1,0.3929,,0,12,12,17,1,R,space,,,,,,,,,,
,,,,,R_4E6L0ZuTwlsz0au,001,2025-08-23_21h58.19.279,continuous_performance_test,2024.2.4,MacIntel,60.24096386,b810d70b-9c3d-4e1a-ad40-4a662cbff726,4,83.725,85.2725,space,0,0.3151,,0,13,13,28,1,X,,,,,,,,,,,
,,,,,R_4E6L0ZuTwlsz0au,001,2025-08-23_21h58.19.279,continuous_performance_test,2024.2.4,MacIntel,60.24096386,b810d70b-9c3d-4e1a-ad40-4a662cbff726,4,85.274,86.8224,space,1,0.5172,,0,14,14,20,1,U,space,,,,,,,,,,
,,,,,R_4E6L0ZuTwlsz0au,001,2025-08-23_21h58.19.279,continuous_performance_test,2024.2.4,MacIntel,60.24096386,b810d70b-9c3d-4e1a-ad40-4a662cbff726,4,86.8235,88.7232,space,1,0.319,,0,15,15,23,1,Y,space,,,,,,,,,,
,,,,,R_4E6L0ZuTwlsz0au,001,2025-08-23_21h58.19.279,continuous_performance_test,2024.2.4,MacIntel,60.24096386,b810d70b-9c3d-4e1a-ad40-4a662cbff726,4,88.724,90.5736,space,1,0.3752,,0,16,16,5,1,F,space,,,,,,,,,,
,,,,,R_4E6L0ZuTwlsz0au,001,2025-08-23_21h58.19.279,continuous_performance_test,2024.2.4,MacIntel,60.24096386,b810d70b-9c3d-4e1a-ad40-4a662cbff726,4,90.575,92.5235,space,1,0.3098,,0,17,17,24,1,Z,space,,,,,,,,,,
,,,,,R_4E6L0ZuTwlsz0au,001,2025-08-23_21h58.19.279,continuous_performance_test,2024.2.4,MacIntel,60.24096386,b810d70b-9c3d-4e1a-ad40-4a662cbff726,4,92.5249,94.3736,space,1,0.4072,,0,18,18,21,1,V,space,,,,,,,,,,
,,,,,R_4E6L0ZuTwlsz0au,001,2025-08-23_21h58.19.279,continuous_performance_test,2024.2.4,MacIntel,60.24096386,b810d70b-9c3d-4e1a-ad40-4a662cbff726,4,94.3752,95.9735,space,1,0.3042,,0,19,19,2,1,C,space,,,,,,,,,,
,,,,,R_4E6L0ZuTwlsz0au,001,2025-08-23_21h58.19.279,continuous_performance_test,2024.2.4,MacIntel,60.24096386,b810d70b-9c3d-4e1a-ad40-4a662cbff726,4,95.9747,97.6735,space,1,0.4629,,0,20,20,7,1,H,space,,,,,,,,,,
,,,,,R_4E6L0ZuTwlsz0au,001,2025-08-23_21h58.19.279,continuous_performance_test,2024.2.4,MacIntel,60.24096386,b810d70b-9c3d-4e1a-ad40-4a662cbff726,4,97.675,99.4736,space,0,0.2464,,0,21,21,25,1,X,,,,,,,,,,,
,,,,,R_4E6L0ZuTwlsz0au,001,2025-08-23_21h58.19.279,continuous_performance_test,2024.2.4,MacIntel,60.24096386,b810d70b-9c3d-4e1a-ad40-4a662cbff726,4,99.4748,101.0236,space,0,0.5038,,0,22,22,29,1,X,,,,,,,,,,,
,,,,,R_4E6L0ZuTwlsz0au,001,2025-08-23_21h58.19.279,continuous_performance_test,2024.2.4,MacIntel,60.24096386,b810d70b-9c3d-4e1a-ad40-4a662cbff726,4,101.0249,102.8735,space,1,0.39,,0,23,23,12,1,M,space,,,,,,,,,,
,,,,,R_4E6L0ZuTwlsz0au,001,2025-08-23_21h58.19.279,continuous_performance_test,2024.2.4,MacIntel,60.24096386,b810d70b-9c3d-4e1a-ad40-4a662cbff726,4,102.8746,104.5736,space,1,0.294,,0,24,24,14,1,O,space,,,,,,,,,,
,,,,,R_4E6L0ZuTwlsz0au,001,2025-08-23_21h58.19.279,continuous_performance_test,2024.2.4,MacIntel,60.24096386,b810d70b-9c3d-4e1a-ad40-4a662cbff726,4,104.5746,106.5227,space,1,0.2844,,0,25,25,8,1,I,space,,,,,,,,,,
,,,,,R_4E6L0ZuTwlsz0au,001,2025-08-23_21h58.19.279,continuous_performance_test,2024.2.4,MacIntel,60.24096386,b810d70b-9c3d-4e1a-ad40-4a662cbff726,4,106.5241,108.2237,space,1,0.384,,0,26,26,19,1,T,space,,,,,,,,,,
,,,,,R_4E6L0ZuTwlsz0au,001,2025-08-23_21h58.19.279,continuous_performance_test,2024.2.4,MacIntel,60.24096386,b810d70b-9c3d-4e1a-ad40-4a662cbff726,4,108.225,109.7738,space,1,0.4161,,0,27,27,4,1,E,space,,,,,,,,,,
,,,,,R_4E6L0ZuTwlsz0au,001,2025-08-23_21h58.19.279,continuous_performance_test,2024.2.4,MacIntel,60.24096386,b810d70b-9c3d-4e1a-ad40-4a662cbff726,4,109.7751,111.7738,space,1,0.7805,,0,28,28,9,1,J,space,,,,,,,,,,
,,,,,R_4E6L0ZuTwlsz0au,001,2025-08-23_21h58.19.279,continuous_performance_test,2024.2.4,MacIntel,60.24096386,b810d70b-9c3d-4e1a-ad40-4a662cbff726,4,111.7751,113.524,space,1,0.392,,0,29,29,10,1,K,space,,,,,,,,,,
,,,,,R_4E6L0ZuTwlsz0au,001,2025-08-23_21h58.19.279,continuous_performance_test,2024.2.4,MacIntel,60.24096386,b810d70b-9c3d-4e1a-ad40-4a662cbff726,4,122.6318,124.424,space,1,0.3496,,0,0,0,2,1,C,space,113.5254,122.6232,space,9.077,,,,,,
,,,,,R_4E6L0ZuTwlsz0au,001,2025-08-23_21h58.19.279,continuous_performance_test,2024.2.4,MacIntel,60.24096386,b810d70b-9c3d-4e1a-ad40-4a662cbff726,4,124.4257,126.174,space,1,0.298,,0,1,1,21,1,V,space,,,,,,,,,,
,,,,,R_4E6L0ZuTwlsz0au,001,2025-08-23_21h58.19.279,continuous_performance_test,2024.2.4,MacIntel,60.24096386,b810d70b-9c3d-4e1a-ad40-4a662cbff726,4,126.1753,127.9741,space,1,0.2989,,0,2,2,0,1,A,space,,,,,,,,,,
,,,,,R_4E6L0ZuTwlsz0au,001,2025-08-23_21h58.19.279,continuous_performance_test,2024.2.4,MacIntel,60.24096386,b810d70b-9c3d-4e1a-ad40-4a662cbff726,4,127.9754,129.7242,space,1,0.3477,,0,3,3,16,1,Q,space,,,,,,,,,,
,,,,,R_4E6L0ZuTwlsz0au,001,2025-08-23_21h58.19.279,continuous_performance_test,2024.2.4,MacIntel,60.24096386,b810d70b-9c3d-4e1a-ad40-4a662cbff726,4,129.7255,131.3242,space,0,0.2905,,0,4,4,27,1,X,,,,,,,,,,,
,,,,,R_4E6L0ZuTwlsz0au,001,2025-08-23_21h58.19.279,continuous_performance_test,2024.2.4,MacIntel,60.24096386,b810d70b-9c3d-4e1a-ad40-4a662cbff726,4,131.3256,133.1731,space,1,0.2994,,0,5,5,22,1,W,space,,,,,,,,,,
,,,,,R_4E6L0ZuTwlsz0au,001,2025-08-23_21h58.19.279,continuous_performance_test,2024.2.4,MacIntel,60.24096386,b810d70b-9c3d-4e1a-ad40-4a662cbff726,4,133.1744,134.7232,space,1,0.5484,,0,6,6,24,1,Z,space,,,,,,,,,,
,,,,,R_4E6L0ZuTwlsz0au,001,2025-08-23_21h58.19.279,continuous_performance_test,2024.2.4,MacIntel,60.24096386,b810d70b-9c3d-4e1a-ad40-4a662cbff726,4,134.7247,136.574,space,1,0.3966,,0,7,7,10,1,K,space,,,,,,,,,,
,,,,,R_4E6L0ZuTwlsz0au,001,2025-08-23_21h58.19.279,continuous_performance_test,2024.2.4,MacIntel,60.24096386,b810d70b-9c3d-4e1a-ad40-4a662cbff726,4,136.5749,138.3742,space,1,0.3634,,0,8,8,8,1,I,space,,,,,,,,,,
,,,,,R_4E6L0ZuTwlsz0au,001,2025-08-23_21h58.19.279,continuous_performance_test,2024.2.4,MacIntel,60.24096386,b810d70b-9c3d-4e1a-ad40-4a662cbff726,4,138.3755,139.9741,space,1,0.3297,,0,9,9,7,1,H,space,,,,,,,,,,
,,,,,R_4E6L0ZuTwlsz0au,001,2025-08-23_21h58.19.279,continuous_performance_test,2024.2.4,MacIntel,60.24096386,b810d70b-9c3d-4e1a-ad40-4a662cbff726,4,139.9748,141.9734,space,1,0.2641,,0,10,10,11,1,L,space,,,,,,,,,,
,,,,,R_4E6L0ZuTwlsz0au,001,2025-08-23_21h58.19.279,continuous_performance_test,2024.2.4,MacIntel,60.24096386,b810d70b-9c3d-4e1a-ad40-4a662cbff726,4,141.9748,143.8745,space,1,0.2409,,0,11,11,15,1,P,space,,,,,,,,,,
,,,,,R_4E6L0ZuTwlsz0au,001,2025-08-23_21h58.19.279,continuous_performance_test,2024.2.4,MacIntel,60.24096386,b810d70b-9c3d-4e1a-ad40-4a662cbff726,4,143.8758,145.6743,space,1,0.3167,,0,12,12,18,1,S,space,,,,,,,,,,
,,,,,R_4E6L0ZuTwlsz0au,001,2025-08-23_21h58.19.279,continuous_performance_test,2024.2.4,MacIntel,60.24096386,b810d70b-9c3d-4e1a-ad40-4a662cbff726,4,145.6756,147.4734,space,0,0.2806,,0,13,13,25,1,X,,,,,,,,,,,
,,,,,R_4E6L0ZuTwlsz0au,001,2025-08-23_21h58.19.279,continuous_performance_test,2024.2.4,MacIntel,60.24096386,b810d70b-9c3d-4e1a-ad40-4a662cbff726,4,147.4746,149.2744,space,1,0.295,,0,14,14,5,1,F,space,,,,,,,,,,
,,,,,R_4E6L0ZuTwlsz0au,001,2025-08-23_21h58.19.279,continuous_performance_test,2024.2.4,MacIntel,60.24096386,b810d70b-9c3d-4e1a-ad40-4a662cbff726,4,149.2755,150.9744,space,1,0.3314,,0,15,15,20,1,U,space,,,,,,,,,,
,,,,,R_4E6L0ZuTwlsz0au,001,2025-08-23_21h58.19.279,continuous_performance_test,2024.2.4,MacIntel,60.24096386,b810d70b-9c3d-4e1a-ad40-4a662cbff726,4,150.9755,152.6245,space,1,0.5669,,0,16,16,23,1,Y,space,,,,,,,,,,
,,,,,R_4E6L0ZuTwlsz0au,001,2025-08-23_21h58.19.279,continuous_performance_test,2024.2.4,MacIntel,60.24096386,b810d70b-9c3d-4e1a-ad40-4a662cbff726,4,152.6261,154.5745,space,1,0.3597,,0,17,17,13,1,N,space,,,,,,,,,,
,,,,,R_4E6L0ZuTwlsz0au,001,2025-08-23_21h58.19.279,continuous_performance_test,2024.2.4,MacIntel,60.24096386,b810d70b-9c3d-4e1a-ad40-4a662cbff726,4,154.5753,156.2735,space,0,0.3697,,0,18,18,26,1,X,,,,,,,,,,,
,,,,,R_4E6L0ZuTwlsz0au,001,2025-08-23_21h58.19.279,continuous_performance_test,2024.2.4,MacIntel,60.24096386,b810d70b-9c3d-4e1a-ad40-4a662cbff726,4,156.2748,158.2746,space,1,0.2963,,0,19,19,1,1,B,space,,,,,,,,,,
,,,,,R_4E6L0ZuTwlsz0au,001,2025-08-23_21h58.19.279,continuous_performance_test,2024.2.4,MacIntel,60.24096386,b810d70b-9c3d-4e1a-ad40-4a662cbff726,4,158.2759,160.2745,space,1,0.28,,0,20,20,9,1,J,space,,,,,,,,,,
,,,,,R_4E6L0ZuTwlsz0au,001,2025-08-23_21h58.19.279,continuous_performance_test,2024.2.4,MacIntel,60.24096386,b810d70b-9c3d-4e1a-ad40-4a662cbff726,4,160.2758,161.8246,space,1,0.3442,,0,21,21,17,1,R,space,,,,,,,,,,
,,,,,R_4E6L0ZuTwlsz0au,001,2025-08-23_21h58.19.279,continuous_performance_test,2024.2.4,MacIntel,60.24096386,b810d70b-9c3d-4e1a-ad40-4a662cbff726,4,161.8259,163.3744,space,1,0.3471,,0,22,22,3,1,D,space,,,,,,,,,,
,,,,,R_4E6L0ZuTwlsz0au,001,2025-08-23_21h58.19.279,continuous_performance_test,2024.2.4,MacIntel,60.24096386,b810d70b-9c3d-4e1a-ad40-4a662cbff726,4,163.3757,165.2736,space,1,0.2635,,0,23,23,14,1,O,space,,,,,,,,,,
,,,,,R_4E6L0ZuTwlsz0au,001,2025-08-23_21h58.19.279,continuous_performance_test,2024.2.4,MacIntel,60.24096386,b810d70b-9c3d-4e1a-ad40-4a662cbff726,4,165.2751,167.0745,space,1,0.309,,0,24,24,12,1,M,space,,,,,,,,,,
,,,,,R_4E6L0ZuTwlsz0au,001,2025-08-23_21h58.19.279,continuous_performance_test,2024.2.4,MacIntel,60.24096386,b810d70b-9c3d-4e1a-ad40-4a662cbff726,4,167.0759,168.9246,space,0,0.2639,,0,25,25,29,1,X,,,,,,,,,,,
,,,,,R_4E6L0ZuTwlsz0au,001,2025-08-23_21h58.19.279,continuous_performance_test,2024.2.4,MacIntel,60.24096386,b810d70b-9c3d-4e1a-ad40-4a662cbff726,4,168.9257,170.5737,space,1,0.482,,0,26,26,4,1,E,space,,,,,,,,,,
,,,,,R_4E6L0ZuTwlsz0au,001,2025-08-23_21h58.19.279,continuous_performance_test,2024.2.4,MacIntel,60.24096386,b810d70b-9c3d-4e1a-ad40-4a662cbff726,4,170.5752,172.4747,space,1,0.232,,0,27,27,6,1,G,space,,,,,,,,,,
,,,,,R_4E6L0ZuTwlsz0au,001,2025-08-23_21h58.19.279,continuous_performance_test,2024.2.4,MacIntel,60.24096386,b810d70b-9c3d-4e1a-ad40-4a662cbff726,4,172.476,174.0748,space,1,0.3009,,0,28,28,19,1,T,space,,,,,,,,,,
,,,,,R_4E6L0ZuTwlsz0au,001,2025-08-23_21h58.19.279,continuous_performance_test,2024.2.4,MacIntel,60.24096386,b810d70b-9c3d-4e1a-ad40-4a662cbff726,4,174.0759,175.7248,space,0,0.2626,,0,29,29,28,1,X,,,,,,,,,,,
,,,,,R_4E6L0ZuTwlsz0au,001,2025-08-23_21h58.19.279,continuous_performance_test,2024.2.4,MacIntel,60.24096386,b810d70b-9c3d-4e1a-ad40-4a662cbff726,4,178.78,180.4748,space,1,0.3143,,0,0,0,8,1,I,space,175.726,178.7748,space,3.0303,,,,,,
,,,,,R_4E6L0ZuTwlsz0au,001,2025-08-23_21h58.19.279,continuous_performance_test,2024.2.4,MacIntel,60.24096386,b810d70b-9c3d-4e1a-ad40-4a662cbff726,4,180.4761,182.2748,space,1,0.0872,,0,1,1,18,1,S,space,,,,,,,,,,
,,,,,R_4E6L0ZuTwlsz0au,001,2025-08-23_21h58.19.279,continuous_performance_test,2024.2.4,MacIntel,60.24096386,b810d70b-9c3d-4e1a-ad40-4a662cbff726,4,182.2761,184.0749,space,0,0.2964,,0,2,2,28,1,X,,,,,,,,,,,
,,,,,R_4E6L0ZuTwlsz0au,001,2025-08-23_21h58.19.279,continuous_performance_test,2024.2.4,MacIntel,60.24096386,b810d70b-9c3d-4e1a-ad40-4a662cbff726,4,184.076,185.7243,space,1,0.2453,,0,3,3,3,1,D,space,,,,,,,,,,
,,,,,R_4E6L0ZuTwlsz0au,001,2025-08-23_21h58.19.279,continuous_performance_test,2024.2.4,MacIntel,60.24096386,b810d70b-9c3d-4e1a-ad40-4a662cbff726,4,185.7255,187.5247,space,1,0.2642,,0,4,4,12,1,M,space,,,,,,,,,,
,,,,,R_4E6L0ZuTwlsz0au,001,2025-08-23_21h58.19.279,continuous_performance_test,2024.2.4,MacIntel,60.24096386,b810d70b-9c3d-4e1a-ad40-4a662cbff726,4,187.5254,189.075,space,1,0.2691,,0,5,5,11,1,L,space,,,,,,,,,,
,,,,,R_4E6L0ZuTwlsz0au,001,2025-08-23_21h58.19.279,continuous_performance_test,2024.2.4,MacIntel,60.24096386,b810d70b-9c3d-4e1a-ad40-4a662cbff726,4,189.0762,190.6749,space,0,0.2643,,0,6,6,25,1,X,,,,,,,,,,,
,,,,,R_4E6L0ZuTwlsz0au,001,2025-08-23_21h58.19.279,continuous_performance_test,2024.2.4,MacIntel,60.24096386,b810d70b-9c3d-4e1a-ad40-4a662cbff726,4,190.6758,192.2742,space,1,0.2642,,0,7,7,10,1,K,space,,,,,,,,,,
,,,,,R_4E6L0ZuTwlsz0au,001,2025-08-23_21h58.19.279,continuous_performance_test,2024.2.4,MacIntel,60.24096386,b810d70b-9c3d-4e1a-ad40-4a662cbff726,4,192.2753,193.8749,space,1,0.2642,,0,8,8,0,1,A,space,,,,,,,,,,
,,,,,R_4E6L0ZuTwlsz0au,001,2025-08-23_21h58.19.279,continuous_performance_test,2024.2.4,MacIntel,60.24096386,b810d70b-9c3d-4e1a-ad40-4a662cbff726,4,193.8763,195.4751,space,1,0.2636,,0,9,9,5,1,F,space,,,,,,,,,,
,,,,,R_4E6L0ZuTwlsz0au,001,2025-08-23_21h58.19.279,continuous_performance_test,2024.2.4,MacIntel,60.24096386,b810d70b-9c3d-4e1a-ad40-4a662cbff726,4,195.4761,197.4251,space,1,0.2655,,0,10,10,17,1,R,space,,,,,,,,,,
,,,,,R_4E6L0ZuTwlsz0au,001,2025-08-23_21h58.19.279,continuous_performance_test,2024.2.4,MacIntel,60.24096386,b810d70b-9c3d-4e1a-ad40-4a662cbff726,4,197.4267,199.375,space,1,0.2642,,0,11,11,2,1,C,space,,,,,,,,,,
,,,,,R_4E6L0ZuTwlsz0au,001,2025-08-23_21h58.19.279,continuous_performance_test,2024.2.4,MacIntel,60.24096386,b810d70b-9c3d-4e1a-ad40-4a662cbff726,4,199.3762,201.325,space,1,0.1648,,0,12,12,24,1,Z,space,,,,,,,,,,
,,,,,R_4E6L0ZuTwlsz0au,001,2025-08-23_21h58.19.279,continuous_performance_test,2024.2.4,MacIntel,60.24096386,b810d70b-9c3d-4e1a-ad40-4a662cbff726,4,201.3261,202.9242,space,1,0.2971,,0,13,13,19,1,T,space,,,,,,,,,,
,,,,,R_4E6L0ZuTwlsz0au,001,2025-08-23_21h58.19.279,continuous_performance_test,2024.2.4,MacIntel,60.24096386,b810d70b-9c3d-4e1a-ad40-4a662cbff726,4,202.9255,204.8251,space,1,0.3081,,0,14,14,4,1,E,space,,,,,,,,,,
,,,,,R_4E6L0ZuTwlsz0au,001,2025-08-23_21h58.19.279,continuous_performance_test,2024.2.4,MacIntel,60.24096386,b810d70b-9c3d-4e1a-ad40-4a662cbff726,4,204.8264,206.4753,space,0,0.2654,,0,15,15,26,1,X,,,,,,,,,,,
,,,,,R_4E6L0ZuTwlsz0au,001,2025-08-23_21h58.19.279,continuous_performance_test,2024.2.4,MacIntel,60.24096386,b810d70b-9c3d-4e1a-ad40-4a662cbff726,4,206.4762,208.1753,space,1,0.2634,,0,16,16,9,1,J,space,,,,,,,,,,
,,,,,R_4E6L0ZuTwlsz0au,001,2025-08-23_21h58.19.279,continuous_performance_test,2024.2.4,MacIntel,60.24096386,b810d70b-9c3d-4e1a-ad40-4a662cbff726,4,208.1769,209.9244,space,1,0.2594,,0,17,17,20,1,U,space,,,,,,,,,,
,,,,,R_4E6L0ZuTwlsz0au,001,2025-08-23_21h58.19.279,continuous_performance_test,2024.2.4,MacIntel,60.24096386,b810d70b-9c3d-4e1a-ad40-4a662cbff726,4,209.9255,211.5251,space,1,0.2775,,0,18,18,16,1,Q,space,,,,,,,,,,
,,,,,R_4E6L0ZuTwlsz0au,001,2025-08-23_21h58.19.279,continuous_performance_test,2024.2.4,MacIntel,60.24096386,b810d70b-9c3d-4e1a-ad40-4a662cbff726,4,211.5263,213.5254,space,1,0.2592,,0,19,19,21,1,V,space,,,,,,,,,,
,,,,,R_4E6L0ZuTwlsz0au,001,2025-08-23_21h58.19.279,continuous_performance_test,2024.2.4,MacIntel,60.24096386,b810d70b-9c3d-4e1a-ad40-4a662cbff726,4,213.5266,215.0743,space,1,0.2806,,0,20,20,6,1,G,space,,,,,,,,,,
,,,,,R_4E6L0ZuTwlsz0au,001,2025-08-23_21h58.19.279,continuous_performance_test,2024.2.4,MacIntel,60.24096386,b810d70b-9c3d-4e1a-ad40-4a662cbff726,4,215.0756,216.8743,space,1,0.275,,0,21,21,7,1,H,space,,,,,,,,,,
,,,,,R_4E6L0ZuTwlsz0au,001,2025-08-23_21h58.19.279,continuous_performance_test,2024.2.4,MacIntel,60.24096386,b810d70b-9c3d-4e1a-ad40-4a662cbff726,4,216.8754,218.6754,space,1,0.2814,,0,22,22,22,1,W,space,,,,,,,,,,
,,,,,R_4E6L0ZuTwlsz0au,001,2025-08-23_21h58.19.279,continuous_performance_test,2024.2.4,MacIntel,60.24096386,b810d70b-9c3d-4e1a-ad40-4a662cbff726,4,218.6764,220.6745,space,0,0.1002,,0,23,23,29,1,X,,,,,,,,,,,
,,,,,R_4E6L0ZuTwlsz0au,001,2025-08-23_21h58.19.279,continuous_performance_test,2024.2.4,MacIntel,60.24096386,b810d70b-9c3d-4e1a-ad40-4a662cbff726,4,220.6758,222.2255,space,1,0.2807,,0,24,24,1,1,B,space,,,,,,,,,,
,,,,,R_4E6L0ZuTwlsz0au,001,2025-08-23_21h58.19.279,continuous_performance_test,2024.2.4,MacIntel,60.24096386,b810d70b-9c3d-4e1a-ad40-4a662cbff726,4,222.2265,223.8744,space,1,0.2639,,0,25,25,15,1,P,space,,,,,,,,,,
,,,,,R_4E6L0ZuTwlsz0au,001,2025-08-23_21h58.19.279,continuous_performance_test,2024.2.4,MacIntel,60.24096386,b810d70b-9c3d-4e1a-ad40-4a662cbff726,4,223.8758,225.6255,space,1,0.2802,,0,26,26,14,1,O,space,,,,,,,,,,
,,,,,R_4E6L0ZuTwlsz0au,001,2025-08-23_21h58.19.279,continuous_performance_test,2024.2.4,MacIntel,60.24096386,b810d70b-9c3d-4e1a-ad40-4a662cbff726,4,225.6266,227.5755,space,1,0.2995,,0,27,27,23,1,Y,space,,,,,,,,,,
,,,,,R_4E6L0ZuTwlsz0au,001,2025-08-23_21h58.19.279,continuous_performance_test,2024.2.4,MacIntel,60.24096386,b810d70b-9c3d-4e1a-ad40-4a662cbff726,4,227.5767,229.5755,space,0,0.5106,,0,28,28,27,1,X,,,,,,,,,,,
,,,,,R_4E6L0ZuTwlsz0au,001,2025-08-23_21h58.19.279,continuous_performance_test,2024.2.4,MacIntel,60.24096386,b810d70b-9c3d-4e1a-ad40-4a662cbff726,4,229.5763,231.5256,space,1,0.2962,,0,29,29,13,1,N,space,,,,,,,,,,
,,,,,R_4E6L0ZuTwlsz0au,001,2025-08-23_21h58.19.279,continuous_performance_test,2024.2.4,MacIntel,60.24096386,b810d70b-9c3d-4e1a-ad40-4a662cbff726,4,235.8155,237.6591,space,1,0.2686,,0,0,0,24,1,Z,space,231.5267,235.8092,space,4.2628,,,,,,
,,,,,R_4E6L0ZuTwlsz0au,001,2025-08-23_21h58.19.279,continuous_performance_test,2024.2.4,MacIntel,60.24096386,b810d70b-9c3d-4e1a-ad40-4a662cbff726,4,237.6602,239.659,space,1,0.2744,,0,1,1,9,1,J,space,,,,,,,,,,
,,,,,R_4E6L0ZuTwlsz0au,001,2025-08-23_21h58.19.279,continuous_performance_test,2024.2.4,MacIntel,60.24096386,b810d70b-9c3d-4e1a-ad40-4a662cbff726,4,239.6602,241.359,space,0,0.2841,,0,2,2,27,1,X,,,,,,,,,,,
,,,,,R_4E6L0ZuTwlsz0au,001,2025-08-23_21h58.19.279,continuous_performance_test,2024.2.4,MacIntel,60.24096386,b810d70b-9c3d-4e1a-ad40-4a662cbff726,4,241.36,243.1584,space,1,0.2683,,0,3,3,20,1,U,space,,,,,,,,,,
,,,,,R_4E6L0ZuTwlsz0au,001,2025-08-23_21h58.19.279,continuous_performance_test,2024.2.4,MacIntel,60.24096386,b810d70b-9c3d-4e1a-ad40-4a662cbff726,4,243.1594,244.9591,space,1,0.3301,,0,4,4,13,1,N,space,,,,,,,,,,
,,,,,R_4E6L0ZuTwlsz0au,001,2025-08-23_21h58.19.279,continuous_performance_test,2024.2.4,MacIntel,60.24096386,b810d70b-9c3d-4e1a-ad40-4a662cbff726,4,244.9604,246.9091,space,1,0.2804,,0,5,5,23,1,Y,space,,,,,,,,,,
,,,,,R_4E6L0ZuTwlsz0au,001,2025-08-23_21h58.19.279,continuous_performance_test,2024.2.4,MacIntel,60.24096386,b810d70b-9c3d-4e1a-ad40-4a662cbff726,4,246.9103,248.9091,space,1,0.2768,,0,6,6,19,1,T,space,,,,,,,,,,
,,,,,R_4E6L0ZuTwlsz0au,001,2025-08-23_21h58.19.279,continuous_performance_test,2024.2.4,MacIntel,60.24096386,b810d70b-9c3d-4e1a-ad40-4a662cbff726,4,248.9101,250.5091,space,0,0.3643,,0,7,7,28,1,X,,,,,,,,,,,
,,,,,R_4E6L0ZuTwlsz0au,001,2025-08-23_21h58.19.279,continuous_performance_test,2024.2.4,MacIntel,60.24096386,b810d70b-9c3d-4e1a-ad40-4a662cbff726,4,250.5098,252.3082,space,1,0.2817,,0,8,8,14,1,O,space,,,,,,,,,,
,,,,,R_4E6L0ZuTwlsz0au,001,2025-08-23_21h58.19.279,continuous_performance_test,2024.2.4,MacIntel,60.24096386,b810d70b-9c3d-4e1a-ad40-4a662cbff726,4,252.3091,253.9092,space,1,0.2642,,0,9,9,12,1,M,space,,,,,,,,,,
,,,,,R_4E6L0ZuTwlsz0au,001,2025-08-23_21h58.19.279,continuous_performance_test,2024.2.4,MacIntel,60.24096386,b810d70b-9c3d-4e1a-ad40-4a662cbff726,4,253.9104,255.5583,space,1,0.2996,,0,10,10,7,1,H,space,,,,,,,,,,
,,,,,R_4E6L0ZuTwlsz0au,001,2025-08-23_21h58.19.279,continuous_performance_test,2024.2.4,MacIntel,60.24096386,b810d70b-9c3d-4e1a-ad40-4a662cbff726,4,255.5595,257.1592,space,1,0.2799,,0,11,11,8,1,I,space,,,,,,,,,,
,,,,,R_4E6L0ZuTwlsz0au,001,2025-08-23_21h58.19.279,continuous_performance_test,2024.2.4,MacIntel,60.24096386,b810d70b-9c3d-4e1a-ad40-4a662cbff726,4,257.1604,258.8593,space,0,0.2601,,0,12,12,25,1,X,,,,,,,,,,,
,,,,,R_4E6L0ZuTwlsz0au,001,2025-08-23_21h58.19.279,continuous_performance_test,2024.2.4,MacIntel,60.24096386,b810d70b-9c3d-4e1a-ad40-4a662cbff726,4,258.8602,260.4094,space,0,0.3174,,0,13,13,29,1,X,,,,,,,,,,,
,,,,,R_4E6L0ZuTwlsz0au,001,2025-08-23_21h58.19.279,continuous_performance_test,2024.2.4,MacIntel,60.24096386,b810d70b-9c3d-4e1a-ad40-4a662cbff726,4,260.4104,262.2093,space,1,0.2656,,0,14,14,1,1,B,space,,,,,,,,,,
,,,,,R_4E6L0ZuTwlsz0au,001,2025-08-23_21h58.19.279,continuous_performance_test,2024.2.4,MacIntel,60.24096386,b810d70b-9c3d-4e1a-ad40-4a662cbff726,4,262.2105,264.1084,space,1,0.2656,,0,15,15,2,1,C,space,,,,,,,,,,
,,,,,R_4E6L0ZuTwlsz0au,001,2025-08-23_21h58.19.279,continuous_performance_test,2024.2.4,MacIntel,60.24096386,b810d70b-9c3d-4e1a-ad40-4a662cbff726,4,264.1096,266.1095,space,1,0.2644,,0,16,16,16,1,Q,space,,,,,,,,,,
,,,,,R_4E6L0ZuTwlsz0au,001,2025-08-23_21h58.19.279,continuous_performance_test,2024.2.4,MacIntel,60.24096386,b810d70b-9c3d-4e1a-ad40-4a662cbff726,4,266.1106,267.9594,space,0,0.2806,,0,17,17,26,1,X,,,,,,,,,,,
,,,,,R_4E6L0ZuTwlsz0au,001,2025-08-23_21h58.19.279,continuous_performance_test,2024.2.4,MacIntel,60.24096386,b810d70b-9c3d-4e1a-ad40-4a662cbff726,4,267.9605,269.8594,space,1,0.2909,,0,18,18,21,1,V,space,,,,,,,,,,
,,,,,R_4E6L0ZuTwlsz0au,001,2025-08-23_21h58.19.279,continuous_performance_test,2024.2.4,MacIntel,60.24096386,b810d70b-9c3d-4e1a-ad40-4a662cbff726,4,269.8605,271.5093,space,1,0.3812,,0,19,19,11,1,L,space,,,,,,,,,,
,,,,,R_4E6L0ZuTwlsz0au,001,2025-08-23_21h58.19.279,continuous_performance_test,2024.2.4,MacIntel,60.24096386,b810d70b-9c3d-4e1a-ad40-4a662cbff726,4,271.5104,273.4095,space,1,0.2463,,0,20,20,17,1,R,space,,,,,,,,,,
,,,,,R_4E6L0ZuTwlsz0au,001,2025-08-23_21h58.19.279,continuous_performance_test,2024.2.4,MacIntel,60.24096386,b810d70b-9c3d-4e1a-ad40-4a662cbff726,4,273.4107,275.0091,space,1,0.533,,0,21,21,18,1,S,space,,,,,,,,,,
,,,,,R_4E6L0ZuTwlsz0au,001,2025-08-23_21h58.19.279,continuous_performance_test,2024.2.4,MacIntel,60.24096386,b810d70b-9c3d-4e1a-ad40-4a662cbff726,4,275.0103,276.9095,space,1,0.2925,,0,22,22,4,1,E,space,,,,,,,,,,
,,,,,R_4E6L0ZuTwlsz0au,001,2025-08-23_21h58.19.279,continuous_performance_test,2024.2.4,MacIntel,60.24096386,b810d70b-9c3d-4e1a-ad40-4a662cbff726,4,276.9108,278.7595,space,1,0.2988,,0,23,23,0,1,A,space,,,,,,,,,,
,,,,,R_4E6L0ZuTwlsz0au,001,2025-08-23_21h58.19.279,continuous_performance_test,2024.2.4,MacIntel,60.24096386,b810d70b-9c3d-4e1a-ad40-4a662cbff726,4,278.7607,280.6596,space,1,0.2636,,0,24,24,22,1,W,space,,,,,,,,,,
,,,,,R_4E6L0ZuTwlsz0au,001,2025-08-23_21h58.19.279,continuous_performance_test,2024.2.4,MacIntel,60.24096386,b810d70b-9c3d-4e1a-ad40-4a662cbff726,4,280.6606,282.2096,space,1,0.681,,0,25,25,6,1,G,space,,,,,,,,,,
,,,,,R_4E6L0ZuTwlsz0au,001,2025-08-23_21h58.19.279,continuous_performance_test,2024.2.4,MacIntel,60.24096386,b810d70b-9c3d-4e1a-ad40-4a662cbff726,4,282.2107,283.8098,space,1,0.2978,,0,26,26,5,1,F,space,,,,,,,,,,
,,,,,R_4E6L0ZuTwlsz0au,001,2025-08-23_21h58.19.279,continuous_performance_test,2024.2.4,MacIntel,60.24096386,b810d70b-9c3d-4e1a-ad40-4a662cbff726,4,283.811,285.4596,space,1,0.2805,,0,27,27,10,1,K,space,,,,,,,,,,
,,,,,R_4E6L0ZuTwlsz0au,001,2025-08-23_21h58.19.279,continuous_performance_test,2024.2.4,MacIntel,60.24096386,b810d70b-9c3d-4e1a-ad40-4a662cbff726,4,285.4607,287.0087,space,1,0.2781,,0,28,28,15,1,P,space,,,,,,,,,,
,,,,,R_4E6L0ZuTwlsz0au,001,2025-08-23_21h58.19.279,continuous_performance_test,2024.2.4,MacIntel,60.24096386,b810d70b-9c3d-4e1a-ad40-4a662cbff726,4,287.0099,288.6098,space,1,0.2794,,0,29,29,3,1,D,space,,,,,,,,,,
,,,,,R_4E6L0ZuTwlsz0au,001,2025-08-23_21h58.19.279,continuous_performance_test,2024.2.4,MacIntel,60.24096386,b810d70b-9c3d-4e1a-ad40-4a662cbff726,4,293.5171,295.5097,space,1,0.2622,,0,0,0,15,1,P,space,288.611,293.5101,space,4.8893,,,,,,
,,,,,R_4E6L0ZuTwlsz0au,001,2025-08-23_21h58.19.279,continuous_performance_test,2024.2.4,MacIntel,60.24096386,b810d70b-9c3d-4e1a-ad40-4a662cbff726,4,295.5107,297.2599,space,1,0.1972,,0,1,1,17,1,R,space,,,,,,,,,,
,,,,,R_4E6L0ZuTwlsz0au,001,2025-08-23_21h58.19.279,continuous_performance_test,2024.2.4,MacIntel,60.24096386,b810d70b-9c3d-4e1a-ad40-4a662cbff726,4,297.2611,298.8099,space,1,0.2411,,0,2,2,6,1,G,space,,,,,,,,,,
,,,,,R_4E6L0ZuTwlsz0au,001,2025-08-23_21h58.19.279,continuous_performance_test,2024.2.4,MacIntel,60.24096386,b810d70b-9c3d-4e1a-ad40-4a662cbff726,4,298.8111,300.5599,,0,,,0,3,3,24,1,Z,space,,,,,,,,,,
,,,,,R_4E6L0ZuTwlsz0au,001,2025-08-23_21h58.19.279,continuous_performance_test,2024.2.4,MacIntel,60.24096386,b810d70b-9c3d-4e1a-ad40-4a662cbff726,4,300.5611,302.26,space,1,0.2649,,0,4,4,16,1,Q,space,,,,,,,,,,
,,,,,R_4E6L0ZuTwlsz0au,001,2025-08-23_21h58.19.279,continuous_performance_test,2024.2.4,MacIntel,60.24096386,b810d70b-9c3d-4e1a-ad40-4a662cbff726,4,302.2613,304.16,space,1,0.2634,,0,5,5,12,1,M,space,,,,,,,,,,
,,,,,R_4E6L0ZuTwlsz0au,001,2025-08-23_21h58.19.279,continuous_performance_test,2024.2.4,MacIntel,60.24096386,b810d70b-9c3d-4e1a-ad40-4a662cbff726,4,304.1613,306.01,space,1,0.0499,,0,6,6,19,1,T,space,,,,,,,,,,
,,,,,R_4E6L0ZuTwlsz0au,001,2025-08-23_21h58.19.279,continuous_performance_test,2024.2.4,MacIntel,60.24096386,b810d70b-9c3d-4e1a-ad40-4a662cbff726,4,306.011,308.01,space,1,0.0004,,0,7,7,11,1,L,space,,,,,,,,,,
,,,,,R_4E6L0ZuTwlsz0au,001,2025-08-23_21h58.19.279,continuous_performance_test,2024.2.4,MacIntel,60.24096386,b810d70b-9c3d-4e1a-ad40-4a662cbff726,4,308.0113,310.0101,space,1,0.2486,,0,8,8,1,1,B,space,,,,,,,,,,
,,,,,R_4E6L0ZuTwlsz0au,001,2025-08-23_21h58.19.279,continuous_performance_test,2024.2.4,MacIntel,60.24096386,b810d70b-9c3d-4e1a-ad40-4a662cbff726,4,310.0112,311.91,space,1,0.2636,,0,9,9,20,1,U,space,,,,,,,,,,
,,,,,R_4E6L0ZuTwlsz0au,001,2025-08-23_21h58.19.279,continuous_performance_test,2024.2.4,MacIntel,60.24096386,b810d70b-9c3d-4e1a-ad40-4a662cbff726,4,311.911,313.6101,space,1,0.282,,0,10,10,13,1,N,space,,,,,,,,,,
,,,,,R_4E6L0ZuTwlsz0au,001,2025-08-23_21h58.19.279,continuous_performance_test,2024.2.4,MacIntel,60.24096386,b810d70b-9c3d-4e1a-ad40-4a662cbff726,4,313.6114,315.2102,space,1,0.282,,0,11,11,14,1,O,space,,,,,,,,,,
,,,,,R_4E6L0ZuTwlsz0au,001,2025-08-23_21h58.19.279,continuous_performance_test,2024.2.4,MacIntel,60.24096386,b810d70b-9c3d-4e1a-ad40-4a662cbff726,4,315.2114,316.8602,space,1,0.2679,,0,12,12,3,1,D,space,,,,,,,,,,
,,,,,R_4E6L0ZuTwlsz0au,001,2025-08-23_21h58.19.279,continuous_performance_test,2024.2.4,MacIntel,60.24096386,b810d70b-9c3d-4e1a-ad40-4a662cbff726,4,316.8616,318.5592,space,0,0.3145,,0,13,13,25,1,X,,,,,,,,,,,
,,,,,R_4E6L0ZuTwlsz0au,001,2025-08-23_21h58.19.279,continuous_performance_test,2024.2.4,MacIntel,60.24096386,b810d70b-9c3d-4e1a-ad40-4a662cbff726,4,318.5603,320.4092,space,1,0.4177,,0,14,14,8,1,I,space,,,,,,,,,,
,,,,,R_4E6L0ZuTwlsz0au,001,2025-08-23_21h58.19.279,continuous_performance_test,2024.2.4,MacIntel,60.24096386,b810d70b-9c3d-4e1a-ad40-4a662cbff726,4,320.4104,322.0602,space,1,0.2939,,0,15,15,9,1,J,space,,,,,,,,,,
,,,,,R_4E6L0ZuTwlsz0au,001,2025-08-23_21h58.19.279,continuous_performance_test,2024.2.4,MacIntel,60.24096386,b810d70b-9c3d-4e1a-ad40-4a662cbff726,4,322.0614,323.9094,space,1,0.2596,,0,16,16,10,1,K,space,,,,,,,,,,
,,,,,R_4E6L0ZuTwlsz0au,001,2025-08-23_21h58.19.279,continuous_performance_test,2024.2.4,MacIntel,60.24096386,b810d70b-9c3d-4e1a-ad40-4a662cbff726,4,323.9106,325.6102,space,0,0.3146,,0,17,17,29,1,X,,,,,,,,,,,
,,,,,R_4E6L0ZuTwlsz0au,001,2025-08-23_21h58.19.279,continuous_performance_test,2024.2.4,MacIntel,60.24096386,b810d70b-9c3d-4e1a-ad40-4a662cbff726,4,325.6115,327.5104,space,1,0.2503,,0,18,18,0,1,A,space,,,,,,,,,,
,,,,,R_4E6L0ZuTwlsz0au,001,2025-08-23_21h58.19.279,continuous_performance_test,2024.2.4,MacIntel,60.24096386,b810d70b-9c3d-4e1a-ad40-4a662cbff726,4,327.5114,329.4099,space,0,0.2585,,0,19,19,27,1,X,,,,,,,,,,,
,,,,,R_4E6L0ZuTwlsz0au,001,2025-08-23_21h58.19.279,continuous_performance_test,2024.2.4,MacIntel,60.24096386,b810d70b-9c3d-4e1a-ad40-4a662cbff726,4,329.4109,331.1103,space,0,0.4186,,0,20,20,26,1,X,,,,,,,,,,,
,,,,,R_4E6L0ZuTwlsz0au,001,2025-08-23_21h58.19.279,continuous_performance_test,2024.2.4,MacIntel,60.24096386,b810d70b-9c3d-4e1a-ad40-4a662cbff726,4,331.1114,332.8104,space,1,0.3324,,0,21,21,18,1,S,space,,,,,,,,,,
,,,,,R_4E6L0ZuTwlsz0au,001,2025-08-23_21h58.19.279,continuous_performance_test,2024.2.4,MacIntel,60.24096386,b810d70b-9c3d-4e1a-ad40-4a662cbff726,4,332.8117,334.8104,space,1,0.1642,,0,22,22,5,1,F,space,,,,,,,,,,
,,,,,R_4E6L0ZuTwlsz0au,001,2025-08-23_21h58.19.279,continuous_performance_test,2024.2.4,MacIntel,60.24096386,b810d70b-9c3d-4e1a-ad40-4a662cbff726,4,334.8117,336.4106,space,1,0.4963,,0,23,23,22,1,W,space,,,,,,,,,,
,,,,,R_4E6L0ZuTwlsz0au,001,2025-08-23_21h58.19.279,continuous_performance_test,2024.2.4,MacIntel,60.24096386,b810d70b-9c3d-4e1a-ad40-4a662cbff726,4,336.4117,338.2105,space,0,0.3814,,0,24,24,28,1,X,,,,,,,,,,,
,,,,,R_4E6L0ZuTwlsz0au,001,2025-08-23_21h58.19.279,continuous_performance_test,2024.2.4,MacIntel,60.24096386,b810d70b-9c3d-4e1a-ad40-4a662cbff726,4,338.2118,340.1105,,0,,,0,25,25,23,1,Y,space,,,,,,,,,,
,,,,,R_4E6L0ZuTwlsz0au,001,2025-08-23_21h58.19.279,continuous_performance_test,2024.2.4,MacIntel,60.24096386,b810d70b-9c3d-4e1a-ad40-4a662cbff726,4,340.1116,342.0096,,0,,,0,26,26,7,1,H,space,,,,,,,,,,
,,,,,R_4E6L0ZuTwlsz0au,001,2025-08-23_21h58.19.279,continuous_performance_test,2024.2.4,MacIntel,60.24096386,b810d70b-9c3d-4e1a-ad40-4a662cbff726,4,342.0108,343.9605,space,1,0.2802,,0,27,27,21,1,V,space,,,,,,,,,,
,,,,,R_4E6L0ZuTwlsz0au,001,2025-08-23_21h58.19.279,continuous_performance_test,2024.2.4,MacIntel,60.24096386,b810d70b-9c3d-4e1a-ad40-4a662cbff726,4,343.9618,345.5606,space,1,0.3134,,0,28,28,2,1,C,space,,,,,,,,,,
,,,,,R_4E6L0ZuTwlsz0au,001,2025-08-23_21h58.19.279,continuous_performance_test,2024.2.4,MacIntel,60.24096386,b810d70b-9c3d-4e1a-ad40-4a662cbff726,4,345.5619,347.3106,space,1,0.2462,,0,29,29,4,1,E,space,,,,,,,,,,
,,,,,R_4E6L0ZuTwlsz0au,001,2025-08-23_21h58.19.279,continuous_performance_test,2024.2.4,MacIntel,60.24096386,b810d70b-9c3d-4e1a-ad40-4a662cbff726,4,348.7684,350.3606,,0,,,0,0,0,22,1,W,space,347.3119,348.7606,space,1.428,,,,,,
,,,,,R_4E6L0ZuTwlsz0au,001,2025-08-23_21h58.19.279,continuous_performance_test,2024.2.4,MacIntel,60.24096386,b810d70b-9c3d-4e1a-ad40-4a662cbff726,4,350.3621,351.9607,space,1,0.4809,,0,1,1,21,1,V,space,,,,,,,,,,
,,,,,R_4E6L0ZuTwlsz0au,001,2025-08-23_21h58.19.279,continuous_performance_test,2024.2.4,MacIntel,60.24096386,b810d70b-9c3d-4e1a-ad40-4a662cbff726,4,351.9621,353.7606,space,1,0.2487,,0,2,2,20,1,U,space,,,,,,,,,,
,,,,,R_4E6L0ZuTwlsz0au,001,2025-08-23_21h58.19.279,continuous_performance_test,2024.2.4,MacIntel,60.24096386,b810d70b-9c3d-4e1a-ad40-4a662cbff726,4,353.7618,355.3597,space,1,0.264,,0,3,3,8,1,I,space,,,,,,,,,,
,,,,,R_4E6L0ZuTwlsz0au,001,2025-08-23_21h58.19.279,continuous_performance_test,2024.2.4,MacIntel,60.24096386,b810d70b-9c3d-4e1a-ad40-4a662cbff726,4,355.3613,357.0606,space,0,0.2655,,0,4,4,29,1,X,,,,,,,,,,,
,,,,,R_4E6L0ZuTwlsz0au,001,2025-08-23_21h58.19.279,continuous_performance_test,2024.2.4,MacIntel,60.24096386,b810d70b-9c3d-4e1a-ad40-4a662cbff726,4,357.0617,358.9606,space,1,0.1484,,0,5,5,5,1,F,space,,,,,,,,,,
,,,,,R_4E6L0ZuTwlsz0au,001,2025-08-23_21h58.19.279,continuous_performance_test,2024.2.4,MacIntel,60.24096386,b810d70b-9c3d-4e1a-ad40-4a662cbff726,4,358.9614,360.5606,space,1,0.2811,,0,6,6,13,1,N,space,,,,,,,,,,
,,,,,R_4E6L0ZuTwlsz0au,001,2025-08-23_21h58.19.279,continuous_performance_test,2024.2.4,MacIntel,60.24096386,b810d70b-9c3d-4e1a-ad40-4a662cbff726,4,360.5619,362.5608,space,1,0.2863,,0,7,7,9,1,J,space,,,,,,,,,,
,,,,,R_4E6L0ZuTwlsz0au,001,2025-08-23_21h58.19.279,continuous_performance_test,2024.2.4,MacIntel,60.24096386,b810d70b-9c3d-4e1a-ad40-4a662cbff726,4,362.5622,364.1607,space,1,0.2635,,0,8,8,12,1,M,space,,,,,,,,,,
,,,,,R_4E6L0ZuTwlsz0au,001,2025-08-23_21h58.19.279,continuous_performance_test,2024.2.4,MacIntel,60.24096386,b810d70b-9c3d-4e1a-ad40-4a662cbff726,4,364.1618,366.1108,space,1,0.2776,,0,9,9,19,1,T,space,,,,,,,,,,
,,,,,R_4E6L0ZuTwlsz0au,001,2025-08-23_21h58.19.279,continuous_performance_test,2024.2.4,MacIntel,60.24096386,b810d70b-9c3d-4e1a-ad40-4a662cbff726,4,366.1121,367.9597,space,1,0.264,,0,10,10,23,1,Y,space,,,,,,,,,,
,,,,,R_4E6L0ZuTwlsz0au,001,2025-08-23_21h58.19.279,continuous_performance_test,2024.2.4,MacIntel,60.24096386,b810d70b-9c3d-4e1a-ad40-4a662cbff726,4,367.9608,369.7608,space,0,0.2797,,0,11,11,27,1,X,,,,,,,,,,,
,,,,,R_4E6L0ZuTwlsz0au,001,2025-08-23_21h58.19.279,continuous_performance_test,2024.2.4,MacIntel,60.24096386,b810d70b-9c3d-4e1a-ad40-4a662cbff726,4,369.762,371.6609,space,0,0.2793,,0,12,12,28,1,X,,,,,,,,,,,
,,,,,R_4E6L0ZuTwlsz0au,001,2025-08-23_21h58.19.279,continuous_performance_test,2024.2.4,MacIntel,60.24096386,b810d70b-9c3d-4e1a-ad40-4a662cbff726,4,371.662,373.5606,space,0,0.2846,,0,13,13,26,1,X,,,,,,,,,,,
,,,,,R_4E6L0ZuTwlsz0au,001,2025-08-23_21h58.19.279,continuous_performance_test,2024.2.4,MacIntel,60.24096386,b810d70b-9c3d-4e1a-ad40-4a662cbff726,4,373.5613,375.3609,space,1,0.3965,,0,14,14,24,1,Z,space,,,,,,,,,,
,,,,,R_4E6L0ZuTwlsz0au,001,2025-08-23_21h58.19.279,continuous_performance_test,2024.2.4,MacIntel,60.24096386,b810d70b-9c3d-4e1a-ad40-4a662cbff726,4,375.3621,377.2609,space,1,0.2832,,0,15,15,3,1,D,space,,,,,,,,,,
,,,,,R_4E6L0ZuTwlsz0au,001,2025-08-23_21h58.19.279,continuous_performance_test,2024.2.4,MacIntel,60.24096386,b810d70b-9c3d-4e1a-ad40-4a662cbff726,4,377.2622,379.2108,space,1,0.2853,,0,16,16,4,1,E,space,,,,,,,,,,
,,,,,R_4E6L0ZuTwlsz0au,001,2025-08-23_21h58.19.279,continuous_performance_test,2024.2.4,MacIntel,60.24096386,b810d70b-9c3d-4e1a-ad40-4a662cbff726,4,379.2119,380.91,space,1,0.244,,0,17,17,16,1,Q,space,,,,,,,,,,
,,,,,R_4E6L0ZuTwlsz0au,001,2025-08-23_21h58.19.279,continuous_performance_test,2024.2.4,MacIntel,60.24096386,b810d70b-9c3d-4e1a-ad40-4a662cbff726,4,380.9112,382.5598,space,1,0.2696,,0,18,18,2,1,C,space,,,,,,,,,,
,,,,,R_4E6L0ZuTwlsz0au,001,2025-08-23_21h58.19.279,continuous_performance_test,2024.2.4,MacIntel,60.24096386,b810d70b-9c3d-4e1a-ad40-4a662cbff726,4,382.5606,384.2606,space,1,0.2304,,0,19,19,11,1,L,space,,,,,,,,,,
,,,,,R_4E6L0ZuTwlsz0au,001,2025-08-23_21h58.19.279,continuous_performance_test,2024.2.4,MacIntel,60.24096386,b810d70b-9c3d-4e1a-ad40-4a662cbff726,4,384.2617,385.9611,space,1,0.2633,,0,20,20,6,1,G,space,,,,,,,,,,
,,,,,R_4E6L0ZuTwlsz0au,001,2025-08-23_21h58.19.279,continuous_performance_test,2024.2.4,MacIntel,60.24096386,b810d70b-9c3d-4e1a-ad40-4a662cbff726,4,385.9623,387.9608,,0,,,0,21,21,15,1,P,space,,,,,,,,,,
,,,,,R_4E6L0ZuTwlsz0au,001,2025-08-23_21h58.19.279,continuous_performance_test,2024.2.4,MacIntel,60.24096386,b810d70b-9c3d-4e1a-ad40-4a662cbff726,4,387.9618,389.7111,space,1,0.2649,,0,22,22,17,1,R,space,,,,,,,,,,
,,,,,R_4E6L0ZuTwlsz0au,001,2025-08-23_21h58.19.279,continuous_performance_test,2024.2.4,MacIntel,60.24096386,b810d70b-9c3d-4e1a-ad40-4a662cbff726,4,389.7122,391.5099,space,1,0.2802,,0,23,23,7,1,H,space,,,,,,,,,,
,,,,,R_4E6L0ZuTwlsz0au,001,2025-08-23_21h58.19.279,continuous_performance_test,2024.2.4,MacIntel,60.24096386,b810d70b-9c3d-4e1a-ad40-4a662cbff726,4,391.5109,393.3111,space,1,0.2473,,0,24,24,0,1,A,space,,,,,,,,,,
,,,,,R_4E6L0ZuTwlsz0au,001,2025-08-23_21h58.19.279,continuous_performance_test,2024.2.4,MacIntel,60.24096386,b810d70b-9c3d-4e1a-ad40-4a662cbff726,4,393.3122,395.01,space,1,0.2639,,0,25,25,1,1,B,space,,,,,,,,,,
,,,,,R_4E6L0ZuTwlsz0au,001,2025-08-23_21h58.19.279,continuous_performance_test,2024.2.4,MacIntel,60.24096386,b810d70b-9c3d-4e1a-ad40-4a662cbff726,4,395.0115,397.0112,space,1,0.2805,,0,26,26,10,1,K,space,,,,,,,,,,
,,,,,R_4E6L0ZuTwlsz0au,001,2025-08-23_21h58.19.279,continuous_performance_test,2024.2.4,MacIntel,60.24096386,b810d70b-9c3d-4e1a-ad40-4a662cbff726,4,397.0126,398.8604,space,1,0.2594,,0,27,27,14,1,O,space,,,,,,,,,,
,,,,,R_4E6L0ZuTwlsz0au,001,2025-08-23_21h58.19.279,continuous_performance_test,2024.2.4,MacIntel,60.24096386,b810d70b-9c3d-4e1a-ad40-4a662cbff726,4,398.8619,400.8112,space,0,0.2317,,0,28,28,25,1,X,,,,,,,,,,,
,,,,,R_4E6L0ZuTwlsz0au,001,2025-08-23_21h58.19.279,continuous_performance_test,2024.2.4,MacIntel,60.24096386,b810d70b-9c3d-4e1a-ad40-4a662cbff726,4,400.8124,402.5112,space,1,0.313,,0,29,29,18,1,S,space,,,,,,,,,,
,,,,,R_4E6L0ZuTwlsz0au,001,2025-08-23_21h58.19.279,continuous_performance_test,2024.2.4,MacIntel,60.24096386,b810d70b-9c3d-4e1a-ad40-4a662cbff726,4,407.8854,409.728,space,1,0.2801,,0,0,0,8,1,I,space,402.5124,407.8782,space,5.3439,,,,,,
,,,,,R_4E6L0ZuTwlsz0au,001,2025-08-23_21h58.19.279,continuous_performance_test,2024.2.4,MacIntel,60.24096386,b810d70b-9c3d-4e1a-ad40-4a662cbff726,4,409.7294,411.7282,space,1,0.2637,,0,1,1,7,1,H,space,,,,,,,,,,
,,,,,R_4E6L0ZuTwlsz0au,001,2025-08-23_21h58.19.279,continuous_performance_test,2024.2.4,MacIntel,60.24096386,b810d70b-9c3d-4e1a-ad40-4a662cbff726,4,411.7297,413.2772,space,0,0.2745,,0,2,2,28,1,X,,,,,,,,,,,
,,,,,R_4E6L0ZuTwlsz0au,001,2025-08-23_21h58.19.279,continuous_performance_test,2024.2.4,MacIntel,60.24096386,b810d70b-9c3d-4e1a-ad40-4a662cbff726,4,413.2788,414.9283,space,1,0.2477,,0,3,3,12,1,M,space,,,,,,,,,,
,,,,,R_4E6L0ZuTwlsz0au,001,2025-08-23_21h58.19.279,continuous_performance_test,2024.2.4,MacIntel,60.24096386,b810d70b-9c3d-4e1a-ad40-4a662cbff726,4,414.9295,416.5783,space,1,0.2666,,0,4,4,17,1,R,space,,,,,,,,,,
,,,,,R_4E6L0ZuTwlsz0au,001,2025-08-23_21h58.19.279,continuous_performance_test,2024.2.4,MacIntel,60.24096386,b810d70b-9c3d-4e1a-ad40-4a662cbff726,4,416.5796,418.3782,space,1,0.2642,,0,5,5,1,1,B,space,,,,,,,,,,
,,,,,R_4E6L0ZuTwlsz0au,001,2025-08-23_21h58.19.279,continuous_performance_test,2024.2.4,MacIntel,60.24096386,b810d70b-9c3d-4e1a-ad40-4a662cbff726,4,418.3795,419.9282,space,1,0.4826,,0,6,6,0,1,A,space,,,,,,,,,,
,,,,,R_4E6L0ZuTwlsz0au,001,2025-08-23_21h58.19.279,continuous_performance_test,2024.2.4,MacIntel,60.24096386,b810d70b-9c3d-4e1a-ad40-4a662cbff726,4,419.9294,421.828,,0,,,0,7,7,16,1,Q,space,,,,,,,,,,
,,,,,R_4E6L0ZuTwlsz0au,001,2025-08-23_21h58.19.279,continuous_performance_test,2024.2.4,MacIntel,60.24096386,b810d70b-9c3d-4e1a-ad40-4a662cbff726,4,421.8284,423.6783,space,1,0.2629,,0,8,8,24,1,Z,space,,,,,,,,,,
,,,,,R_4E6L0ZuTwlsz0au,001,2025-08-23_21h58.19.279,continuous_performance_test,2024.2.4,MacIntel,60.24096386,b810d70b-9c3d-4e1a-ad40-4a662cbff726,4,423.6795,425.6783,space,0,0.3017,,0,9,9,25,1,X,,,,,,,,,,,
,,,,,R_4E6L0ZuTwlsz0au,001,2025-08-23_21h58.19.279,continuous_performance_test,2024.2.4,MacIntel,60.24096386,b810d70b-9c3d-4e1a-ad40-4a662cbff726,4,425.6795,427.5772,space,1,0.4122,,0,10,10,6,1,G,space,,,,,,,,,,
,,,,,R_4E6L0ZuTwlsz0au,001,2025-08-23_21h58.19.279,continuous_performance_test,2024.2.4,MacIntel,60.24096386,b810d70b-9c3d-4e1a-ad40-4a662cbff726,4,427.578,429.5284,space,1,0.2807,,0,11,11,13,1,N,space,,,,,,,,,,
,,,,,R_4E6L0ZuTwlsz0au,001,2025-08-23_21h58.19.279,continuous_performance_test,2024.2.4,MacIntel,60.24096386,b810d70b-9c3d-4e1a-ad40-4a662cbff726,4,429.5298,431.2785,space,1,0.2753,,0,12,12,23,1,Y,space,,,,,,,,,,
,,,,,R_4E6L0ZuTwlsz0au,001,2025-08-23_21h58.19.279,continuous_performance_test,2024.2.4,MacIntel,60.24096386,b810d70b-9c3d-4e1a-ad40-4a662cbff726,4,431.2798,433.0275,space,1,0.2674,,0,13,13,20,1,U,space,,,,,,,,,,
,,,,,R_4E6L0ZuTwlsz0au,001,2025-08-23_21h58.19.279,continuous_performance_test,2024.2.4,MacIntel,60.24096386,b810d70b-9c3d-4e1a-ad40-4a662cbff726,4,433.0286,434.9785,space,1,0.2529,,0,14,14,10,1,K,space,,,,,,,,,,
,,,,,R_4E6L0ZuTwlsz0au,001,2025-08-23_21h58.19.279,continuous_performance_test,2024.2.4,MacIntel,60.24096386,b810d70b-9c3d-4e1a-ad40-4a662cbff726,4,434.9797,436.7283,space,1,0.3129,,0,15,15,3,1,D,space,,,,,,,,,,
,,,,,R_4E6L0ZuTwlsz0au,001,2025-08-23_21h58.19.279,continuous_performance_test,2024.2.4,MacIntel,60.24096386,b810d70b-9c3d-4e1a-ad40-4a662cbff726,4,436.7291,438.5786,space,1,0.2803,,0,16,16,9,1,J,space,,,,,,,,,,
,,,,,R_4E6L0ZuTwlsz0au,001,2025-08-23_21h58.19.279,continuous_performance_test,2024.2.4,MacIntel,60.24096386,b810d70b-9c3d-4e1a-ad40-4a662cbff726,4,438.5797,440.5286,space,1,0.2857,,0,17,17,22,1,W,space,,,,,,,,,,
,,,,,R_4E6L0ZuTwlsz0au,001,2025-08-23_21h58.19.279,continuous_performance_test,2024.2.4,MacIntel,60.24096386,b810d70b-9c3d-4e1a-ad40-4a662cbff726,4,440.5298,442.2276,space,1,0.314,,0,18,18,21,1,V,space,,,,,,,,,,
,,,,,R_4E6L0ZuTwlsz0au,001,2025-08-23_21h58.19.279,continuous_performance_test,2024.2.4,MacIntel,60.24096386,b810d70b-9c3d-4e1a-ad40-4a662cbff726,4,442.2288,443.8286,space,1,0.312,,0,19,19,2,1,C,space,,,,,,,,,,
,,,,,R_4E6L0ZuTwlsz0au,001,2025-08-23_21h58.19.279,continuous_performance_test,2024.2.4,MacIntel,60.24096386,b810d70b-9c3d-4e1a-ad40-4a662cbff726,4,443.8298,445.8277,space,1,0.2492,,0,20,20,19,1,T,space,,,,,,,,,,
,,,,,R_4E6L0ZuTwlsz0au,001,2025-08-23_21h58.19.279,continuous_performance_test,2024.2.4,MacIntel,60.24096386,b810d70b-9c3d-4e1a-ad40-4a662cbff726,4,445.829,447.6787,space,1,0.2648,,0,21,21,15,1,P,space,,,,,,,,,,
,,,,,R_4E6L0ZuTwlsz0au,001,2025-08-23_21h58.19.279,continuous_performance_test,2024.2.4,MacIntel,60.24096386,b810d70b-9c3d-4e1a-ad40-4a662cbff726,4,447.6798,449.2286,space,1,0.3256,,0,22,22,4,1,E,space,,,,,,,,,,
,,,,,R_4E6L0ZuTwlsz0au,001,2025-08-23_21h58.19.279,continuous_performance_test,2024.2.4,MacIntel,60.24096386,b810d70b-9c3d-4e1a-ad40-4a662cbff726,4,449.2298,451.2277,space,0,0.2636,,0,23,23,27,1,X,,,,,,,,,,,
,,,,,R_4E6L0ZuTwlsz0au,001,2025-08-23_21h58.19.279,continuous_performance_test,2024.2.4,MacIntel,60.24096386,b810d70b-9c3d-4e1a-ad40-4a662cbff726,4,451.2288,452.9788,space,1,0.2771,,0,24,24,5,1,F,space,,,,,,,,,,
,,,,,R_4E6L0ZuTwlsz0au,001,2025-08-23_21h58.19.279,continuous_performance_test,2024.2.4,MacIntel,60.24096386,b810d70b-9c3d-4e1a-ad40-4a662cbff726,4,452.98,454.7783,space,0,0.2629,,0,25,25,29,1,X,,,,,,,,,,,
,,,,,R_4E6L0ZuTwlsz0au,001,2025-08-23_21h58.19.279,continuous_performance_test,2024.2.4,MacIntel,60.24096386,b810d70b-9c3d-4e1a-ad40-4a662cbff726,4,454.7794,456.5788,space,0,0.2671,,0,26,26,26,1,X,,,,,,,,,,,
,,,,,R_4E6L0ZuTwlsz0au,001,2025-08-23_21h58.19.279,continuous_performance_test,2024.2.4,MacIntel,60.24096386,b810d70b-9c3d-4e1a-ad40-4a662cbff726,4,456.5801,458.1278,space,1,0.2819,,0,27,27,18,1,S,space,,,,,,,,,,
,,,,,R_4E6L0ZuTwlsz0au,001,2025-08-23_21h58.19.279,continuous_performance_test,2024.2.4,MacIntel,60.24096386,b810d70b-9c3d-4e1a-ad40-4a662cbff726,4,458.1291,459.8779,space,1,0.2628,,0,28,28,14,1,O,space,,,,,,,,,,
,,,,,R_4E6L0ZuTwlsz0au,001,2025-08-23_21h58.19.279,continuous_performance_test,2024.2.4,MacIntel,60.24096386,b810d70b-9c3d-4e1a-ad40-4a662cbff726,4,459.8791,461.629,space,1,0.2594,,0,29,29,11,1,L,space,,,,,,,,,,
,,,,,R_4E6L0ZuTwlsz0au,001,2025-08-23_21h58.19.279,continuous_performance_test,2024.2.4,MacIntel,60.24096386,b810d70b-9c3d-4e1a-ad40-4a662cbff726,4,467.6359,469.429,space,1,0.2767,,0,0,0,14,1,O,space,461.6305,467.6292,space,5.9857,,,,,,
,,,,,R_4E6L0ZuTwlsz0au,001,2025-08-23_21h58.19.279,continuous_performance_test,2024.2.4,MacIntel,60.24096386,b810d70b-9c3d-4e1a-ad40-4a662cbff726,4,469.4303,471.0791,space,1,0.2326,,0,1,1,19,1,T,space,,,,,,,,,,
,,,,,R_4E6L0ZuTwlsz0au,001,2025-08-23_21h58.19.279,continuous_performance_test,2024.2.4,MacIntel,60.24096386,b810d70b-9c3d-4e1a-ad40-4a662cbff726,4,471.0806,472.678,space,1,0.2639,,0,2,2,16,1,Q,space,,,,,,,,,,
,,,,,R_4E6L0ZuTwlsz0au,001,2025-08-23_21h58.19.279,continuous_performance_test,2024.2.4,MacIntel,60.24096386,b810d70b-9c3d-4e1a-ad40-4a662cbff726,4,472.6795,474.629,space,1,0.2636,,0,3,3,12,1,M,space,,,,,,,,,,
,,,,,R_4E6L0ZuTwlsz0au,001,2025-08-23_21h58.19.279,continuous_performance_test,2024.2.4,MacIntel,60.24096386,b810d70b-9c3d-4e1a-ad40-4a662cbff726,4,474.6303,476.4292,space,1,0.2647,,0,4,4,15,1,P,space,,,,,,,,,,
,,,,,R_4E6L0ZuTwlsz0au,001,2025-08-23_21h58.19.279,continuous_performance_test,2024.2.4,MacIntel,60.24096386,b810d70b-9c3d-4e1a-ad40-4a662cbff726,4,476.4303,478.029,space,1,0.2819,,0,5,5,17,1,R,space,,,,,,,,,,
,,,,,R_4E6L0ZuTwlsz0au,001,2025-08-23_21h58.19.279,continuous_performance_test,2024.2.4,MacIntel,60.24096386,b810d70b-9c3d-4e1a-ad40-4a662cbff726,4,478.0301,479.6292,space,1,0.2637,,0,6,6,13,1,N,space,,,,,,,,,,
,,,,,R_4E6L0ZuTwlsz0au,001,2025-08-23_21h58.19.279,continuous_performance_test,2024.2.4,MacIntel,60.24096386,b810d70b-9c3d-4e1a-ad40-4a662cbff726,4,479.6304,481.3791,space,0,0.2481,,0,7,7,28,1,X,,,,,,,,,,,
,,,,,R_4E6L0ZuTwlsz0au,001,2025-08-23_21h58.19.279,continuous_performance_test,2024.2.4,MacIntel,60.24096386,b810d70b-9c3d-4e1a-ad40-4a662cbff726,4,481.3803,483.0792,space,1,0.3209,,0,8,8,10,1,K,space,,,,,,,,,,
,,,,,R_4E6L0ZuTwlsz0au,001,2025-08-23_21h58.19.279,continuous_performance_test,2024.2.4,MacIntel,60.24096386,b810d70b-9c3d-4e1a-ad40-4a662cbff726,4,483.0804,485.0292,space,1,0.2636,,0,9,9,6,1,G,space,,,,,,,,,,
,,,,,R_4E6L0ZuTwlsz0au,001,2025-08-23_21h58.19.279,continuous_performance_test,2024.2.4,MacIntel,60.24096386,b810d70b-9c3d-4e1a-ad40-4a662cbff726,4,485.0305,486.8792,space,1,0.2467,,0,10,10,20,1,U,space,,,,,,,,,,
,,,,,R_4E6L0ZuTwlsz0au,001,2025-08-23_21h58.19.279,continuous_performance_test,2024.2.4,MacIntel,60.24096386,b810d70b-9c3d-4e1a-ad40-4a662cbff726,4,486.8804,488.4293,space,1,0.3087,,0,11,11,22,1,W,space,,,,,,,,,,
,,,,,R_4E6L0ZuTwlsz0au,001,2025-08-23_21h58.19.279,continuous_performance_test,2024.2.4,MacIntel,60.24096386,b810d70b-9c3d-4e1a-ad40-4a662cbff726,4,488.4307,490.0794,space,0,0.2806,,0,12,12,27,1,X,,,,,,,,,,,
,,,,,R_4E6L0ZuTwlsz0au,001,2025-08-23_21h58.19.279,continuous_performance_test,2024.2.4,MacIntel,60.24096386,b810d70b-9c3d-4e1a-ad40-4a662cbff726,4,490.0805,492.0289,,0,,,0,13,13,4,1,E,space,,,,,,,,,,
,,,,,R_4E6L0ZuTwlsz0au,001,2025-08-23_21h58.19.279,continuous_performance_test,2024.2.4,MacIntel,60.24096386,b810d70b-9c3d-4e1a-ad40-4a662cbff726,4,492.0302,494.0294,space,1,0.3169,,0,14,14,8,1,I,space,,,,,,,,,,
,,,,,R_4E6L0ZuTwlsz0au,001,2025-08-23_21h58.19.279,continuous_performance_test,2024.2.4,MacIntel,60.24096386,b810d70b-9c3d-4e1a-ad40-4a662cbff726,4,494.0309,495.8794,space,0,0.2764,,0,15,15,25,1,X,,,,,,,,,,,
,,,,,R_4E6L0ZuTwlsz0au,001,2025-08-23_21h58.19.279,continuous_performance_test,2024.2.4,MacIntel,60.24096386,b810d70b-9c3d-4e1a-ad40-4a662cbff726,4,495.8802,497.4796,space,0,0.3514,,0,16,16,29,1,X,,,,,,,,,,,
,,,,,R_4E6L0ZuTwlsz0au,001,2025-08-23_21h58.19.279,continuous_performance_test,2024.2.4,MacIntel,60.24096386,b810d70b-9c3d-4e1a-ad40-4a662cbff726,4,497.4809,499.1792,space,1,0.296,,0,17,17,11,1,L,space,,,,,,,,,,
,,,,,R_4E6L0ZuTwlsz0au,001,2025-08-23_21h58.19.279,continuous_performance_test,2024.2.4,MacIntel,60.24096386,b810d70b-9c3d-4e1a-ad40-4a662cbff726,4,499.1802,500.7295,space,1,0.3453,,0,18,18,18,1,S,space,,,,,,,,,,
,,,,,R_4E6L0ZuTwlsz0au,001,2025-08-23_21h58.19.279,continuous_performance_test,2024.2.4,MacIntel,60.24096386,b810d70b-9c3d-4e1a-ad40-4a662cbff726,4,500.7309,502.4795,space,1,0.3834,,0,19,19,3,1,D,space,,,,,,,,,,
,,,,,R_4E6L0ZuTwlsz0au,001,2025-08-23_21h58.19.279,continuous_performance_test,2024.2.4,MacIntel,60.24096386,b810d70b-9c3d-4e1a-ad40-4a662cbff726,4,502.4809,504.1295,space,1,0.3994,,0,20,20,9,1,J,space,,,,,,,,,,
,,,,,R_4E6L0ZuTwlsz0au,001,2025-08-23_21h58.19.279,continuous_performance_test,2024.2.4,MacIntel,60.24096386,b810d70b-9c3d-4e1a-ad40-4a662cbff726,4,504.1305,505.7293,space,1,0.4161,,0,21,21,0,1,A,space,,,,,,,,,,
,,,,,R_4E6L0ZuTwlsz0au,001,2025-08-23_21h58.19.279,continuous_performance_test,2024.2.4,MacIntel,60.24096386,b810d70b-9c3d-4e1a-ad40-4a662cbff726,4,505.7303,507.2787,space,1,0.4318,,0,22,22,5,1,F,space,,,,,,,,,,
,,,,,R_4E6L0ZuTwlsz0au,001,2025-08-23_21h58.19.279,continuous_performance_test,2024.2.4,MacIntel,60.24096386,b810d70b-9c3d-4e1a-ad40-4a662cbff726,4,507.2799,508.8285,space,1,0.377,,0,23,23,7,1,H,space,,,,,,,,,,
,,,,,R_4E6L0ZuTwlsz0au,001,2025-08-23_21h58.19.279,continuous_performance_test,2024.2.4,MacIntel,60.24096386,b810d70b-9c3d-4e1a-ad40-4a662cbff726,4,508.8293,510.3795,space,1,0.396,,0,24,24,24,1,Z,space,,,,,,,,,,
,,,,,R_4E6L0ZuTwlsz0au,001,2025-08-23_21h58.19.279,continuous_performance_test,2024.2.4,MacIntel,60.24096386,b810d70b-9c3d-4e1a-ad40-4a662cbff726,4,510.3808,511.9296,,1,,,0,25,25,26,1,X,,,,,,,,,,,
,,,,,R_4E6L0ZuTwlsz0au,001,2025-08-23_21h58.19.279,continuous_performance_test,2024.2.4,MacIntel,60.24096386,b810d70b-9c3d-4e1a-ad40-4a662cbff726,4,511.9308,513.4788,space,1,0.4148,,0,26,26,21,1,V,space,,,,,,,,,,
,,,,,R_4E6L0ZuTwlsz0au,001,2025-08-23_21h58.19.279,continuous_performance_test,2024.2.4,MacIntel,60.24096386,b810d70b-9c3d-4e1a-ad40-4a662cbff726,4,513.4803,515.4298,space,1,0.3564,,0,27,27,23,1,Y,space,,,,,,,,,,
,,,,,R_4E6L0ZuTwlsz0au,001,2025-08-23_21h58.19.279,continuous_performance_test,2024.2.4,MacIntel,60.24096386,b810d70b-9c3d-4e1a-ad40-4a662cbff726,4,515.4312,517.3297,space,1,0.3811,,0,28,28,2,1,C,space,,,,,,,,,,
,,,,,R_4E6L0ZuTwlsz0au,001,2025-08-23_21h58.19.279,continuous_performance_test,2024.2.4,MacIntel,60.24096386,b810d70b-9c3d-4e1a-ad40-4a662cbff726,4,517.3309,519.1797,space,1,0.3516,,0,29,29,1,1,B,space,,,,,,,,,,
,,,,,R_4E6L0ZuTwlsz0au,001,2025-08-23_21h58.19.279,continuous_performance_test,2024.2.4,MacIntel,60.24096386,b810d70b-9c3d-4e1a-ad40-4a662cbff726,4,524.4878,526.1299,space,0,0.2916,,0,0,0,27,1,X,,519.1808,524.48,space,5.2902,,,,,,
,,,,,R_4E6L0ZuTwlsz0au,001,2025-08-23_21h58.19.279,continuous_performance_test,2024.2.4,MacIntel,60.24096386,b810d70b-9c3d-4e1a-ad40-4a662cbff726,4,526.131,528.13,space,1,0.3135,,0,1,1,10,1,K,space,,,,,,,,,,
,,,,,R_4E6L0ZuTwlsz0au,001,2025-08-23_21h58.19.279,continuous_performance_test,2024.2.4,MacIntel,60.24096386,b810d70b-9c3d-4e1a-ad40-4a662cbff726,4,528.1312,529.98,space,1,0.3094,,0,2,2,6,1,G,space,,,,,,,,,,
,,,,,R_4E6L0ZuTwlsz0au,001,2025-08-23_21h58.19.279,continuous_performance_test,2024.2.4,MacIntel,60.24096386,b810d70b-9c3d-4e1a-ad40-4a662cbff726,4,529.9813,531.7799,space,1,0.4443,,0,3,3,22,1,W,space,,,,,,,,,,
,,,,,R_4E6L0ZuTwlsz0au,001,2025-08-23_21h58.19.279,continuous_performance_test,2024.2.4,MacIntel,60.24096386,b810d70b-9c3d-4e1a-ad40-4a662cbff726,4,531.7811,533.63,space,1,0.5156,,0,4,4,24,1,Z,space,,,,,,,,,,
,,,,,R_4E6L0ZuTwlsz0au,001,2025-08-23_21h58.19.279,continuous_performance_test,2024.2.4,MacIntel,60.24096386,b810d70b-9c3d-4e1a-ad40-4a662cbff726,4,533.6312,535.33,space,0,0.3321,,0,5,5,25,1,X,,,,,,,,,,,
,,,,,R_4E6L0ZuTwlsz0au,001,2025-08-23_21h58.19.279,continuous_performance_test,2024.2.4,MacIntel,60.24096386,b810d70b-9c3d-4e1a-ad40-4a662cbff726,4,535.3312,537.2799,space,1,0.3974,,0,6,6,11,1,L,space,,,,,,,,,,
,,,,,R_4E6L0ZuTwlsz0au,001,2025-08-23_21h58.19.279,continuous_performance_test,2024.2.4,MacIntel,60.24096386,b810d70b-9c3d-4e1a-ad40-4a662cbff726,4,537.281,539.129,space,1,0.458,,0,7,7,16,1,Q,space,,,,,,,,,,
,,,,,R_4E6L0ZuTwlsz0au,001,2025-08-23_21h58.19.279,continuous_performance_test,2024.2.4,MacIntel,60.24096386,b810d70b-9c3d-4e1a-ad40-4a662cbff726,4,539.1303,540.78,space,1,0.3969,,0,8,8,8,1,I,space,,,,,,,,,,
,,,,,R_4E6L0ZuTwlsz0au,001,2025-08-23_21h58.19.279,continuous_performance_test,2024.2.4,MacIntel,60.24096386,b810d70b-9c3d-4e1a-ad40-4a662cbff726,4,540.7812,542.7791,space,1,0.3793,,0,9,9,4,1,E,space,,,,,,,,,,
,,,,,R_4E6L0ZuTwlsz0au,001,2025-08-23_21h58.19.279,continuous_performance_test,2024.2.4,MacIntel,60.24096386,b810d70b-9c3d-4e1a-ad40-4a662cbff726,4,542.78,544.4802,space,1,0.4309,,0,10,10,5,1,F,space,,,,,,,,,,
,,,,,R_4E6L0ZuTwlsz0au,001,2025-08-23_21h58.19.279,continuous_performance_test,2024.2.4,MacIntel,60.24096386,b810d70b-9c3d-4e1a-ad40-4a662cbff726,4,544.4815,546.0301,space,1,0.4834,,0,11,11,1,1,B,space,,,,,,,,,,
,,,,,R_4E6L0ZuTwlsz0au,001,2025-08-23_21h58.19.279,continuous_performance_test,2024.2.4,MacIntel,60.24096386,b810d70b-9c3d-4e1a-ad40-4a662cbff726,4,546.0313,547.58,space,1,0.3921,,0,12,12,15,1,P,space,,,,,,,,,,
,,,,,R_4E6L0ZuTwlsz0au,001,2025-08-23_21h58.19.279,continuous_performance_test,2024.2.4,MacIntel,60.24096386,b810d70b-9c3d-4e1a-ad40-4a662cbff726,4,547.5807,549.5802,space,1,0.3364,,0,13,13,18,1,S,space,,,,,,,,,,
,,,,,R_4E6L0ZuTwlsz0au,001,2025-08-23_21h58.19.279,continuous_performance_test,2024.2.4,MacIntel,60.24096386,b810d70b-9c3d-4e1a-ad40-4a662cbff726,4,549.5814,551.2793,space,1,0.3073,,0,14,14,23,1,Y,space,,,,,,,,,,
,,,,,R_4E6L0ZuTwlsz0au,001,2025-08-23_21h58.19.279,continuous_performance_test,2024.2.4,MacIntel,60.24096386,b810d70b-9c3d-4e1a-ad40-4a662cbff726,4,551.2808,553.1803,space,1,0.3136,,0,15,15,21,1,V,space,,,,,,,,,,
,,,,,R_4E6L0ZuTwlsz0au,001,2025-08-23_21h58.19.279,continuous_performance_test,2024.2.4,MacIntel,60.24096386,b810d70b-9c3d-4e1a-ad40-4a662cbff726,4,553.1814,554.8803,space,1,0.3324,,0,16,16,13,1,N,space,,,,,,,,,,
,,,,,R_4E6L0ZuTwlsz0au,001,2025-08-23_21h58.19.279,continuous_performance_test,2024.2.4,MacIntel,60.24096386,b810d70b-9c3d-4e1a-ad40-4a662cbff726,4,554.8816,556.8302,space,1,0.3263,,0,17,17,17,1,R,space,,,,,,,,,,
,,,,,R_4E6L0ZuTwlsz0au,001,2025-08-23_21h58.19.279,continuous_performance_test,2024.2.4,MacIntel,60.24096386,b810d70b-9c3d-4e1a-ad40-4a662cbff726,4,556.8309,558.5304,space,1,0.3135,,0,18,18,20,1,U,space,,,,,,,,,,
,,,,,R_4E6L0ZuTwlsz0au,001,2025-08-23_21h58.19.279,continuous_performance_test,2024.2.4,MacIntel,60.24096386,b810d70b-9c3d-4e1a-ad40-4a662cbff726,4,558.5315,560.4305,space,0,0.3086,,0,19,19,28,1,X,,,,,,,,,,,
,,,,,R_4E6L0ZuTwlsz0au,001,2025-08-23_21h58.19.279,continuous_performance_test,2024.2.4,MacIntel,60.24096386,b810d70b-9c3d-4e1a-ad40-4a662cbff726,4,560.4318,562.1297,space,1,0.3981,,0,20,20,7,1,H,space,,,,,,,,,,
,,,,,R_4E6L0ZuTwlsz0au,001,2025-08-23_21h58.19.279,continuous_performance_test,2024.2.4,MacIntel,60.24096386,b810d70b-9c3d-4e1a-ad40-4a662cbff726,4,562.131,564.0294,space,1,0.4034,,0,21,21,19,1,T,space,,,,,,,,,,
,,,,,R_4E6L0ZuTwlsz0au,001,2025-08-23_21h58.19.279,continuous_performance_test,2024.2.4,MacIntel,60.24096386,b810d70b-9c3d-4e1a-ad40-4a662cbff726,4,564.0304,565.7304,space,1,0.3922,,0,22,22,14,1,O,space,,,,,,,,,,
,,,,,R_4E6L0ZuTwlsz0au,001,2025-08-23_21h58.19.279,continuous_performance_test,2024.2.4,MacIntel,60.24096386,b810d70b-9c3d-4e1a-ad40-4a662cbff726,4,565.7312,567.6796,,1,,,0,23,23,29,1,X,,,,,,,,,,,
,,,,,R_4E6L0ZuTwlsz0au,001,2025-08-23_21h58.19.279,continuous_performance_test,2024.2.4,MacIntel,60.24096386,b810d70b-9c3d-4e1a-ad40-4a662cbff726,4,567.6811,569.2307,space,1,0.4755,,0,24,24,3,1,D,space,,,,,,,,,,
,,,,,R_4E6L0ZuTwlsz0au,001,2025-08-23_21h58.19.279,continuous_performance_test,2024.2.4,MacIntel,60.24096386,b810d70b-9c3d-4e1a-ad40-4a662cbff726,4,569.2319,570.7805,,1,,,0,25,25,26,1,X,,,,,,,,,,,
,,,,,R_4E6L0ZuTwlsz0au,001,2025-08-23_21h58.19.279,continuous_performance_test,2024.2.4,MacIntel,60.24096386,b810d70b-9c3d-4e1a-ad40-4a662cbff726,4,570.7818,572.7305,space,1,0.3609,,0,26,26,12,1,M,space,,,,,,,,,,
,,,,,R_4E6L0ZuTwlsz0au,001,2025-08-23_21h58.19.279,continuous_performance_test,2024.2.4,MacIntel,60.24096386,b810d70b-9c3d-4e1a-ad40-4a662cbff726,4,572.7318,574.2806,space,1,0.5811,,0,27,27,2,1,C,space,,,,,,,,,,
,,,,,R_4E6L0ZuTwlsz0au,001,2025-08-23_21h58.19.279,continuous_performance_test,2024.2.4,MacIntel,60.24096386,b810d70b-9c3d-4e1a-ad40-4a662cbff726,4,574.2819,576.0809,space,1,0.4322,,0,28,28,9,1,J,space,,,,,,,,,,
,,,,,R_4E6L0ZuTwlsz0au,001,2025-08-23_21h58.19.279,continuous_performance_test,2024.2.4,MacIntel,60.24096386,b810d70b-9c3d-4e1a-ad40-4a662cbff726,4,576.0823,578.0807,space,1,0.3828,,0,29,29,0,1,A,space,,,,,,,,,,
,,,,,R_4E6L0ZuTwlsz0au,001,2025-08-23_21h58.19.279,continuous_performance_test,2024.2.4,MacIntel,60.24096386,b810d70b-9c3d-4e1a-ad40-4a662cbff726,4,,,,,,,,,,,,,,578.0819,578.0826,,,,578.0829,591.9146,space,13.8105,
