Instructions.started,Instructions.stopped,key_resp.keys,key_resp.rt,key_resp.duration,participant,session,date,expName,psychopyVersion,OS,frameRate,realeye-tester-id,realeye-tester-quality_grade,Trial_noX.started,Trial_noX.stopped,response.keys,response.corr,response.rt,response.duration,trials_noX.thisRepN,trials_noX.thisTrialN,trials_noX.thisN,trials_noX.thisIndex,trials_noX.ran,letter,corrAns,BlockBreak.started,BlockBreak.stopped,key_instruct.keys,key_instruct.rt,key_instruct.duration,End_NoX.started,End_NoX.stopped,key_resp_end_noX.keys,key_resp_end_noX.rt,key_resp_end_noX.duration
0,8.775,space,8.745,,R_4fxKHePJLTb3K3b,001,2025-08-25_16h19.15.989,continuous_performance_test,2024.2.4,MacIntel,58.82352941,6abf68ff-d090-408b-a98d-cef8c5ae3f4a,6,,,,,,,,,,,,,,,,,,,,,,,
,,,,,R_4fxKHePJLTb3K3b,001,2025-08-25_16h19.15.989,continuous_performance_test,2024.2.4,MacIntel,58.82352941,6abf68ff-d090-408b-a98d-cef8c5ae3f4a,6,8.794,10.586,space,1,0.428,,0,0,0,12,1,M,space,,,,,,,,,,
,,,,,R_4fxKHePJLTb3K3b,001,2025-08-25_16h19.15.989,continuous_performance_test,2024.2.4,MacIntel,58.82352941,6abf68ff-d090-408b-a98d-cef8c5ae3f4a,6,10.588,12.585,space,1,0.264,,0,1,1,15,1,P,space,,,,,,,,,,
,,,,,R_4fxKHePJLTb3K3b,001,2025-08-25_16h19.15.989,continuous_performance_test,2024.2.4,MacIntel,58.82352941,6abf68ff-d090-408b-a98d-cef8c5ae3f4a,6,12.588,14.285,space,1,0.335,,0,2,2,19,1,T,space,,,,,,,,,,
,,,,,R_4fxKHePJLTb3K3b,001,2025-08-25_16h19.15.989,continuous_performance_test,2024.2.4,MacIntel,58.82352941,6abf68ff-d090-408b-a98d-cef8c5ae3f4a,6,14.288,15.885,space,1,0.401,,0,3,3,9,1,J,space,,,,,,,,,,
,,,,,R_4fxKHePJLTb3K3b,001,2025-08-25_16h19.15.989,continuous_performance_test,2024.2.4,MacIntel,58.82352941,6abf68ff-d090-408b-a98d-cef8c5ae3f4a,6,15.887,17.835,space,1,0.298,,0,4,4,21,1,V,space,,,,,,,,,,
,,,,,R_4fxKHePJLTb3K3b,001,2025-08-25_16h19.15.989,continuous_performance_test,2024.2.4,MacIntel,58.82352941,6abf68ff-d090-408b-a98d-cef8c5ae3f4a,6,17.838,19.585,,1,,,0,5,5,27,1,X,,,,,,,,,,,
,,,,,R_4fxKHePJLTb3K3b,001,2025-08-25_16h19.15.989,continuous_performance_test,2024.2.4,MacIntel,58.82352941,6abf68ff-d090-408b-a98d-cef8c5ae3f4a,6,19.588,21.335,space,1,0.298,,0,6,6,8,1,I,space,,,,,,,,,,
,,,,,R_4fxKHePJLTb3K3b,001,2025-08-25_16h19.15.989,continuous_performance_test,2024.2.4,MacIntel,58.82352941,6abf68ff-d090-408b-a98d-cef8c5ae3f4a,6,21.337,23.185,space,1,0.231,,0,7,7,3,1,D,space,,,,,,,,,,
,,,,,R_4fxKHePJLTb3K3b,001,2025-08-25_16h19.15.989,continuous_performance_test,2024.2.4,MacIntel,58.82352941,6abf68ff-d090-408b-a98d-cef8c5ae3f4a,6,23.187,24.935,space,1,0.364,,0,8,8,16,1,Q,space,,,,,,,,,,
,,,,,R_4fxKHePJLTb3K3b,001,2025-08-25_16h19.15.989,continuous_performance_test,2024.2.4,MacIntel,58.82352941,6abf68ff-d090-408b-a98d-cef8c5ae3f4a,6,24.936,26.535,space,1,0.301,,0,9,9,5,1,F,space,,,,,,,,,,
,,,,,R_4fxKHePJLTb3K3b,001,2025-08-25_16h19.15.989,continuous_performance_test,2024.2.4,MacIntel,58.82352941,6abf68ff-d090-408b-a98d-cef8c5ae3f4a,6,26.538,28.085,space,1,0.297,,0,10,10,1,1,B,space,,,,,,,,,,
,,,,,R_4fxKHePJLTb3K3b,001,2025-08-25_16h19.15.989,continuous_performance_test,2024.2.4,MacIntel,58.82352941,6abf68ff-d090-408b-a98d-cef8c5ae3f4a,6,28.087,29.885,space,0,0.299,,0,11,11,28,1,X,,,,,,,,,,,
,,,,,R_4fxKHePJLTb3K3b,001,2025-08-25_16h19.15.989,continuous_performance_test,2024.2.4,MacIntel,58.82352941,6abf68ff-d090-408b-a98d-cef8c5ae3f4a,6,29.887,31.735,space,1,0.332,,0,12,12,10,1,K,space,,,,,,,,,,
,,,,,R_4fxKHePJLTb3K3b,001,2025-08-25_16h19.15.989,continuous_performance_test,2024.2.4,MacIntel,58.82352941,6abf68ff-d090-408b-a98d-cef8c5ae3f4a,6,31.738,33.286,space,1,0.316,,0,13,13,23,1,Y,space,,,,,,,,,,
,,,,,R_4fxKHePJLTb3K3b,001,2025-08-25_16h19.15.989,continuous_performance_test,2024.2.4,MacIntel,58.82352941,6abf68ff-d090-408b-a98d-cef8c5ae3f4a,6,33.289,34.885,space,1,0.33,,0,14,14,6,1,G,space,,,,,,,,,,
,,,,,R_4fxKHePJLTb3K3b,001,2025-08-25_16h19.15.989,continuous_performance_test,2024.2.4,MacIntel,58.82352941,6abf68ff-d090-408b-a98d-cef8c5ae3f4a,6,34.887,36.435,,1,,,0,15,15,25,1,X,,,,,,,,,,,
,,,,,R_4fxKHePJLTb3K3b,001,2025-08-25_16h19.15.989,continuous_performance_test,2024.2.4,MacIntel,58.82352941,6abf68ff-d090-408b-a98d-cef8c5ae3f4a,6,36.437,38.335,space,1,0.347,,0,16,16,11,1,L,space,,,,,,,,,,
,,,,,R_4fxKHePJLTb3K3b,001,2025-08-25_16h19.15.989,continuous_performance_test,2024.2.4,MacIntel,58.82352941,6abf68ff-d090-408b-a98d-cef8c5ae3f4a,6,38.338,40.185,space,1,0.282,,0,17,17,22,1,W,space,,,,,,,,,,
,,,,,R_4fxKHePJLTb3K3b,001,2025-08-25_16h19.15.989,continuous_performance_test,2024.2.4,MacIntel,58.82352941,6abf68ff-d090-408b-a98d-cef8c5ae3f4a,6,40.187,42.085,space,0,0.315,,0,18,18,26,1,X,,,,,,,,,,,
,,,,,R_4fxKHePJLTb3K3b,001,2025-08-25_16h19.15.989,continuous_performance_test,2024.2.4,MacIntel,58.82352941,6abf68ff-d090-408b-a98d-cef8c5ae3f4a,6,42.087,44.085,space,1,0.313,,0,19,19,20,1,U,space,,,,,,,,,,
,,,,,R_4fxKHePJLTb3K3b,001,2025-08-25_16h19.15.989,continuous_performance_test,2024.2.4,MacIntel,58.82352941,6abf68ff-d090-408b-a98d-cef8c5ae3f4a,6,44.087,46.085,space,1,0.339,,0,20,20,13,1,N,space,,,,,,,,,,
,,,,,R_4fxKHePJLTb3K3b,001,2025-08-25_16h19.15.989,continuous_performance_test,2024.2.4,MacIntel,58.82352941,6abf68ff-d090-408b-a98d-cef8c5ae3f4a,6,46.087,47.885,space,1,0.367,,0,21,21,7,1,H,space,,,,,,,,,,
,,,,,R_4fxKHePJLTb3K3b,001,2025-08-25_16h19.15.989,continuous_performance_test,2024.2.4,MacIntel,58.82352941,6abf68ff-d090-408b-a98d-cef8c5ae3f4a,6,47.888,49.835,space,1,0.464,,0,22,22,2,1,C,space,,,,,,,,,,
,,,,,R_4fxKHePJLTb3K3b,001,2025-08-25_16h19.15.989,continuous_performance_test,2024.2.4,MacIntel,58.82352941,6abf68ff-d090-408b-a98d-cef8c5ae3f4a,6,49.838,51.385,space,1,0.402,,0,23,23,17,1,R,space,,,,,,,,,,
,,,,,R_4fxKHePJLTb3K3b,001,2025-08-25_16h19.15.989,continuous_performance_test,2024.2.4,MacIntel,58.82352941,6abf68ff-d090-408b-a98d-cef8c5ae3f4a,6,51.388,53.085,space,1,0.315,,0,24,24,14,1,O,space,,,,,,,,,,
,,,,,R_4fxKHePJLTb3K3b,001,2025-08-25_16h19.15.989,continuous_performance_test,2024.2.4,MacIntel,58.82352941,6abf68ff-d090-408b-a98d-cef8c5ae3f4a,6,53.088,55.085,space,1,0.368,,0,25,25,18,1,S,space,,,,,,,,,,
,,,,,R_4fxKHePJLTb3K3b,001,2025-08-25_16h19.15.989,continuous_performance_test,2024.2.4,MacIntel,58.82352941,6abf68ff-d090-408b-a98d-cef8c5ae3f4a,6,55.087,56.685,,1,,,0,26,26,29,1,X,,,,,,,,,,,
,,,,,R_4fxKHePJLTb3K3b,001,2025-08-25_16h19.15.989,continuous_performance_test,2024.2.4,MacIntel,58.82352941,6abf68ff-d090-408b-a98d-cef8c5ae3f4a,6,56.687,58.235,space,1,0.381,,0,27,27,24,1,Z,space,,,,,,,,,,
,,,,,R_4fxKHePJLTb3K3b,001,2025-08-25_16h19.15.989,continuous_performance_test,2024.2.4,MacIntel,58.82352941,6abf68ff-d090-408b-a98d-cef8c5ae3f4a,6,58.237,60.035,space,1,0.381,,0,28,28,0,1,A,space,,,,,,,,,,
,,,,,R_4fxKHePJLTb3K3b,001,2025-08-25_16h19.15.989,continuous_performance_test,2024.2.4,MacIntel,58.82352941,6abf68ff-d090-408b-a98d-cef8c5ae3f4a,6,60.037,61.985,space,1,0.349,,0,29,29,4,1,E,space,,,,,,,,,,
,,,,,R_4fxKHePJLTb3K3b,001,2025-08-25_16h19.15.989,continuous_performance_test,2024.2.4,MacIntel,58.82352941,6abf68ff-d090-408b-a98d-cef8c5ae3f4a,6,74.333,76.035,space,1,0.337,,0,0,0,9,1,J,space,61.991,74.32,space,12.295,,,,,,
,,,,,R_4fxKHePJLTb3K3b,001,2025-08-25_16h19.15.989,continuous_performance_test,2024.2.4,MacIntel,58.82352941,6abf68ff-d090-408b-a98d-cef8c5ae3f4a,6,76.038,77.735,space,1,0.348,,0,1,1,8,1,I,space,,,,,,,,,,
,,,,,R_4fxKHePJLTb3K3b,001,2025-08-25_16h19.15.989,continuous_performance_test,2024.2.4,MacIntel,58.82352941,6abf68ff-d090-408b-a98d-cef8c5ae3f4a,6,77.737,79.335,space,1,0.317,,0,2,2,20,1,U,space,,,,,,,,,,
,,,,,R_4fxKHePJLTb3K3b,001,2025-08-25_16h19.15.989,continuous_performance_test,2024.2.4,MacIntel,58.82352941,6abf68ff-d090-408b-a98d-cef8c5ae3f4a,6,79.337,81.235,space,1,0.267,,0,3,3,6,1,G,space,,,,,,,,,,
,,,,,R_4fxKHePJLTb3K3b,001,2025-08-25_16h19.15.989,continuous_performance_test,2024.2.4,MacIntel,58.82352941,6abf68ff-d090-408b-a98d-cef8c5ae3f4a,6,81.237,83.085,space,1,0.348,,0,4,4,0,1,A,space,,,,,,,,,,
,,,,,R_4fxKHePJLTb3K3b,001,2025-08-25_16h19.15.989,continuous_performance_test,2024.2.4,MacIntel,58.82352941,6abf68ff-d090-408b-a98d-cef8c5ae3f4a,6,83.087,84.935,,1,,,0,5,5,25,1,X,,,,,,,,,,,
,,,,,R_4fxKHePJLTb3K3b,001,2025-08-25_16h19.15.989,continuous_performance_test,2024.2.4,MacIntel,58.82352941,6abf68ff-d090-408b-a98d-cef8c5ae3f4a,6,84.936,86.935,space,1,0.239,,0,6,6,17,1,R,space,,,,,,,,,,
,,,,,R_4fxKHePJLTb3K3b,001,2025-08-25_16h19.15.989,continuous_performance_test,2024.2.4,MacIntel,58.82352941,6abf68ff-d090-408b-a98d-cef8c5ae3f4a,6,86.937,88.835,space,1,0.266,,0,7,7,4,1,E,space,,,,,,,,,,
,,,,,R_4fxKHePJLTb3K3b,001,2025-08-25_16h19.15.989,continuous_performance_test,2024.2.4,MacIntel,58.82352941,6abf68ff-d090-408b-a98d-cef8c5ae3f4a,6,88.838,90.435,space,1,0.332,,0,8,8,19,1,T,space,,,,,,,,,,
,,,,,R_4fxKHePJLTb3K3b,001,2025-08-25_16h19.15.989,continuous_performance_test,2024.2.4,MacIntel,58.82352941,6abf68ff-d090-408b-a98d-cef8c5ae3f4a,6,90.437,92.085,space,1,0.367,,0,9,9,14,1,O,space,,,,,,,,,,
,,,,,R_4fxKHePJLTb3K3b,001,2025-08-25_16h19.15.989,continuous_performance_test,2024.2.4,MacIntel,58.82352941,6abf68ff-d090-408b-a98d-cef8c5ae3f4a,6,92.087,93.885,space,1,0.299,,0,10,10,1,1,B,space,,,,,,,,,,
,,,,,R_4fxKHePJLTb3K3b,001,2025-08-25_16h19.15.989,continuous_performance_test,2024.2.4,MacIntel,58.82352941,6abf68ff-d090-408b-a98d-cef8c5ae3f4a,6,93.888,95.535,space,0,0.319,,0,11,11,29,1,X,,,,,,,,,,,
,,,,,R_4fxKHePJLTb3K3b,001,2025-08-25_16h19.15.989,continuous_performance_test,2024.2.4,MacIntel,58.82352941,6abf68ff-d090-408b-a98d-cef8c5ae3f4a,6,95.537,97.335,space,1,0.364,,0,12,12,23,1,Y,space,,,,,,,,,,
,,,,,R_4fxKHePJLTb3K3b,001,2025-08-25_16h19.15.989,continuous_performance_test,2024.2.4,MacIntel,58.82352941,6abf68ff-d090-408b-a98d-cef8c5ae3f4a,6,97.338,98.885,space,0,0.317,,0,13,13,27,1,X,,,,,,,,,,,
,,,,,R_4fxKHePJLTb3K3b,001,2025-08-25_16h19.15.989,continuous_performance_test,2024.2.4,MacIntel,58.82352941,6abf68ff-d090-408b-a98d-cef8c5ae3f4a,6,98.887,100.835,space,1,0.273,,0,14,14,21,1,V,space,,,,,,,,,,
,,,,,R_4fxKHePJLTb3K3b,001,2025-08-25_16h19.15.989,continuous_performance_test,2024.2.4,MacIntel,58.82352941,6abf68ff-d090-408b-a98d-cef8c5ae3f4a,6,100.837,102.485,space,1,0.285,,0,15,15,2,1,C,space,,,,,,,,,,
,,,,,R_4fxKHePJLTb3K3b,001,2025-08-25_16h19.15.989,continuous_performance_test,2024.2.4,MacIntel,58.82352941,6abf68ff-d090-408b-a98d-cef8c5ae3f4a,6,102.487,104.285,space,1,0.306,,0,16,16,5,1,F,space,,,,,,,,,,
,,,,,R_4fxKHePJLTb3K3b,001,2025-08-25_16h19.15.989,continuous_performance_test,2024.2.4,MacIntel,58.82352941,6abf68ff-d090-408b-a98d-cef8c5ae3f4a,6,104.287,105.885,space,1,0.315,,0,17,17,18,1,S,space,,,,,,,,,,
,,,,,R_4fxKHePJLTb3K3b,001,2025-08-25_16h19.15.989,continuous_performance_test,2024.2.4,MacIntel,58.82352941,6abf68ff-d090-408b-a98d-cef8c5ae3f4a,6,105.887,107.885,space,1,0.281,,0,18,18,22,1,W,space,,,,,,,,,,
,,,,,R_4fxKHePJLTb3K3b,001,2025-08-25_16h19.15.989,continuous_performance_test,2024.2.4,MacIntel,58.82352941,6abf68ff-d090-408b-a98d-cef8c5ae3f4a,6,107.887,109.586,space,1,0.371,,0,19,19,11,1,L,space,,,,,,,,,,
,,,,,R_4fxKHePJLTb3K3b,001,2025-08-25_16h19.15.989,continuous_performance_test,2024.2.4,MacIntel,58.82352941,6abf68ff-d090-408b-a98d-cef8c5ae3f4a,6,109.588,111.585,,1,,,0,20,20,28,1,X,,,,,,,,,,,
,,,,,R_4fxKHePJLTb3K3b,001,2025-08-25_16h19.15.989,continuous_performance_test,2024.2.4,MacIntel,58.82352941,6abf68ff-d090-408b-a98d-cef8c5ae3f4a,6,111.588,113.286,space,1,0.264,,0,21,21,16,1,Q,space,,,,,,,,,,
,,,,,R_4fxKHePJLTb3K3b,001,2025-08-25_16h19.15.989,continuous_performance_test,2024.2.4,MacIntel,58.82352941,6abf68ff-d090-408b-a98d-cef8c5ae3f4a,6,113.287,114.935,space,1,0.281,,0,22,22,10,1,K,space,,,,,,,,,,
,,,,,R_4fxKHePJLTb3K3b,001,2025-08-25_16h19.15.989,continuous_performance_test,2024.2.4,MacIntel,58.82352941,6abf68ff-d090-408b-a98d-cef8c5ae3f4a,6,114.937,116.785,space,1,0.282,,0,23,23,13,1,N,space,,,,,,,,,,
,,,,,R_4fxKHePJLTb3K3b,001,2025-08-25_16h19.15.989,continuous_performance_test,2024.2.4,MacIntel,58.82352941,6abf68ff-d090-408b-a98d-cef8c5ae3f4a,6,116.787,118.435,space,1,0.298,,0,24,24,3,1,D,space,,,,,,,,,,
,,,,,R_4fxKHePJLTb3K3b,001,2025-08-25_16h19.15.989,continuous_performance_test,2024.2.4,MacIntel,58.82352941,6abf68ff-d090-408b-a98d-cef8c5ae3f4a,6,118.437,120.435,space,1,0.331,,0,25,25,15,1,P,space,,,,,,,,,,
,,,,,R_4fxKHePJLTb3K3b,001,2025-08-25_16h19.15.989,continuous_performance_test,2024.2.4,MacIntel,58.82352941,6abf68ff-d090-408b-a98d-cef8c5ae3f4a,6,120.437,122.035,space,1,0.34,,0,26,26,7,1,H,space,,,,,,,,,,
,,,,,R_4fxKHePJLTb3K3b,001,2025-08-25_16h19.15.989,continuous_performance_test,2024.2.4,MacIntel,58.82352941,6abf68ff-d090-408b-a98d-cef8c5ae3f4a,6,122.037,123.985,,1,,,0,27,27,26,1,X,,,,,,,,,,,
,,,,,R_4fxKHePJLTb3K3b,001,2025-08-25_16h19.15.989,continuous_performance_test,2024.2.4,MacIntel,58.82352941,6abf68ff-d090-408b-a98d-cef8c5ae3f4a,6,123.987,125.685,space,1,0.355,,0,28,28,12,1,M,space,,,,,,,,,,
,,,,,R_4fxKHePJLTb3K3b,001,2025-08-25_16h19.15.989,continuous_performance_test,2024.2.4,MacIntel,58.82352941,6abf68ff-d090-408b-a98d-cef8c5ae3f4a,6,125.687,127.636,space,1,0.349,,0,29,29,24,1,Z,space,,,,,,,,,,
,,,,,R_4fxKHePJLTb3K3b,001,2025-08-25_16h19.15.989,continuous_performance_test,2024.2.4,MacIntel,58.82352941,6abf68ff-d090-408b-a98d-cef8c5ae3f4a,6,142.649,144.186,space,1,0.321,,0,0,0,10,1,K,space,127.638,142.636,,,,,,,,
,,,,,R_4fxKHePJLTb3K3b,001,2025-08-25_16h19.15.989,continuous_performance_test,2024.2.4,MacIntel,58.82352941,6abf68ff-d090-408b-a98d-cef8c5ae3f4a,6,144.188,145.835,space,1,0.283,,0,1,1,16,1,Q,space,,,,,,,,,,
,,,,,R_4fxKHePJLTb3K3b,001,2025-08-25_16h19.15.989,continuous_performance_test,2024.2.4,MacIntel,58.82352941,6abf68ff-d090-408b-a98d-cef8c5ae3f4a,6,145.838,147.436,space,1,0.264,,0,2,2,7,1,H,space,,,,,,,,,,
,,,,,R_4fxKHePJLTb3K3b,001,2025-08-25_16h19.15.989,continuous_performance_test,2024.2.4,MacIntel,58.82352941,6abf68ff-d090-408b-a98d-cef8c5ae3f4a,6,147.438,149.085,space,1,0.256,,0,3,3,9,1,J,space,,,,,,,,,,
,,,,,R_4fxKHePJLTb3K3b,001,2025-08-25_16h19.15.989,continuous_performance_test,2024.2.4,MacIntel,58.82352941,6abf68ff-d090-408b-a98d-cef8c5ae3f4a,6,149.087,150.686,space,1,0.265,,0,4,4,5,1,F,space,,,,,,,,,,
,,,,,R_4fxKHePJLTb3K3b,001,2025-08-25_16h19.15.989,continuous_performance_test,2024.2.4,MacIntel,58.82352941,6abf68ff-d090-408b-a98d-cef8c5ae3f4a,6,150.687,152.485,space,1,0.265,,0,5,5,4,1,E,space,,,,,,,,,,
,,,,,R_4fxKHePJLTb3K3b,001,2025-08-25_16h19.15.989,continuous_performance_test,2024.2.4,MacIntel,58.82352941,6abf68ff-d090-408b-a98d-cef8c5ae3f4a,6,152.487,154.035,,1,,,0,6,6,25,1,X,,,,,,,,,,,
,,,,,R_4fxKHePJLTb3K3b,001,2025-08-25_16h19.15.989,continuous_performance_test,2024.2.4,MacIntel,58.82352941,6abf68ff-d090-408b-a98d-cef8c5ae3f4a,6,154.037,155.585,space,1,0.265,,0,7,7,20,1,U,space,,,,,,,,,,
,,,,,R_4fxKHePJLTb3K3b,001,2025-08-25_16h19.15.989,continuous_performance_test,2024.2.4,MacIntel,58.82352941,6abf68ff-d090-408b-a98d-cef8c5ae3f4a,6,155.587,157.286,space,1,0.264,,0,8,8,3,1,D,space,,,,,,,,,,
,,,,,R_4fxKHePJLTb3K3b,001,2025-08-25_16h19.15.989,continuous_performance_test,2024.2.4,MacIntel,58.82352941,6abf68ff-d090-408b-a98d-cef8c5ae3f4a,6,157.288,159.035,space,0,0.255,,0,9,9,29,1,X,,,,,,,,,,,
,,,,,R_4fxKHePJLTb3K3b,001,2025-08-25_16h19.15.989,continuous_performance_test,2024.2.4,MacIntel,58.82352941,6abf68ff-d090-408b-a98d-cef8c5ae3f4a,6,159.037,160.735,space,1,0.282,,0,10,10,12,1,M,space,,,,,,,,,,
,,,,,R_4fxKHePJLTb3K3b,001,2025-08-25_16h19.15.989,continuous_performance_test,2024.2.4,MacIntel,58.82352941,6abf68ff-d090-408b-a98d-cef8c5ae3f4a,6,160.737,162.336,space,1,0.348,,0,11,11,1,1,B,space,,,,,,,,,,
,,,,,R_4fxKHePJLTb3K3b,001,2025-08-25_16h19.15.989,continuous_performance_test,2024.2.4,MacIntel,58.82352941,6abf68ff-d090-408b-a98d-cef8c5ae3f4a,6,162.338,163.936,,1,,,0,12,12,26,1,X,,,,,,,,,,,
,,,,,R_4fxKHePJLTb3K3b,001,2025-08-25_16h19.15.989,continuous_performance_test,2024.2.4,MacIntel,58.82352941,6abf68ff-d090-408b-a98d-cef8c5ae3f4a,6,163.938,165.535,space,1,0.252,,0,13,13,8,1,I,space,,,,,,,,,,
,,,,,R_4fxKHePJLTb3K3b,001,2025-08-25_16h19.15.989,continuous_performance_test,2024.2.4,MacIntel,58.82352941,6abf68ff-d090-408b-a98d-cef8c5ae3f4a,6,165.537,167.336,space,1,0.249,,0,14,14,17,1,R,space,,,,,,,,,,
,,,,,R_4fxKHePJLTb3K3b,001,2025-08-25_16h19.15.989,continuous_performance_test,2024.2.4,MacIntel,58.82352941,6abf68ff-d090-408b-a98d-cef8c5ae3f4a,6,167.338,169.085,,1,,,0,15,15,28,1,X,,,,,,,,,,,
,,,,,R_4fxKHePJLTb3K3b,001,2025-08-25_16h19.15.989,continuous_performance_test,2024.2.4,MacIntel,58.82352941,6abf68ff-d090-408b-a98d-cef8c5ae3f4a,6,169.087,170.936,space,1,0.283,,0,16,16,13,1,N,space,,,,,,,,,,
,,,,,R_4fxKHePJLTb3K3b,001,2025-08-25_16h19.15.989,continuous_performance_test,2024.2.4,MacIntel,58.82352941,6abf68ff-d090-408b-a98d-cef8c5ae3f4a,6,170.938,172.886,space,1,0.318,,0,17,17,11,1,L,space,,,,,,,,,,
,,,,,R_4fxKHePJLTb3K3b,001,2025-08-25_16h19.15.989,continuous_performance_test,2024.2.4,MacIntel,58.82352941,6abf68ff-d090-408b-a98d-cef8c5ae3f4a,6,172.887,174.786,space,1,0.266,,0,18,18,2,1,C,space,,,,,,,,,,
,,,,,R_4fxKHePJLTb3K3b,001,2025-08-25_16h19.15.989,continuous_performance_test,2024.2.4,MacIntel,58.82352941,6abf68ff-d090-408b-a98d-cef8c5ae3f4a,6,174.787,176.786,space,1,0.266,,0,19,19,21,1,V,space,,,,,,,,,,
,,,,,R_4fxKHePJLTb3K3b,001,2025-08-25_16h19.15.989,continuous_performance_test,2024.2.4,MacIntel,58.82352941,6abf68ff-d090-408b-a98d-cef8c5ae3f4a,6,176.787,178.786,space,0,0.27,,0,20,20,27,1,X,,,,,,,,,,,
,,,,,R_4fxKHePJLTb3K3b,001,2025-08-25_16h19.15.989,continuous_performance_test,2024.2.4,MacIntel,58.82352941,6abf68ff-d090-408b-a98d-cef8c5ae3f4a,6,178.788,180.786,space,1,0.265,,0,21,21,22,1,W,space,,,,,,,,,,
,,,,,R_4fxKHePJLTb3K3b,001,2025-08-25_16h19.15.989,continuous_performance_test,2024.2.4,MacIntel,58.82352941,6abf68ff-d090-408b-a98d-cef8c5ae3f4a,6,180.788,182.736,space,1,0.49,,0,22,22,23,1,Y,space,,,,,,,,,,
,,,,,R_4fxKHePJLTb3K3b,001,2025-08-25_16h19.15.989,continuous_performance_test,2024.2.4,MacIntel,58.82352941,6abf68ff-d090-408b-a98d-cef8c5ae3f4a,6,182.738,184.486,space,1,0.334,,0,23,23,24,1,Z,space,,,,,,,,,,
,,,,,R_4fxKHePJLTb3K3b,001,2025-08-25_16h19.15.989,continuous_performance_test,2024.2.4,MacIntel,58.82352941,6abf68ff-d090-408b-a98d-cef8c5ae3f4a,6,184.487,186.186,space,1,0.348,,0,24,24,14,1,O,space,,,,,,,,,,
,,,,,R_4fxKHePJLTb3K3b,001,2025-08-25_16h19.15.989,continuous_performance_test,2024.2.4,MacIntel,58.82352941,6abf68ff-d090-408b-a98d-cef8c5ae3f4a,6,186.187,187.736,space,1,0.365,,0,25,25,18,1,S,space,,,,,,,,,,
,,,,,R_4fxKHePJLTb3K3b,001,2025-08-25_16h19.15.989,continuous_performance_test,2024.2.4,MacIntel,58.82352941,6abf68ff-d090-408b-a98d-cef8c5ae3f4a,6,187.738,189.286,space,1,0.356,,0,26,26,6,1,G,space,,,,,,,,,,
,,,,,R_4fxKHePJLTb3K3b,001,2025-08-25_16h19.15.989,continuous_performance_test,2024.2.4,MacIntel,58.82352941,6abf68ff-d090-408b-a98d-cef8c5ae3f4a,6,189.288,191.236,space,1,0.285,,0,27,27,19,1,T,space,,,,,,,,,,
,,,,,R_4fxKHePJLTb3K3b,001,2025-08-25_16h19.15.989,continuous_performance_test,2024.2.4,MacIntel,58.82352941,6abf68ff-d090-408b-a98d-cef8c5ae3f4a,6,191.238,192.786,space,1,0.38,,0,28,28,0,1,A,space,,,,,,,,,,
,,,,,R_4fxKHePJLTb3K3b,001,2025-08-25_16h19.15.989,continuous_performance_test,2024.2.4,MacIntel,58.82352941,6abf68ff-d090-408b-a98d-cef8c5ae3f4a,6,192.788,194.486,space,1,0.447,,0,29,29,15,1,P,space,,,,,,,,,,
,,,,,R_4fxKHePJLTb3K3b,001,2025-08-25_16h19.15.989,continuous_performance_test,2024.2.4,MacIntel,58.82352941,6abf68ff-d090-408b-a98d-cef8c5ae3f4a,6,209.497,211.036,space,1,0.381,,0,0,0,2,1,C,space,194.488,209.486,,,,,,,,
,,,,,R_4fxKHePJLTb3K3b,001,2025-08-25_16h19.15.989,continuous_performance_test,2024.2.4,MacIntel,58.82352941,6abf68ff-d090-408b-a98d-cef8c5ae3f4a,6,211.038,212.586,space,1,0.266,,0,1,1,5,1,F,space,,,,,,,,,,
,,,,,R_4fxKHePJLTb3K3b,001,2025-08-25_16h19.15.989,continuous_performance_test,2024.2.4,MacIntel,58.82352941,6abf68ff-d090-408b-a98d-cef8c5ae3f4a,6,212.588,214.286,space,0,0.265,,0,2,2,25,1,X,,,,,,,,,,,
,,,,,R_4fxKHePJLTb3K3b,001,2025-08-25_16h19.15.989,continuous_performance_test,2024.2.4,MacIntel,58.82352941,6abf68ff-d090-408b-a98d-cef8c5ae3f4a,6,214.288,215.936,space,1,0.282,,0,3,3,23,1,Y,space,,,,,,,,,,
,,,,,R_4fxKHePJLTb3K3b,001,2025-08-25_16h19.15.989,continuous_performance_test,2024.2.4,MacIntel,58.82352941,6abf68ff-d090-408b-a98d-cef8c5ae3f4a,6,215.937,217.936,space,1,0.265,,0,4,4,13,1,N,space,,,,,,,,,,
,,,,,R_4fxKHePJLTb3K3b,001,2025-08-25_16h19.15.989,continuous_performance_test,2024.2.4,MacIntel,58.82352941,6abf68ff-d090-408b-a98d-cef8c5ae3f4a,6,217.937,219.786,space,1,0.265,,0,5,5,16,1,Q,space,,,,,,,,,,
,,,,,R_4fxKHePJLTb3K3b,001,2025-08-25_16h19.15.989,continuous_performance_test,2024.2.4,MacIntel,58.82352941,6abf68ff-d090-408b-a98d-cef8c5ae3f4a,6,219.787,221.336,space,1,0.304,,0,6,6,4,1,E,space,,,,,,,,,,
,,,,,R_4fxKHePJLTb3K3b,001,2025-08-25_16h19.15.989,continuous_performance_test,2024.2.4,MacIntel,58.82352941,6abf68ff-d090-408b-a98d-cef8c5ae3f4a,6,221.337,222.985,space,1,0.316,,0,7,7,7,1,H,space,,,,,,,,,,
,,,,,R_4fxKHePJLTb3K3b,001,2025-08-25_16h19.15.989,continuous_performance_test,2024.2.4,MacIntel,58.82352941,6abf68ff-d090-408b-a98d-cef8c5ae3f4a,6,222.987,224.936,space,1,0.281,,0,8,8,10,1,K,space,,,,,,,,,,
,,,,,R_4fxKHePJLTb3K3b,001,2025-08-25_16h19.15.989,continuous_performance_test,2024.2.4,MacIntel,58.82352941,6abf68ff-d090-408b-a98d-cef8c5ae3f4a,6,224.938,226.736,space,1,0.271,,0,9,9,8,1,I,space,,,,,,,,,,
,,,,,R_4fxKHePJLTb3K3b,001,2025-08-25_16h19.15.989,continuous_performance_test,2024.2.4,MacIntel,58.82352941,6abf68ff-d090-408b-a98d-cef8c5ae3f4a,6,226.737,228.736,space,1,0.281,,0,10,10,15,1,P,space,,,,,,,,,,
,,,,,R_4fxKHePJLTb3K3b,001,2025-08-25_16h19.15.989,continuous_performance_test,2024.2.4,MacIntel,58.82352941,6abf68ff-d090-408b-a98d-cef8c5ae3f4a,6,228.738,230.686,space,1,0.248,,0,11,11,19,1,T,space,,,,,,,,,,
,,,,,R_4fxKHePJLTb3K3b,001,2025-08-25_16h19.15.989,continuous_performance_test,2024.2.4,MacIntel,58.82352941,6abf68ff-d090-408b-a98d-cef8c5ae3f4a,6,230.688,232.386,space,0,0.288,,0,12,12,28,1,X,,,,,,,,,,,
,,,,,R_4fxKHePJLTb3K3b,001,2025-08-25_16h19.15.989,continuous_performance_test,2024.2.4,MacIntel,58.82352941,6abf68ff-d090-408b-a98d-cef8c5ae3f4a,6,232.388,234.035,space,1,0.298,,0,13,13,14,1,O,space,,,,,,,,,,
,,,,,R_4fxKHePJLTb3K3b,001,2025-08-25_16h19.15.989,continuous_performance_test,2024.2.4,MacIntel,58.82352941,6abf68ff-d090-408b-a98d-cef8c5ae3f4a,6,234.038,235.586,space,1,0.284,,0,14,14,18,1,S,space,,,,,,,,,,
,,,,,R_4fxKHePJLTb3K3b,001,2025-08-25_16h19.15.989,continuous_performance_test,2024.2.4,MacIntel,58.82352941,6abf68ff-d090-408b-a98d-cef8c5ae3f4a,6,235.588,237.536,space,1,0.28,,0,15,15,1,1,B,space,,,,,,,,,,
,,,,,R_4fxKHePJLTb3K3b,001,2025-08-25_16h19.15.989,continuous_performance_test,2024.2.4,MacIntel,58.82352941,6abf68ff-d090-408b-a98d-cef8c5ae3f4a,6,237.537,239.286,space,1,0.289,,0,16,16,9,1,J,space,,,,,,,,,,
,,,,,R_4fxKHePJLTb3K3b,001,2025-08-25_16h19.15.989,continuous_performance_test,2024.2.4,MacIntel,58.82352941,6abf68ff-d090-408b-a98d-cef8c5ae3f4a,6,239.288,240.936,space,1,0.283,,0,17,17,21,1,V,space,,,,,,,,,,
,,,,,R_4fxKHePJLTb3K3b,001,2025-08-25_16h19.15.989,continuous_performance_test,2024.2.4,MacIntel,58.82352941,6abf68ff-d090-408b-a98d-cef8c5ae3f4a,6,240.938,242.736,space,0,0.267,,0,18,18,27,1,X,,,,,,,,,,,
,,,,,R_4fxKHePJLTb3K3b,001,2025-08-25_16h19.15.989,continuous_performance_test,2024.2.4,MacIntel,58.82352941,6abf68ff-d090-408b-a98d-cef8c5ae3f4a,6,242.738,244.686,space,1,0.298,,0,19,19,3,1,D,space,,,,,,,,,,
,,,,,R_4fxKHePJLTb3K3b,001,2025-08-25_16h19.15.989,continuous_performance_test,2024.2.4,MacIntel,58.82352941,6abf68ff-d090-408b-a98d-cef8c5ae3f4a,6,244.688,246.236,space,0,0.297,,0,20,20,26,1,X,,,,,,,,,,,
,,,,,R_4fxKHePJLTb3K3b,001,2025-08-25_16h19.15.989,continuous_performance_test,2024.2.4,MacIntel,58.82352941,6abf68ff-d090-408b-a98d-cef8c5ae3f4a,6,246.239,248.036,space,1,0.215,,0,21,21,24,1,Z,space,,,,,,,,,,
,,,,,R_4fxKHePJLTb3K3b,001,2025-08-25_16h19.15.989,continuous_performance_test,2024.2.4,MacIntel,58.82352941,6abf68ff-d090-408b-a98d-cef8c5ae3f4a,6,248.038,249.586,space,1,0.315,,0,22,22,0,1,A,space,,,,,,,,,,
,,,,,R_4fxKHePJLTb3K3b,001,2025-08-25_16h19.15.989,continuous_performance_test,2024.2.4,MacIntel,58.82352941,6abf68ff-d090-408b-a98d-cef8c5ae3f4a,6,249.588,251.586,space,1,0.332,,0,23,23,11,1,L,space,,,,,,,,,,
,,,,,R_4fxKHePJLTb3K3b,001,2025-08-25_16h19.15.989,continuous_performance_test,2024.2.4,MacIntel,58.82352941,6abf68ff-d090-408b-a98d-cef8c5ae3f4a,6,251.588,253.136,space,1,0.349,,0,24,24,6,1,G,space,,,,,,,,,,
,,,,,R_4fxKHePJLTb3K3b,001,2025-08-25_16h19.15.989,continuous_performance_test,2024.2.4,MacIntel,58.82352941,6abf68ff-d090-408b-a98d-cef8c5ae3f4a,6,253.138,255.036,,1,,,0,25,25,29,1,X,,,,,,,,,,,
,,,,,R_4fxKHePJLTb3K3b,001,2025-08-25_16h19.15.989,continuous_performance_test,2024.2.4,MacIntel,58.82352941,6abf68ff-d090-408b-a98d-cef8c5ae3f4a,6,255.038,256.636,space,1,0.249,,0,26,26,12,1,M,space,,,,,,,,,,
,,,,,R_4fxKHePJLTb3K3b,001,2025-08-25_16h19.15.989,continuous_performance_test,2024.2.4,MacIntel,58.82352941,6abf68ff-d090-408b-a98d-cef8c5ae3f4a,6,256.638,258.486,space,1,0.304,,0,27,27,17,1,R,space,,,,,,,,,,
,,,,,R_4fxKHePJLTb3K3b,001,2025-08-25_16h19.15.989,continuous_performance_test,2024.2.4,MacIntel,58.82352941,6abf68ff-d090-408b-a98d-cef8c5ae3f4a,6,258.487,260.286,space,1,0.306,,0,28,28,20,1,U,space,,,,,,,,,,
,,,,,R_4fxKHePJLTb3K3b,001,2025-08-25_16h19.15.989,continuous_performance_test,2024.2.4,MacIntel,58.82352941,6abf68ff-d090-408b-a98d-cef8c5ae3f4a,6,260.288,262.186,space,1,0.271,,0,29,29,22,1,W,space,,,,,,,,,,
,,,,,R_4fxKHePJLTb3K3b,001,2025-08-25_16h19.15.989,continuous_performance_test,2024.2.4,MacIntel,58.82352941,6abf68ff-d090-408b-a98d-cef8c5ae3f4a,6,276.597,278.286,space,1,0.274,,0,0,0,19,1,T,space,262.188,276.586,space,14.371,,,,,,
,,,,,R_4fxKHePJLTb3K3b,001,2025-08-25_16h19.15.989,continuous_performance_test,2024.2.4,MacIntel,58.82352941,6abf68ff-d090-408b-a98d-cef8c5ae3f4a,6,278.289,280.286,space,1,0.248,,0,1,1,8,1,I,space,,,,,,,,,,
,,,,,R_4fxKHePJLTb3K3b,001,2025-08-25_16h19.15.989,continuous_performance_test,2024.2.4,MacIntel,58.82352941,6abf68ff-d090-408b-a98d-cef8c5ae3f4a,6,280.288,281.886,space,1,0.266,,0,2,2,0,1,A,space,,,,,,,,,,
,,,,,R_4fxKHePJLTb3K3b,001,2025-08-25_16h19.15.989,continuous_performance_test,2024.2.4,MacIntel,58.82352941,6abf68ff-d090-408b-a98d-cef8c5ae3f4a,6,281.888,283.636,space,1,0.231,,0,3,3,20,1,U,space,,,,,,,,,,
,,,,,R_4fxKHePJLTb3K3b,001,2025-08-25_16h19.15.989,continuous_performance_test,2024.2.4,MacIntel,58.82352941,6abf68ff-d090-408b-a98d-cef8c5ae3f4a,6,283.638,285.636,space,0,0.215,,0,4,4,28,1,X,,,,,,,,,,,
,,,,,R_4fxKHePJLTb3K3b,001,2025-08-25_16h19.15.989,continuous_performance_test,2024.2.4,MacIntel,58.82352941,6abf68ff-d090-408b-a98d-cef8c5ae3f4a,6,285.638,287.236,space,1,0.215,,0,5,5,4,1,E,space,,,,,,,,,,
,,,,,R_4fxKHePJLTb3K3b,001,2025-08-25_16h19.15.989,continuous_performance_test,2024.2.4,MacIntel,58.82352941,6abf68ff-d090-408b-a98d-cef8c5ae3f4a,6,287.238,288.936,,1,,,0,6,6,29,1,X,,,,,,,,,,,
,,,,,R_4fxKHePJLTb3K3b,001,2025-08-25_16h19.15.989,continuous_performance_test,2024.2.4,MacIntel,58.82352941,6abf68ff-d090-408b-a98d-cef8c5ae3f4a,6,288.938,290.786,space,1,0.249,,0,7,7,6,1,G,space,,,,,,,,,,
,,,,,R_4fxKHePJLTb3K3b,001,2025-08-25_16h19.15.989,continuous_performance_test,2024.2.4,MacIntel,58.82352941,6abf68ff-d090-408b-a98d-cef8c5ae3f4a,6,290.788,292.736,space,1,0.313,,0,8,8,14,1,O,space,,,,,,,,,,
,,,,,R_4fxKHePJLTb3K3b,001,2025-08-25_16h19.15.989,continuous_performance_test,2024.2.4,MacIntel,58.82352941,6abf68ff-d090-408b-a98d-cef8c5ae3f4a,6,292.738,294.586,space,0,0.249,,0,9,9,26,1,X,,,,,,,,,,,
,,,,,R_4fxKHePJLTb3K3b,001,2025-08-25_16h19.15.989,continuous_performance_test,2024.2.4,MacIntel,58.82352941,6abf68ff-d090-408b-a98d-cef8c5ae3f4a,6,294.587,296.336,space,1,0.25,,0,10,10,13,1,N,space,,,,,,,,,,
,,,,,R_4fxKHePJLTb3K3b,001,2025-08-25_16h19.15.989,continuous_performance_test,2024.2.4,MacIntel,58.82352941,6abf68ff-d090-408b-a98d-cef8c5ae3f4a,6,296.338,297.936,space,1,0.449,,0,11,11,21,1,V,space,,,,,,,,,,
,,,,,R_4fxKHePJLTb3K3b,001,2025-08-25_16h19.15.989,continuous_performance_test,2024.2.4,MacIntel,58.82352941,6abf68ff-d090-408b-a98d-cef8c5ae3f4a,6,297.938,299.486,space,1,0.37,,0,12,12,1,1,B,space,,,,,,,,,,
,,,,,R_4fxKHePJLTb3K3b,001,2025-08-25_16h19.15.989,continuous_performance_test,2024.2.4,MacIntel,58.82352941,6abf68ff-d090-408b-a98d-cef8c5ae3f4a,6,299.488,301.236,space,1,0.531,,0,13,13,23,1,Y,space,,,,,,,,,,
,,,,,R_4fxKHePJLTb3K3b,001,2025-08-25_16h19.15.989,continuous_performance_test,2024.2.4,MacIntel,58.82352941,6abf68ff-d090-408b-a98d-cef8c5ae3f4a,6,301.237,302.986,space,1,0.3,,0,14,14,2,1,C,space,,,,,,,,,,
,,,,,R_4fxKHePJLTb3K3b,001,2025-08-25_16h19.15.989,continuous_performance_test,2024.2.4,MacIntel,58.82352941,6abf68ff-d090-408b-a98d-cef8c5ae3f4a,6,302.988,304.886,space,1,0.314,,0,15,15,11,1,L,space,,,,,,,,,,
,,,,,R_4fxKHePJLTb3K3b,001,2025-08-25_16h19.15.989,continuous_performance_test,2024.2.4,MacIntel,58.82352941,6abf68ff-d090-408b-a98d-cef8c5ae3f4a,6,304.888,306.486,space,1,0.474,,0,16,16,24,1,Z,space,,,,,,,,,,
,,,,,R_4fxKHePJLTb3K3b,001,2025-08-25_16h19.15.989,continuous_performance_test,2024.2.4,MacIntel,58.82352941,6abf68ff-d090-408b-a98d-cef8c5ae3f4a,6,306.488,308.436,space,1,0.381,,0,17,17,12,1,M,space,,,,,,,,,,
,,,,,R_4fxKHePJLTb3K3b,001,2025-08-25_16h19.15.989,continuous_performance_test,2024.2.4,MacIntel,58.82352941,6abf68ff-d090-408b-a98d-cef8c5ae3f4a,6,308.438,310.036,space,1,0.365,,0,18,18,3,1,D,space,,,,,,,,,,
,,,,,R_4fxKHePJLTb3K3b,001,2025-08-25_16h19.15.989,continuous_performance_test,2024.2.4,MacIntel,58.82352941,6abf68ff-d090-408b-a98d-cef8c5ae3f4a,6,310.038,311.936,,1,,,0,19,19,27,1,X,,,,,,,,,,,
,,,,,R_4fxKHePJLTb3K3b,001,2025-08-25_16h19.15.989,continuous_performance_test,2024.2.4,MacIntel,58.82352941,6abf68ff-d090-408b-a98d-cef8c5ae3f4a,6,311.938,313.686,space,1,0.331,,0,20,20,16,1,Q,space,,,,,,,,,,
,,,,,R_4fxKHePJLTb3K3b,001,2025-08-25_16h19.15.989,continuous_performance_test,2024.2.4,MacIntel,58.82352941,6abf68ff-d090-408b-a98d-cef8c5ae3f4a,6,313.688,315.686,space,1,0.281,,0,21,21,9,1,J,space,,,,,,,,,,
,,,,,R_4fxKHePJLTb3K3b,001,2025-08-25_16h19.15.989,continuous_performance_test,2024.2.4,MacIntel,58.82352941,6abf68ff-d090-408b-a98d-cef8c5ae3f4a,6,315.688,317.386,space,1,0.482,,0,22,22,10,1,K,space,,,,,,,,,,
,,,,,R_4fxKHePJLTb3K3b,001,2025-08-25_16h19.15.989,continuous_performance_test,2024.2.4,MacIntel,58.82352941,6abf68ff-d090-408b-a98d-cef8c5ae3f4a,6,317.388,319.336,space,1,0.282,,0,23,23,18,1,S,space,,,,,,,,,,
,,,,,R_4fxKHePJLTb3K3b,001,2025-08-25_16h19.15.989,continuous_performance_test,2024.2.4,MacIntel,58.82352941,6abf68ff-d090-408b-a98d-cef8c5ae3f4a,6,319.338,321.086,space,0,0.254,,0,24,24,25,1,X,,,,,,,,,,,
,,,,,R_4fxKHePJLTb3K3b,001,2025-08-25_16h19.15.989,continuous_performance_test,2024.2.4,MacIntel,58.82352941,6abf68ff-d090-408b-a98d-cef8c5ae3f4a,6,321.088,322.936,space,1,0.269,,0,25,25,7,1,H,space,,,,,,,,,,
,,,,,R_4fxKHePJLTb3K3b,001,2025-08-25_16h19.15.989,continuous_performance_test,2024.2.4,MacIntel,58.82352941,6abf68ff-d090-408b-a98d-cef8c5ae3f4a,6,322.938,324.886,space,1,0.364,,0,26,26,5,1,F,space,,,,,,,,,,
,,,,,R_4fxKHePJLTb3K3b,001,2025-08-25_16h19.15.989,continuous_performance_test,2024.2.4,MacIntel,58.82352941,6abf68ff-d090-408b-a98d-cef8c5ae3f4a,6,324.888,326.836,space,1,0.265,,0,27,27,22,1,W,space,,,,,,,,,,
,,,,,R_4fxKHePJLTb3K3b,001,2025-08-25_16h19.15.989,continuous_performance_test,2024.2.4,MacIntel,58.82352941,6abf68ff-d090-408b-a98d-cef8c5ae3f4a,6,326.838,328.786,space,1,0.365,,0,28,28,15,1,P,space,,,,,,,,,,
,,,,,R_4fxKHePJLTb3K3b,001,2025-08-25_16h19.15.989,continuous_performance_test,2024.2.4,MacIntel,58.82352941,6abf68ff-d090-408b-a98d-cef8c5ae3f4a,6,328.788,330.336,space,1,0.569,,0,29,29,17,1,R,space,,,,,,,,,,
,,,,,R_4fxKHePJLTb3K3b,001,2025-08-25_16h19.15.989,continuous_performance_test,2024.2.4,MacIntel,58.82352941,6abf68ff-d090-408b-a98d-cef8c5ae3f4a,6,341.006,342.603,space,0,0.297,,0,0,0,26,1,X,,330.338,341.002,space,10.637,,,,,,
,,,,,R_4fxKHePJLTb3K3b,001,2025-08-25_16h19.15.989,continuous_performance_test,2024.2.4,MacIntel,58.82352941,6abf68ff-d090-408b-a98d-cef8c5ae3f4a,6,342.605,344.453,space,1,0.271,,0,1,1,15,1,P,space,,,,,,,,,,
,,,,,R_4fxKHePJLTb3K3b,001,2025-08-25_16h19.15.989,continuous_performance_test,2024.2.4,MacIntel,58.82352941,6abf68ff-d090-408b-a98d-cef8c5ae3f4a,6,344.455,346.403,space,1,0.234,,0,2,2,4,1,E,space,,,,,,,,,,
,,,,,R_4fxKHePJLTb3K3b,001,2025-08-25_16h19.15.989,continuous_performance_test,2024.2.4,MacIntel,58.82352941,6abf68ff-d090-408b-a98d-cef8c5ae3f4a,6,346.404,348.203,space,1,0.25,,0,3,3,24,1,Z,space,,,,,,,,,,
,,,,,R_4fxKHePJLTb3K3b,001,2025-08-25_16h19.15.989,continuous_performance_test,2024.2.4,MacIntel,58.82352941,6abf68ff-d090-408b-a98d-cef8c5ae3f4a,6,348.205,350.053,space,1,0.135,,0,4,4,18,1,S,space,,,,,,,,,,
,,,,,R_4fxKHePJLTb3K3b,001,2025-08-25_16h19.15.989,continuous_performance_test,2024.2.4,MacIntel,58.82352941,6abf68ff-d090-408b-a98d-cef8c5ae3f4a,6,350.054,351.703,space,0,0.247,,0,5,5,29,1,X,,,,,,,,,,,
,,,,,R_4fxKHePJLTb3K3b,001,2025-08-25_16h19.15.989,continuous_performance_test,2024.2.4,MacIntel,58.82352941,6abf68ff-d090-408b-a98d-cef8c5ae3f4a,6,351.705,353.503,space,1,0.248,,0,6,6,16,1,Q,space,,,,,,,,,,
,,,,,R_4fxKHePJLTb3K3b,001,2025-08-25_16h19.15.989,continuous_performance_test,2024.2.4,MacIntel,58.82352941,6abf68ff-d090-408b-a98d-cef8c5ae3f4a,6,353.505,355.153,space,1,0.29,,0,7,7,13,1,N,space,,,,,,,,,,
,,,,,R_4fxKHePJLTb3K3b,001,2025-08-25_16h19.15.989,continuous_performance_test,2024.2.4,MacIntel,58.82352941,6abf68ff-d090-408b-a98d-cef8c5ae3f4a,6,355.155,356.953,space,1,0.474,,0,8,8,10,1,K,space,,,,,,,,,,
,,,,,R_4fxKHePJLTb3K3b,001,2025-08-25_16h19.15.989,continuous_performance_test,2024.2.4,MacIntel,58.82352941,6abf68ff-d090-408b-a98d-cef8c5ae3f4a,6,356.955,358.553,space,1,0.415,,0,9,9,17,1,R,space,,,,,,,,,,
,,,,,R_4fxKHePJLTb3K3b,001,2025-08-25_16h19.15.989,continuous_performance_test,2024.2.4,MacIntel,58.82352941,6abf68ff-d090-408b-a98d-cef8c5ae3f4a,6,358.555,360.403,space,1,0.271,,0,10,10,23,1,Y,space,,,,,,,,,,
,,,,,R_4fxKHePJLTb3K3b,001,2025-08-25_16h19.15.989,continuous_performance_test,2024.2.4,MacIntel,58.82352941,6abf68ff-d090-408b-a98d-cef8c5ae3f4a,6,360.405,362.253,space,1,0.281,,0,11,11,14,1,O,space,,,,,,,,,,
,,,,,R_4fxKHePJLTb3K3b,001,2025-08-25_16h19.15.989,continuous_performance_test,2024.2.4,MacIntel,58.82352941,6abf68ff-d090-408b-a98d-cef8c5ae3f4a,6,362.255,364.053,space,1,0.381,,0,12,12,0,1,A,space,,,,,,,,,,
,,,,,R_4fxKHePJLTb3K3b,001,2025-08-25_16h19.15.989,continuous_performance_test,2024.2.4,MacIntel,58.82352941,6abf68ff-d090-408b-a98d-cef8c5ae3f4a,6,364.055,365.703,space,1,0.331,,0,13,13,5,1,F,space,,,,,,,,,,
,,,,,R_4fxKHePJLTb3K3b,001,2025-08-25_16h19.15.989,continuous_performance_test,2024.2.4,MacIntel,58.82352941,6abf68ff-d090-408b-a98d-cef8c5ae3f4a,6,365.705,367.403,space,1,0.284,,0,14,14,21,1,V,space,,,,,,,,,,
,,,,,R_4fxKHePJLTb3K3b,001,2025-08-25_16h19.15.989,continuous_performance_test,2024.2.4,MacIntel,58.82352941,6abf68ff-d090-408b-a98d-cef8c5ae3f4a,6,367.405,369.103,space,1,0.266,,0,15,15,11,1,L,space,,,,,,,,,,
,,,,,R_4fxKHePJLTb3K3b,001,2025-08-25_16h19.15.989,continuous_performance_test,2024.2.4,MacIntel,58.82352941,6abf68ff-d090-408b-a98d-cef8c5ae3f4a,6,369.105,370.703,space,1,0.38,,0,16,16,8,1,I,space,,,,,,,,,,
,,,,,R_4fxKHePJLTb3K3b,001,2025-08-25_16h19.15.989,continuous_performance_test,2024.2.4,MacIntel,58.82352941,6abf68ff-d090-408b-a98d-cef8c5ae3f4a,6,370.705,372.703,space,1,0.29,,0,17,17,2,1,C,space,,,,,,,,,,
,,,,,R_4fxKHePJLTb3K3b,001,2025-08-25_16h19.15.989,continuous_performance_test,2024.2.4,MacIntel,58.82352941,6abf68ff-d090-408b-a98d-cef8c5ae3f4a,6,372.705,374.503,space,1,0.284,,0,18,18,20,1,U,space,,,,,,,,,,
,,,,,R_4fxKHePJLTb3K3b,001,2025-08-25_16h19.15.989,continuous_performance_test,2024.2.4,MacIntel,58.82352941,6abf68ff-d090-408b-a98d-cef8c5ae3f4a,6,374.505,376.103,space,0,0.318,,0,19,19,27,1,X,,,,,,,,,,,
,,,,,R_4fxKHePJLTb3K3b,001,2025-08-25_16h19.15.989,continuous_performance_test,2024.2.4,MacIntel,58.82352941,6abf68ff-d090-408b-a98d-cef8c5ae3f4a,6,376.105,377.803,space,1,0.3,,0,20,20,1,1,B,space,,,,,,,,,,
,,,,,R_4fxKHePJLTb3K3b,001,2025-08-25_16h19.15.989,continuous_performance_test,2024.2.4,MacIntel,58.82352941,6abf68ff-d090-408b-a98d-cef8c5ae3f4a,6,377.805,379.753,space,1,0.036,,0,21,21,9,1,J,space,,,,,,,,,,
,,,,,R_4fxKHePJLTb3K3b,001,2025-08-25_16h19.15.989,continuous_performance_test,2024.2.4,MacIntel,58.82352941,6abf68ff-d090-408b-a98d-cef8c5ae3f4a,6,379.755,381.653,space,0,0.149,,0,22,22,28,1,X,,,,,,,,,,,
,,,,,R_4fxKHePJLTb3K3b,001,2025-08-25_16h19.15.989,continuous_performance_test,2024.2.4,MacIntel,58.82352941,6abf68ff-d090-408b-a98d-cef8c5ae3f4a,6,381.655,383.453,space,1,0.282,,0,23,23,19,1,T,space,,,,,,,,,,
,,,,,R_4fxKHePJLTb3K3b,001,2025-08-25_16h19.15.989,continuous_performance_test,2024.2.4,MacIntel,58.82352941,6abf68ff-d090-408b-a98d-cef8c5ae3f4a,6,383.455,385.353,space,1,0.284,,0,24,24,12,1,M,space,,,,,,,,,,
,,,,,R_4fxKHePJLTb3K3b,001,2025-08-25_16h19.15.989,continuous_performance_test,2024.2.4,MacIntel,58.82352941,6abf68ff-d090-408b-a98d-cef8c5ae3f4a,6,385.355,387.153,space,1,0.272,,0,25,25,3,1,D,space,,,,,,,,,,
,,,,,R_4fxKHePJLTb3K3b,001,2025-08-25_16h19.15.989,continuous_performance_test,2024.2.4,MacIntel,58.82352941,6abf68ff-d090-408b-a98d-cef8c5ae3f4a,6,387.155,389.003,space,1,0.274,,0,26,26,22,1,W,space,,,,,,,,,,
,,,,,R_4fxKHePJLTb3K3b,001,2025-08-25_16h19.15.989,continuous_performance_test,2024.2.4,MacIntel,58.82352941,6abf68ff-d090-408b-a98d-cef8c5ae3f4a,6,389.006,390.703,space,1,0.299,,0,27,27,7,1,H,space,,,,,,,,,,
,,,,,R_4fxKHePJLTb3K3b,001,2025-08-25_16h19.15.989,continuous_performance_test,2024.2.4,MacIntel,58.82352941,6abf68ff-d090-408b-a98d-cef8c5ae3f4a,6,390.705,392.403,space,1,0.29,,0,28,28,6,1,G,space,,,,,,,,,,
,,,,,R_4fxKHePJLTb3K3b,001,2025-08-25_16h19.15.989,continuous_performance_test,2024.2.4,MacIntel,58.82352941,6abf68ff-d090-408b-a98d-cef8c5ae3f4a,6,392.405,394.153,,1,,,0,29,29,25,1,X,,,,,,,,,,,
,,,,,R_4fxKHePJLTb3K3b,001,2025-08-25_16h19.15.989,continuous_performance_test,2024.2.4,MacIntel,58.82352941,6abf68ff-d090-408b-a98d-cef8c5ae3f4a,6,395.179,397.17,space,1,0.318,,0,0,0,3,1,D,space,394.155,395.17,space,0.988,,,,,,
,,,,,R_4fxKHePJLTb3K3b,001,2025-08-25_16h19.15.989,continuous_performance_test,2024.2.4,MacIntel,58.82352941,6abf68ff-d090-408b-a98d-cef8c5ae3f4a,6,397.172,399.02,space,1,0.267,,0,1,1,6,1,G,space,,,,,,,,,,
,,,,,R_4fxKHePJLTb3K3b,001,2025-08-25_16h19.15.989,continuous_performance_test,2024.2.4,MacIntel,58.82352941,6abf68ff-d090-408b-a98d-cef8c5ae3f4a,6,399.021,400.819,space,1,0.265,,0,2,2,7,1,H,space,,,,,,,,,,
,,,,,R_4fxKHePJLTb3K3b,001,2025-08-25_16h19.15.989,continuous_performance_test,2024.2.4,MacIntel,58.82352941,6abf68ff-d090-408b-a98d-cef8c5ae3f4a,6,400.821,402.77,space,1,0.268,,0,3,3,1,1,B,space,,,,,,,,,,
,,,,,R_4fxKHePJLTb3K3b,001,2025-08-25_16h19.15.989,continuous_performance_test,2024.2.4,MacIntel,58.82352941,6abf68ff-d090-408b-a98d-cef8c5ae3f4a,6,402.772,404.37,space,1,0.348,,0,4,4,20,1,U,space,,,,,,,,,,
,,,,,R_4fxKHePJLTb3K3b,001,2025-08-25_16h19.15.989,continuous_performance_test,2024.2.4,MacIntel,58.82352941,6abf68ff-d090-408b-a98d-cef8c5ae3f4a,6,404.372,406.02,space,1,0.282,,0,5,5,19,1,T,space,,,,,,,,,,
,,,,,R_4fxKHePJLTb3K3b,001,2025-08-25_16h19.15.989,continuous_performance_test,2024.2.4,MacIntel,58.82352941,6abf68ff-d090-408b-a98d-cef8c5ae3f4a,6,406.021,407.969,space,1,0.262,,0,6,6,14,1,O,space,,,,,,,,,,
,,,,,R_4fxKHePJLTb3K3b,001,2025-08-25_16h19.15.989,continuous_performance_test,2024.2.4,MacIntel,58.82352941,6abf68ff-d090-408b-a98d-cef8c5ae3f4a,6,407.971,409.52,space,1,0.267,,0,7,7,4,1,E,space,,,,,,,,,,
,,,,,R_4fxKHePJLTb3K3b,001,2025-08-25_16h19.15.989,continuous_performance_test,2024.2.4,MacIntel,58.82352941,6abf68ff-d090-408b-a98d-cef8c5ae3f4a,6,409.522,411.27,space,0,0.265,,0,8,8,27,1,X,,,,,,,,,,,
,,,,,R_4fxKHePJLTb3K3b,001,2025-08-25_16h19.15.989,continuous_performance_test,2024.2.4,MacIntel,58.82352941,6abf68ff-d090-408b-a98d-cef8c5ae3f4a,6,411.272,412.919,space,1,0.281,,0,9,9,23,1,Y,space,,,,,,,,,,
,,,,,R_4fxKHePJLTb3K3b,001,2025-08-25_16h19.15.989,continuous_performance_test,2024.2.4,MacIntel,58.82352941,6abf68ff-d090-408b-a98d-cef8c5ae3f4a,6,412.921,414.77,space,1,0.323,,0,10,10,5,1,F,space,,,,,,,,,,
,,,,,R_4fxKHePJLTb3K3b,001,2025-08-25_16h19.15.989,continuous_performance_test,2024.2.4,MacIntel,58.82352941,6abf68ff-d090-408b-a98d-cef8c5ae3f4a,6,414.771,416.719,space,1,0.303,,0,11,11,17,1,R,space,,,,,,,,,,
,,,,,R_4fxKHePJLTb3K3b,001,2025-08-25_16h19.15.989,continuous_performance_test,2024.2.4,MacIntel,58.82352941,6abf68ff-d090-408b-a98d-cef8c5ae3f4a,6,416.721,418.62,space,1,0.289,,0,12,12,9,1,J,space,,,,,,,,,,
,,,,,R_4fxKHePJLTb3K3b,001,2025-08-25_16h19.15.989,continuous_performance_test,2024.2.4,MacIntel,58.82352941,6abf68ff-d090-408b-a98d-cef8c5ae3f4a,6,418.622,420.52,space,1,0.264,,0,13,13,18,1,S,space,,,,,,,,,,
,,,,,R_4fxKHePJLTb3K3b,001,2025-08-25_16h19.15.989,continuous_performance_test,2024.2.4,MacIntel,58.82352941,6abf68ff-d090-408b-a98d-cef8c5ae3f4a,6,420.522,422.07,space,1,0.306,,0,14,14,15,1,P,space,,,,,,,,,,
,,,,,R_4fxKHePJLTb3K3b,001,2025-08-25_16h19.15.989,continuous_performance_test,2024.2.4,MacIntel,58.82352941,6abf68ff-d090-408b-a98d-cef8c5ae3f4a,6,422.071,423.67,space,0,0.281,,0,15,15,25,1,X,,,,,,,,,,,
,,,,,R_4fxKHePJLTb3K3b,001,2025-08-25_16h19.15.989,continuous_performance_test,2024.2.4,MacIntel,58.82352941,6abf68ff-d090-408b-a98d-cef8c5ae3f4a,6,423.672,425.32,space,1,0.266,,0,16,16,12,1,M,space,,,,,,,,,,
,,,,,R_4fxKHePJLTb3K3b,001,2025-08-25_16h19.15.989,continuous_performance_test,2024.2.4,MacIntel,58.82352941,6abf68ff-d090-408b-a98d-cef8c5ae3f4a,6,425.322,427.12,space,1,0.365,,0,17,17,24,1,Z,space,,,,,,,,,,
,,,,,R_4fxKHePJLTb3K3b,001,2025-08-25_16h19.15.989,continuous_performance_test,2024.2.4,MacIntel,58.82352941,6abf68ff-d090-408b-a98d-cef8c5ae3f4a,6,427.121,428.72,,1,,,0,18,18,29,1,X,,,,,,,,,,,
,,,,,R_4fxKHePJLTb3K3b,001,2025-08-25_16h19.15.989,continuous_performance_test,2024.2.4,MacIntel,58.82352941,6abf68ff-d090-408b-a98d-cef8c5ae3f4a,6,428.722,430.67,space,1,0.317,,0,19,19,16,1,Q,space,,,,,,,,,,
,,,,,R_4fxKHePJLTb3K3b,001,2025-08-25_16h19.15.989,continuous_performance_test,2024.2.4,MacIntel,58.82352941,6abf68ff-d090-408b-a98d-cef8c5ae3f4a,6,430.672,432.62,,1,,,0,20,20,26,1,X,,,,,,,,,,,
,,,,,R_4fxKHePJLTb3K3b,001,2025-08-25_16h19.15.989,continuous_performance_test,2024.2.4,MacIntel,58.82352941,6abf68ff-d090-408b-a98d-cef8c5ae3f4a,6,432.622,434.27,space,1,0.352,,0,21,21,13,1,N,space,,,,,,,,,,
,,,,,R_4fxKHePJLTb3K3b,001,2025-08-25_16h19.15.989,continuous_performance_test,2024.2.4,MacIntel,58.82352941,6abf68ff-d090-408b-a98d-cef8c5ae3f4a,6,434.272,436.17,space,1,0.365,,0,22,22,22,1,W,space,,,,,,,,,,
,,,,,R_4fxKHePJLTb3K3b,001,2025-08-25_16h19.15.989,continuous_performance_test,2024.2.4,MacIntel,58.82352941,6abf68ff-d090-408b-a98d-cef8c5ae3f4a,6,436.172,437.87,space,1,0.32,,0,23,23,0,1,A,space,,,,,,,,,,
,,,,,R_4fxKHePJLTb3K3b,001,2025-08-25_16h19.15.989,continuous_performance_test,2024.2.4,MacIntel,58.82352941,6abf68ff-d090-408b-a98d-cef8c5ae3f4a,6,437.872,439.42,space,1,0.332,,0,24,24,10,1,K,space,,,,,,,,,,
,,,,,R_4fxKHePJLTb3K3b,001,2025-08-25_16h19.15.989,continuous_performance_test,2024.2.4,MacIntel,58.82352941,6abf68ff-d090-408b-a98d-cef8c5ae3f4a,6,439.421,440.97,space,1,0.432,,0,25,25,11,1,L,space,,,,,,,,,,
,,,,,R_4fxKHePJLTb3K3b,001,2025-08-25_16h19.15.989,continuous_performance_test,2024.2.4,MacIntel,58.82352941,6abf68ff-d090-408b-a98d-cef8c5ae3f4a,6,440.972,442.87,space,1,0.566,,0,26,26,21,1,V,space,,,,,,,,,,
,,,,,R_4fxKHePJLTb3K3b,001,2025-08-25_16h19.15.989,continuous_performance_test,2024.2.4,MacIntel,58.82352941,6abf68ff-d090-408b-a98d-cef8c5ae3f4a,6,442.872,444.82,,1,,,0,27,27,28,1,X,,,,,,,,,,,
,,,,,R_4fxKHePJLTb3K3b,001,2025-08-25_16h19.15.989,continuous_performance_test,2024.2.4,MacIntel,58.82352941,6abf68ff-d090-408b-a98d-cef8c5ae3f4a,6,444.822,446.77,space,1,0.349,,0,28,28,8,1,I,space,,,,,,,,,,
,,,,,R_4fxKHePJLTb3K3b,001,2025-08-25_16h19.15.989,continuous_performance_test,2024.2.4,MacIntel,58.82352941,6abf68ff-d090-408b-a98d-cef8c5ae3f4a,6,446.772,448.32,space,1,0.438,,0,29,29,2,1,C,space,,,,,,,,,,
,,,,,R_4fxKHePJLTb3K3b,001,2025-08-25_16h19.15.989,continuous_performance_test,2024.2.4,MacIntel,58.82352941,6abf68ff-d090-408b-a98d-cef8c5ae3f4a,6,508.889,510.787,,0,,,0,0,0,5,1,F,space,448.322,508.884,,,,,,,,
,,,,,R_4fxKHePJLTb3K3b,001,2025-08-25_16h19.15.989,continuous_performance_test,2024.2.4,MacIntel,58.82352941,6abf68ff-d090-408b-a98d-cef8c5ae3f4a,6,510.789,512.787,space,0,0.217,,0,1,1,27,1,X,,,,,,,,,,,
,,,,,R_4fxKHePJLTb3K3b,001,2025-08-25_16h19.15.989,continuous_performance_test,2024.2.4,MacIntel,58.82352941,6abf68ff-d090-408b-a98d-cef8c5ae3f4a,6,512.788,514.487,space,1,0.332,,0,2,2,3,1,D,space,,,,,,,,,,
,,,,,R_4fxKHePJLTb3K3b,001,2025-08-25_16h19.15.989,continuous_performance_test,2024.2.4,MacIntel,58.82352941,6abf68ff-d090-408b-a98d-cef8c5ae3f4a,6,514.488,516.486,space,1,0.282,,0,3,3,19,1,T,space,,,,,,,,,,
,,,,,R_4fxKHePJLTb3K3b,001,2025-08-25_16h19.15.989,continuous_performance_test,2024.2.4,MacIntel,58.82352941,6abf68ff-d090-408b-a98d-cef8c5ae3f4a,6,516.489,518.237,space,1,0.305,,0,4,4,15,1,P,space,,,,,,,,,,
,,,,,R_4fxKHePJLTb3K3b,001,2025-08-25_16h19.15.989,continuous_performance_test,2024.2.4,MacIntel,58.82352941,6abf68ff-d090-408b-a98d-cef8c5ae3f4a,6,518.239,520.237,space,1,0.237,,0,5,5,21,1,V,space,,,,,,,,,,
,,,,,R_4fxKHePJLTb3K3b,001,2025-08-25_16h19.15.989,continuous_performance_test,2024.2.4,MacIntel,58.82352941,6abf68ff-d090-408b-a98d-cef8c5ae3f4a,6,520.238,522.136,space,1,0.282,,0,6,6,20,1,U,space,,,,,,,,,,
,,,,,R_4fxKHePJLTb3K3b,001,2025-08-25_16h19.15.989,continuous_performance_test,2024.2.4,MacIntel,58.82352941,6abf68ff-d090-408b-a98d-cef8c5ae3f4a,6,522.138,523.837,space,1,0.264,,0,7,7,0,1,A,space,,,,,,,,,,
,,,,,R_4fxKHePJLTb3K3b,001,2025-08-25_16h19.15.989,continuous_performance_test,2024.2.4,MacIntel,58.82352941,6abf68ff-d090-408b-a98d-cef8c5ae3f4a,6,523.838,525.837,space,0,0.27,,0,8,8,26,1,X,,,,,,,,,,,
,,,,,R_4fxKHePJLTb3K3b,001,2025-08-25_16h19.15.989,continuous_performance_test,2024.2.4,MacIntel,58.82352941,6abf68ff-d090-408b-a98d-cef8c5ae3f4a,6,525.838,527.436,space,1,0.23,,0,9,9,11,1,L,space,,,,,,,,,,
,,,,,R_4fxKHePJLTb3K3b,001,2025-08-25_16h19.15.989,continuous_performance_test,2024.2.4,MacIntel,58.82352941,6abf68ff-d090-408b-a98d-cef8c5ae3f4a,6,527.438,529.187,space,1,0.291,,0,10,10,14,1,O,space,,,,,,,,,,
,,,,,R_4fxKHePJLTb3K3b,001,2025-08-25_16h19.15.989,continuous_performance_test,2024.2.4,MacIntel,58.82352941,6abf68ff-d090-408b-a98d-cef8c5ae3f4a,6,529.189,530.987,space,1,0.233,,0,11,11,23,1,Y,space,,,,,,,,,,
,,,,,R_4fxKHePJLTb3K3b,001,2025-08-25_16h19.15.989,continuous_performance_test,2024.2.4,MacIntel,58.82352941,6abf68ff-d090-408b-a98d-cef8c5ae3f4a,6,530.988,532.637,space,1,0.251,,0,12,12,9,1,J,space,,,,,,,,,,
,,,,,R_4fxKHePJLTb3K3b,001,2025-08-25_16h19.15.989,continuous_performance_test,2024.2.4,MacIntel,58.82352941,6abf68ff-d090-408b-a98d-cef8c5ae3f4a,6,532.639,534.186,space,1,0.263,,0,13,13,12,1,M,space,,,,,,,,,,
,,,,,R_4fxKHePJLTb3K3b,001,2025-08-25_16h19.15.989,continuous_performance_test,2024.2.4,MacIntel,58.82352941,6abf68ff-d090-408b-a98d-cef8c5ae3f4a,6,534.188,536.037,space,1,0.281,,0,14,14,17,1,R,space,,,,,,,,,,
,,,,,R_4fxKHePJLTb3K3b,001,2025-08-25_16h19.15.989,continuous_performance_test,2024.2.4,MacIntel,58.82352941,6abf68ff-d090-408b-a98d-cef8c5ae3f4a,6,536.038,537.637,space,1,0.33,,0,15,15,2,1,C,space,,,,,,,,,,
,,,,,R_4fxKHePJLTb3K3b,001,2025-08-25_16h19.15.989,continuous_performance_test,2024.2.4,MacIntel,58.82352941,6abf68ff-d090-408b-a98d-cef8c5ae3f4a,6,537.638,539.337,,1,,,0,16,16,28,1,X,,,,,,,,,,,
,,,,,R_4fxKHePJLTb3K3b,001,2025-08-25_16h19.15.989,continuous_performance_test,2024.2.4,MacIntel,58.82352941,6abf68ff-d090-408b-a98d-cef8c5ae3f4a,6,539.339,540.887,space,1,0.282,,0,17,17,1,1,B,space,,,,,,,,,,
,,,,,R_4fxKHePJLTb3K3b,001,2025-08-25_16h19.15.989,continuous_performance_test,2024.2.4,MacIntel,58.82352941,6abf68ff-d090-408b-a98d-cef8c5ae3f4a,6,540.889,542.787,space,1,0.281,,0,18,18,16,1,Q,space,,,,,,,,,,
,,,,,R_4fxKHePJLTb3K3b,001,2025-08-25_16h19.15.989,continuous_performance_test,2024.2.4,MacIntel,58.82352941,6abf68ff-d090-408b-a98d-cef8c5ae3f4a,6,542.789,544.537,space,1,0.331,,0,19,19,4,1,E,space,,,,,,,,,,
,,,,,R_4fxKHePJLTb3K3b,001,2025-08-25_16h19.15.989,continuous_performance_test,2024.2.4,MacIntel,58.82352941,6abf68ff-d090-408b-a98d-cef8c5ae3f4a,6,544.539,546.387,space,1,0.33,,0,20,20,22,1,W,space,,,,,,,,,,
,,,,,R_4fxKHePJLTb3K3b,001,2025-08-25_16h19.15.989,continuous_performance_test,2024.2.4,MacIntel,58.82352941,6abf68ff-d090-408b-a98d-cef8c5ae3f4a,6,546.388,548.187,space,1,0.252,,0,21,21,6,1,G,space,,,,,,,,,,
,,,,,R_4fxKHePJLTb3K3b,001,2025-08-25_16h19.15.989,continuous_performance_test,2024.2.4,MacIntel,58.82352941,6abf68ff-d090-408b-a98d-cef8c5ae3f4a,6,548.189,550.087,space,1,0.264,,0,22,22,24,1,Z,space,,,,,,,,,,
,,,,,R_4fxKHePJLTb3K3b,001,2025-08-25_16h19.15.989,continuous_performance_test,2024.2.4,MacIntel,58.82352941,6abf68ff-d090-408b-a98d-cef8c5ae3f4a,6,550.089,551.637,space,1,0.348,,0,23,23,18,1,S,space,,,,,,,,,,
,,,,,R_4fxKHePJLTb3K3b,001,2025-08-25_16h19.15.989,continuous_performance_test,2024.2.4,MacIntel,58.82352941,6abf68ff-d090-408b-a98d-cef8c5ae3f4a,6,551.638,553.187,space,1,0.288,,0,24,24,8,1,I,space,,,,,,,,,,
,,,,,R_4fxKHePJLTb3K3b,001,2025-08-25_16h19.15.989,continuous_performance_test,2024.2.4,MacIntel,58.82352941,6abf68ff-d090-408b-a98d-cef8c5ae3f4a,6,553.189,554.936,,1,,,0,25,25,29,1,X,,,,,,,,,,,
,,,,,R_4fxKHePJLTb3K3b,001,2025-08-25_16h19.15.989,continuous_performance_test,2024.2.4,MacIntel,58.82352941,6abf68ff-d090-408b-a98d-cef8c5ae3f4a,6,554.938,556.587,space,1,0.537,,0,26,26,13,1,N,space,,,,,,,,,,
,,,,,R_4fxKHePJLTb3K3b,001,2025-08-25_16h19.15.989,continuous_performance_test,2024.2.4,MacIntel,58.82352941,6abf68ff-d090-408b-a98d-cef8c5ae3f4a,6,556.588,558.386,space,1,0.333,,0,27,27,7,1,H,space,,,,,,,,,,
,,,,,R_4fxKHePJLTb3K3b,001,2025-08-25_16h19.15.989,continuous_performance_test,2024.2.4,MacIntel,58.82352941,6abf68ff-d090-408b-a98d-cef8c5ae3f4a,6,558.388,560.087,,1,,,0,28,28,25,1,X,,,,,,,,,,,
,,,,,R_4fxKHePJLTb3K3b,001,2025-08-25_16h19.15.989,continuous_performance_test,2024.2.4,MacIntel,58.82352941,6abf68ff-d090-408b-a98d-cef8c5ae3f4a,6,560.089,561.987,space,1,0.281,,0,29,29,10,1,K,space,,,,,,,,,,
,,,,,R_4fxKHePJLTb3K3b,001,2025-08-25_16h19.15.989,continuous_performance_test,2024.2.4,MacIntel,58.82352941,6abf68ff-d090-408b-a98d-cef8c5ae3f4a,6,605.729,607.37,,0,,,0,0,0,18,1,S,space,561.989,605.725,,,,,,,,
,,,,,R_4fxKHePJLTb3K3b,001,2025-08-25_16h19.15.989,continuous_performance_test,2024.2.4,MacIntel,58.82352941,6abf68ff-d090-408b-a98d-cef8c5ae3f4a,6,607.372,609.02,space,1,0.233,,0,1,1,21,1,V,space,,,,,,,,,,
,,,,,R_4fxKHePJLTb3K3b,001,2025-08-25_16h19.15.989,continuous_performance_test,2024.2.4,MacIntel,58.82352941,6abf68ff-d090-408b-a98d-cef8c5ae3f4a,6,609.022,610.57,space,0,0.265,,0,2,2,28,1,X,,,,,,,,,,,
,,,,,R_4fxKHePJLTb3K3b,001,2025-08-25_16h19.15.989,continuous_performance_test,2024.2.4,MacIntel,58.82352941,6abf68ff-d090-408b-a98d-cef8c5ae3f4a,6,610.572,612.17,space,1,0.298,,0,3,3,24,1,Z,space,,,,,,,,,,
,,,,,R_4fxKHePJLTb3K3b,001,2025-08-25_16h19.15.989,continuous_performance_test,2024.2.4,MacIntel,58.82352941,6abf68ff-d090-408b-a98d-cef8c5ae3f4a,6,612.171,613.97,space,0,0.273,,0,4,4,29,1,X,,,,,,,,,,,
,,,,,R_4fxKHePJLTb3K3b,001,2025-08-25_16h19.15.989,continuous_performance_test,2024.2.4,MacIntel,58.82352941,6abf68ff-d090-408b-a98d-cef8c5ae3f4a,6,613.972,615.67,space,1,0.29,,0,5,5,20,1,U,space,,,,,,,,,,
,,,,,R_4fxKHePJLTb3K3b,001,2025-08-25_16h19.15.989,continuous_performance_test,2024.2.4,MacIntel,58.82352941,6abf68ff-d090-408b-a98d-cef8c5ae3f4a,6,615.672,617.32,space,1,0.497,,0,6,6,6,1,G,space,,,,,,,,,,
,,,,,R_4fxKHePJLTb3K3b,001,2025-08-25_16h19.15.989,continuous_performance_test,2024.2.4,MacIntel,58.82352941,6abf68ff-d090-408b-a98d-cef8c5ae3f4a,6,617.322,619.02,space,1,0.365,,0,7,7,0,1,A,space,,,,,,,,,,
,,,,,R_4fxKHePJLTb3K3b,001,2025-08-25_16h19.15.989,continuous_performance_test,2024.2.4,MacIntel,58.82352941,6abf68ff-d090-408b-a98d-cef8c5ae3f4a,6,619.022,620.87,space,1,0.432,,0,8,8,14,1,O,space,,,,,,,,,,
,,,,,R_4fxKHePJLTb3K3b,001,2025-08-25_16h19.15.989,continuous_performance_test,2024.2.4,MacIntel,58.82352941,6abf68ff-d090-408b-a98d-cef8c5ae3f4a,6,620.872,622.67,space,1,0.357,,0,9,9,16,1,Q,space,,,,,,,,,,
,,,,,R_4fxKHePJLTb3K3b,001,2025-08-25_16h19.15.989,continuous_performance_test,2024.2.4,MacIntel,58.82352941,6abf68ff-d090-408b-a98d-cef8c5ae3f4a,6,622.672,624.52,space,1,0.281,,0,10,10,8,1,I,space,,,,,,,,,,
,,,,,R_4fxKHePJLTb3K3b,001,2025-08-25_16h19.15.989,continuous_performance_test,2024.2.4,MacIntel,58.82352941,6abf68ff-d090-408b-a98d-cef8c5ae3f4a,6,624.522,626.07,space,0,0.287,,0,11,11,26,1,X,,,,,,,,,,,
,,,,,R_4fxKHePJLTb3K3b,001,2025-08-25_16h19.15.989,continuous_performance_test,2024.2.4,MacIntel,58.82352941,6abf68ff-d090-408b-a98d-cef8c5ae3f4a,6,626.071,628.07,space,1,0.283,,0,12,12,15,1,P,space,,,,,,,,,,
,,,,,R_4fxKHePJLTb3K3b,001,2025-08-25_16h19.15.989,continuous_performance_test,2024.2.4,MacIntel,58.82352941,6abf68ff-d090-408b-a98d-cef8c5ae3f4a,6,628.072,629.82,space,1,0.351,,0,13,13,10,1,K,space,,,,,,,,,,
,,,,,R_4fxKHePJLTb3K3b,001,2025-08-25_16h19.15.989,continuous_performance_test,2024.2.4,MacIntel,58.82352941,6abf68ff-d090-408b-a98d-cef8c5ae3f4a,6,629.822,631.72,space,1,0.314,,0,14,14,17,1,R,space,,,,,,,,,,
,,,,,R_4fxKHePJLTb3K3b,001,2025-08-25_16h19.15.989,continuous_performance_test,2024.2.4,MacIntel,58.82352941,6abf68ff-d090-408b-a98d-cef8c5ae3f4a,6,631.722,633.62,space,1,0.289,,0,15,15,9,1,J,space,,,,,,,,,,
,,,,,R_4fxKHePJLTb3K3b,001,2025-08-25_16h19.15.989,continuous_performance_test,2024.2.4,MacIntel,58.82352941,6abf68ff-d090-408b-a98d-cef8c5ae3f4a,6,633.622,635.17,space,1,0.315,,0,16,16,5,1,F,space,,,,,,,,,,
,,,,,R_4fxKHePJLTb3K3b,001,2025-08-25_16h19.15.989,continuous_performance_test,2024.2.4,MacIntel,58.82352941,6abf68ff-d090-408b-a98d-cef8c5ae3f4a,6,635.172,637.12,space,1,0.269,,0,17,17,22,1,W,space,,,,,,,,,,
,,,,,R_4fxKHePJLTb3K3b,001,2025-08-25_16h19.15.989,continuous_performance_test,2024.2.4,MacIntel,58.82352941,6abf68ff-d090-408b-a98d-cef8c5ae3f4a,6,637.122,638.67,space,1,0.347,,0,18,18,1,1,B,space,,,,,,,,,,
,,,,,R_4fxKHePJLTb3K3b,001,2025-08-25_16h19.15.989,continuous_performance_test,2024.2.4,MacIntel,58.82352941,6abf68ff-d090-408b-a98d-cef8c5ae3f4a,6,638.672,640.27,space,1,0.29,,0,19,19,13,1,N,space,,,,,,,,,,
,,,,,R_4fxKHePJLTb3K3b,001,2025-08-25_16h19.15.989,continuous_performance_test,2024.2.4,MacIntel,58.82352941,6abf68ff-d090-408b-a98d-cef8c5ae3f4a,6,640.272,641.92,space,1,0.297,,0,20,20,2,1,C,space,,,,,,,,,,
,,,,,R_4fxKHePJLTb3K3b,001,2025-08-25_16h19.15.989,continuous_performance_test,2024.2.4,MacIntel,58.82352941,6abf68ff-d090-408b-a98d-cef8c5ae3f4a,6,641.922,643.519,space,1,0.314,,0,21,21,19,1,T,space,,,,,,,,,,
,,,,,R_4fxKHePJLTb3K3b,001,2025-08-25_16h19.15.989,continuous_performance_test,2024.2.4,MacIntel,58.82352941,6abf68ff-d090-408b-a98d-cef8c5ae3f4a,6,643.521,645.22,space,1,0.269,,0,22,22,12,1,M,space,,,,,,,,,,
,,,,,R_4fxKHePJLTb3K3b,001,2025-08-25_16h19.15.989,continuous_performance_test,2024.2.4,MacIntel,58.82352941,6abf68ff-d090-408b-a98d-cef8c5ae3f4a,6,645.222,646.97,space,1,0.298,,0,23,23,23,1,Y,space,,,,,,,,,,
,,,,,R_4fxKHePJLTb3K3b,001,2025-08-25_16h19.15.989,continuous_performance_test,2024.2.4,MacIntel,58.82352941,6abf68ff-d090-408b-a98d-cef8c5ae3f4a,6,646.971,648.92,space,1,0.265,,0,24,24,4,1,E,space,,,,,,,,,,
,,,,,R_4fxKHePJLTb3K3b,001,2025-08-25_16h19.15.989,continuous_performance_test,2024.2.4,MacIntel,58.82352941,6abf68ff-d090-408b-a98d-cef8c5ae3f4a,6,648.922,650.72,space,1,0.289,,0,25,25,7,1,H,space,,,,,,,,,,
,,,,,R_4fxKHePJLTb3K3b,001,2025-08-25_16h19.15.989,continuous_performance_test,2024.2.4,MacIntel,58.82352941,6abf68ff-d090-408b-a98d-cef8c5ae3f4a,6,650.722,652.37,,1,,,0,26,26,27,1,X,,,,,,,,,,,
,,,,,R_4fxKHePJLTb3K3b,001,2025-08-25_16h19.15.989,continuous_performance_test,2024.2.4,MacIntel,58.82352941,6abf68ff-d090-408b-a98d-cef8c5ae3f4a,6,652.372,654.37,space,1,0.257,,0,27,27,3,1,D,space,,,,,,,,,,
,,,,,R_4fxKHePJLTb3K3b,001,2025-08-25_16h19.15.989,continuous_performance_test,2024.2.4,MacIntel,58.82352941,6abf68ff-d090-408b-a98d-cef8c5ae3f4a,6,654.371,655.92,space,1,0.434,,0,28,28,11,1,L,space,,,,,,,,,,
,,,,,R_4fxKHePJLTb3K3b,001,2025-08-25_16h19.15.989,continuous_performance_test,2024.2.4,MacIntel,58.82352941,6abf68ff-d090-408b-a98d-cef8c5ae3f4a,6,655.922,657.62,,1,,,0,29,29,25,1,X,,,,,,,,,,,
,,,,,R_4fxKHePJLTb3K3b,001,2025-08-25_16h19.15.989,continuous_performance_test,2024.2.4,MacIntel,58.82352941,6abf68ff-d090-408b-a98d-cef8c5ae3f4a,6,668.341,686.187,,0,,,0,0,0,5,1,F,space,657.622,668.337,,,,,,,,
,,,,,R_4fxKHePJLTb3K3b,001,2025-08-25_16h19.15.989,continuous_performance_test,2024.2.4,MacIntel,58.82352941,6abf68ff-d090-408b-a98d-cef8c5ae3f4a,6,686.187,688.087,,0,,,0,1,1,22,1,W,space,,,,,,,,,,
,,,,,R_4fxKHePJLTb3K3b,001,2025-08-25_16h19.15.989,continuous_performance_test,2024.2.4,MacIntel,58.82352941,6abf68ff-d090-408b-a98d-cef8c5ae3f4a,6,688.089,689.937,space,1,0.271,,0,2,2,1,1,B,space,,,,,,,,,,
,,,,,R_4fxKHePJLTb3K3b,001,2025-08-25_16h19.15.989,continuous_performance_test,2024.2.4,MacIntel,58.82352941,6abf68ff-d090-408b-a98d-cef8c5ae3f4a,6,689.939,691.887,space,1,0.365,,0,3,3,19,1,T,space,,,,,,,,,,
,,,,,R_4fxKHePJLTb3K3b,001,2025-08-25_16h19.15.989,continuous_performance_test,2024.2.4,MacIntel,58.82352941,6abf68ff-d090-408b-a98d-cef8c5ae3f4a,6,691.889,693.787,space,1,0.349,,0,4,4,23,1,Y,space,,,,,,,,,,
,,,,,R_4fxKHePJLTb3K3b,001,2025-08-25_16h19.15.989,continuous_performance_test,2024.2.4,MacIntel,58.82352941,6abf68ff-d090-408b-a98d-cef8c5ae3f4a,6,693.789,695.337,space,1,0.447,,0,5,5,4,1,E,space,,,,,,,,,,
,,,,,R_4fxKHePJLTb3K3b,001,2025-08-25_16h19.15.989,continuous_performance_test,2024.2.4,MacIntel,58.82352941,6abf68ff-d090-408b-a98d-cef8c5ae3f4a,6,695.339,697.037,space,1,0.299,,0,6,6,18,1,S,space,,,,,,,,,,
,,,,,R_4fxKHePJLTb3K3b,001,2025-08-25_16h19.15.989,continuous_performance_test,2024.2.4,MacIntel,58.82352941,6abf68ff-d090-408b-a98d-cef8c5ae3f4a,6,697.039,698.937,space,1,0.266,,0,7,7,8,1,I,space,,,,,,,,,,
,,,,,R_4fxKHePJLTb3K3b,001,2025-08-25_16h19.15.989,continuous_performance_test,2024.2.4,MacIntel,58.82352941,6abf68ff-d090-408b-a98d-cef8c5ae3f4a,6,698.939,700.887,space,1,0.273,,0,8,8,13,1,N,space,,,,,,,,,,
,,,,,R_4fxKHePJLTb3K3b,001,2025-08-25_16h19.15.989,continuous_performance_test,2024.2.4,MacIntel,58.82352941,6abf68ff-d090-408b-a98d-cef8c5ae3f4a,6,700.889,702.487,space,0,0.332,,0,9,9,26,1,X,,,,,,,,,,,
,,,,,R_4fxKHePJLTb3K3b,001,2025-08-25_16h19.15.989,continuous_performance_test,2024.2.4,MacIntel,58.82352941,6abf68ff-d090-408b-a98d-cef8c5ae3f4a,6,702.489,704.287,space,1,0.338,,0,10,10,21,1,V,space,,,,,,,,,,
,,,,,R_4fxKHePJLTb3K3b,001,2025-08-25_16h19.15.989,continuous_performance_test,2024.2.4,MacIntel,58.82352941,6abf68ff-d090-408b-a98d-cef8c5ae3f4a,6,704.289,706.087,space,1,0.372,,0,11,11,6,1,G,space,,,,,,,,,,
,,,,,R_4fxKHePJLTb3K3b,001,2025-08-25_16h19.15.989,continuous_performance_test,2024.2.4,MacIntel,58.82352941,6abf68ff-d090-408b-a98d-cef8c5ae3f4a,6,706.089,707.837,space,1,0.348,,0,12,12,3,1,D,space,,,,,,,,,,
,,,,,R_4fxKHePJLTb3K3b,001,2025-08-25_16h19.15.989,continuous_performance_test,2024.2.4,MacIntel,58.82352941,6abf68ff-d090-408b-a98d-cef8c5ae3f4a,6,707.839,709.687,space,1,0.32,,0,13,13,12,1,M,space,,,,,,,,,,
,,,,,R_4fxKHePJLTb3K3b,001,2025-08-25_16h19.15.989,continuous_performance_test,2024.2.4,MacIntel,58.82352941,6abf68ff-d090-408b-a98d-cef8c5ae3f4a,6,709.689,711.287,space,1,0.334,,0,14,14,2,1,C,space,,,,,,,,,,
,,,,,R_4fxKHePJLTb3K3b,001,2025-08-25_16h19.15.989,continuous_performance_test,2024.2.4,MacIntel,58.82352941,6abf68ff-d090-408b-a98d-cef8c5ae3f4a,6,711.288,713.287,space,1,0.285,,0,15,15,20,1,U,space,,,,,,,,,,
,,,,,R_4fxKHePJLTb3K3b,001,2025-08-25_16h19.15.989,continuous_performance_test,2024.2.4,MacIntel,58.82352941,6abf68ff-d090-408b-a98d-cef8c5ae3f4a,6,713.289,714.837,,1,,,0,16,16,28,1,X,,,,,,,,,,,
,,,,,R_4fxKHePJLTb3K3b,001,2025-08-25_16h19.15.989,continuous_performance_test,2024.2.4,MacIntel,58.82352941,6abf68ff-d090-408b-a98d-cef8c5ae3f4a,6,714.838,716.687,,1,,,0,17,17,29,1,X,,,,,,,,,,,
,,,,,R_4fxKHePJLTb3K3b,001,2025-08-25_16h19.15.989,continuous_performance_test,2024.2.4,MacIntel,58.82352941,6abf68ff-d090-408b-a98d-cef8c5ae3f4a,6,716.689,718.687,,1,,,0,18,18,25,1,X,,,,,,,,,,,
,,,,,R_4fxKHePJLTb3K3b,001,2025-08-25_16h19.15.989,continuous_performance_test,2024.2.4,MacIntel,58.82352941,6abf68ff-d090-408b-a98d-cef8c5ae3f4a,6,718.689,720.237,space,1,0.432,,0,19,19,11,1,L,space,,,,,,,,,,
,,,,,R_4fxKHePJLTb3K3b,001,2025-08-25_16h19.15.989,continuous_performance_test,2024.2.4,MacIntel,58.82352941,6abf68ff-d090-408b-a98d-cef8c5ae3f4a,6,720.238,722.037,space,1,0.365,,0,20,20,14,1,O,space,,,,,,,,,,
,,,,,R_4fxKHePJLTb3K3b,001,2025-08-25_16h19.15.989,continuous_performance_test,2024.2.4,MacIntel,58.82352941,6abf68ff-d090-408b-a98d-cef8c5ae3f4a,6,722.039,723.637,space,1,0.349,,0,21,21,0,1,A,space,,,,,,,,,,
,,,,,R_4fxKHePJLTb3K3b,001,2025-08-25_16h19.15.989,continuous_performance_test,2024.2.4,MacIntel,58.82352941,6abf68ff-d090-408b-a98d-cef8c5ae3f4a,6,723.639,725.387,space,1,0.315,,0,22,22,15,1,P,space,,,,,,,,,,
,,,,,R_4fxKHePJLTb3K3b,001,2025-08-25_16h19.15.989,continuous_performance_test,2024.2.4,MacIntel,58.82352941,6abf68ff-d090-408b-a98d-cef8c5ae3f4a,6,725.389,727.387,space,1,0.282,,0,23,23,17,1,R,space,,,,,,,,,,
,,,,,R_4fxKHePJLTb3K3b,001,2025-08-25_16h19.15.989,continuous_performance_test,2024.2.4,MacIntel,58.82352941,6abf68ff-d090-408b-a98d-cef8c5ae3f4a,6,727.389,729.187,space,1,0.287,,0,24,24,16,1,Q,space,,,,,,,,,,
,,,,,R_4fxKHePJLTb3K3b,001,2025-08-25_16h19.15.989,continuous_performance_test,2024.2.4,MacIntel,58.82352941,6abf68ff-d090-408b-a98d-cef8c5ae3f4a,6,729.189,731.087,space,1,0.297,,0,25,25,7,1,H,space,,,,,,,,,,
,,,,,R_4fxKHePJLTb3K3b,001,2025-08-25_16h19.15.989,continuous_performance_test,2024.2.4,MacIntel,58.82352941,6abf68ff-d090-408b-a98d-cef8c5ae3f4a,6,731.089,732.987,space,1,0.28,,0,26,26,24,1,Z,space,,,,,,,,,,
,,,,,R_4fxKHePJLTb3K3b,001,2025-08-25_16h19.15.989,continuous_performance_test,2024.2.4,MacIntel,58.82352941,6abf68ff-d090-408b-a98d-cef8c5ae3f4a,6,732.989,734.637,space,1,0.28,,0,27,27,9,1,J,space,,,,,,,,,,
,,,,,R_4fxKHePJLTb3K3b,001,2025-08-25_16h19.15.989,continuous_performance_test,2024.2.4,MacIntel,58.82352941,6abf68ff-d090-408b-a98d-cef8c5ae3f4a,6,734.639,736.387,space,0,0.285,,0,28,28,27,1,X,,,,,,,,,,,
,,,,,R_4fxKHePJLTb3K3b,001,2025-08-25_16h19.15.989,continuous_performance_test,2024.2.4,MacIntel,58.82352941,6abf68ff-d090-408b-a98d-cef8c5ae3f4a,6,736.389,738.037,space,1,0.387,,0,29,29,10,1,K,space,,,,,,,,,,
,,,,,R_4fxKHePJLTb3K3b,001,2025-08-25_16h19.15.989,continuous_performance_test,2024.2.4,MacIntel,58.82352941,6abf68ff-d090-408b-a98d-cef8c5ae3f4a,6,,,,,,,,,,,,,,738.039,738.041,,,,738.042,740.704,space,2.634,
