Instructions.started,Instructions.stopped,key_resp.keys,key_resp.rt,key_resp.duration,participant,session,date,expName,psychopyVersion,OS,frameRate,realeye-tester-id,realeye-tester-quality_grade,Trial_noX.started,Trial_noX.stopped,response.keys,response.corr,trials_noX.thisRepN,trials_noX.thisTrialN,trials_noX.thisN,trials_noX.thisIndex,trials_noX.ran,letter,corrAns,response.rt,response.duration,BlockBreak.started,BlockBreak.stopped,key_instruct.keys,key_instruct.rt,key_instruct.duration,End_NoX.started,End_NoX.stopped,key_resp_end_noX.keys,key_resp_end_noX.rt,key_resp_end_noX.duration
0.0015,11.7179,space,11.7058,,R_4GHLGbjadqvvKHy,001,2025-08-14_07h10.53.415,continuous_performance_test,2024.2.4,MacIntel,60.24096386,c4709aa7-5f61-41da-8334-e9e512ccd54c,5,,,,,,,,,,,,,,,,,,,,,,,
,,,,,R_4GHLGbjadqvvKHy,001,2025-08-14_07h10.53.415,continuous_performance_test,2024.2.4,MacIntel,60.24096386,c4709aa7-5f61-41da-8334-e9e512ccd54c,5,11.7351,13.5847,,1,0,0,0,29,1,X,,,,,,,,,,,,,
,,,,,R_4GHLGbjadqvvKHy,001,2025-08-14_07h10.53.415,continuous_performance_test,2024.2.4,MacIntel,60.24096386,c4709aa7-5f61-41da-8334-e9e512ccd54c,5,13.5866,15.2352,space,1,0,1,1,10,1,K,space,0.4085,,,,,,,,,,,
,,,,,R_4GHLGbjadqvvKHy,001,2025-08-14_07h10.53.415,continuous_performance_test,2024.2.4,MacIntel,60.24096386,c4709aa7-5f61-41da-8334-e9e512ccd54c,5,15.2369,16.9851,space,1,0,2,2,7,1,H,space,0.3365,,,,,,,,,,,
,,,,,R_4GHLGbjadqvvKHy,001,2025-08-14_07h10.53.415,continuous_performance_test,2024.2.4,MacIntel,60.24096386,c4709aa7-5f61-41da-8334-e9e512ccd54c,5,16.9869,18.7848,space,1,0,3,3,8,1,I,space,0.3811,,,,,,,,,,,
,,,,,R_4GHLGbjadqvvKHy,001,2025-08-14_07h10.53.415,continuous_performance_test,2024.2.4,MacIntel,60.24096386,c4709aa7-5f61-41da-8334-e9e512ccd54c,5,18.7861,20.6351,,1,0,4,4,27,1,X,,,,,,,,,,,,,
,,,,,R_4GHLGbjadqvvKHy,001,2025-08-14_07h10.53.415,continuous_performance_test,2024.2.4,MacIntel,60.24096386,c4709aa7-5f61-41da-8334-e9e512ccd54c,5,20.6364,22.1852,space,0,0,5,5,26,1,X,,0.3074,,,,,,,,,,,
,,,,,R_4GHLGbjadqvvKHy,001,2025-08-14_07h10.53.415,continuous_performance_test,2024.2.4,MacIntel,60.24096386,c4709aa7-5f61-41da-8334-e9e512ccd54c,5,22.187,24.1842,space,1,0,6,6,2,1,C,space,0.3627,,,,,,,,,,,
,,,,,R_4GHLGbjadqvvKHy,001,2025-08-14_07h10.53.415,continuous_performance_test,2024.2.4,MacIntel,60.24096386,c4709aa7-5f61-41da-8334-e9e512ccd54c,5,24.1858,25.835,space,1,0,7,7,19,1,T,space,0.3782,,,,,,,,,,,
,,,,,R_4GHLGbjadqvvKHy,001,2025-08-14_07h10.53.415,continuous_performance_test,2024.2.4,MacIntel,60.24096386,c4709aa7-5f61-41da-8334-e9e512ccd54c,5,25.8366,27.385,,1,0,8,8,25,1,X,,,,,,,,,,,,,
,,,,,R_4GHLGbjadqvvKHy,001,2025-08-14_07h10.53.415,continuous_performance_test,2024.2.4,MacIntel,60.24096386,c4709aa7-5f61-41da-8334-e9e512ccd54c,5,27.3865,29.1842,space,1,0,9,9,14,1,O,space,0.3015,,,,,,,,,,,
,,,,,R_4GHLGbjadqvvKHy,001,2025-08-14_07h10.53.415,continuous_performance_test,2024.2.4,MacIntel,60.24096386,c4709aa7-5f61-41da-8334-e9e512ccd54c,5,29.1856,30.8844,space,1,0,10,10,12,1,M,space,0.3477,,,,,,,,,,,
,,,,,R_4GHLGbjadqvvKHy,001,2025-08-14_07h10.53.415,continuous_performance_test,2024.2.4,MacIntel,60.24096386,c4709aa7-5f61-41da-8334-e9e512ccd54c,5,30.8855,32.4851,space,1,0,11,11,17,1,R,space,0.3422,,,,,,,,,,,
,,,,,R_4GHLGbjadqvvKHy,001,2025-08-14_07h10.53.415,continuous_performance_test,2024.2.4,MacIntel,60.24096386,c4709aa7-5f61-41da-8334-e9e512ccd54c,5,32.4865,34.335,space,1,0,12,12,15,1,P,space,0.3557,,,,,,,,,,,
,,,,,R_4GHLGbjadqvvKHy,001,2025-08-14_07h10.53.415,continuous_performance_test,2024.2.4,MacIntel,60.24096386,c4709aa7-5f61-41da-8334-e9e512ccd54c,5,34.3365,36.3351,space,1,0,13,13,0,1,A,space,0.4851,,,,,,,,,,,
,,,,,R_4GHLGbjadqvvKHy,001,2025-08-14_07h10.53.415,continuous_performance_test,2024.2.4,MacIntel,60.24096386,c4709aa7-5f61-41da-8334-e9e512ccd54c,5,36.3367,38.1851,space,1,0,14,14,4,1,E,space,0.3117,,,,,,,,,,,
,,,,,R_4GHLGbjadqvvKHy,001,2025-08-14_07h10.53.415,continuous_performance_test,2024.2.4,MacIntel,60.24096386,c4709aa7-5f61-41da-8334-e9e512ccd54c,5,38.1865,39.735,space,1,0,15,15,24,1,Z,space,0.3111,,,,,,,,,,,
,,,,,R_4GHLGbjadqvvKHy,001,2025-08-14_07h10.53.415,continuous_performance_test,2024.2.4,MacIntel,60.24096386,c4709aa7-5f61-41da-8334-e9e512ccd54c,5,39.7365,41.3348,space,1,0,16,16,22,1,W,space,0.2825,,,,,,,,,,,
,,,,,R_4GHLGbjadqvvKHy,001,2025-08-14_07h10.53.415,continuous_performance_test,2024.2.4,MacIntel,60.24096386,c4709aa7-5f61-41da-8334-e9e512ccd54c,5,41.3358,42.9349,space,1,0,17,17,6,1,G,space,0.3264,,,,,,,,,,,
,,,,,R_4GHLGbjadqvvKHy,001,2025-08-14_07h10.53.415,continuous_performance_test,2024.2.4,MacIntel,60.24096386,c4709aa7-5f61-41da-8334-e9e512ccd54c,5,42.9364,44.885,space,1,0,18,18,20,1,U,space,0.3279,,,,,,,,,,,
,,,,,R_4GHLGbjadqvvKHy,001,2025-08-14_07h10.53.415,continuous_performance_test,2024.2.4,MacIntel,60.24096386,c4709aa7-5f61-41da-8334-e9e512ccd54c,5,44.8866,46.485,space,1,0,19,19,5,1,F,space,0.3334,,,,,,,,,,,
,,,,,R_4GHLGbjadqvvKHy,001,2025-08-14_07h10.53.415,continuous_performance_test,2024.2.4,MacIntel,60.24096386,c4709aa7-5f61-41da-8334-e9e512ccd54c,5,46.4866,48.385,space,1,0,20,20,23,1,Y,space,0.3485,,,,,,,,,,,
,,,,,R_4GHLGbjadqvvKHy,001,2025-08-14_07h10.53.415,continuous_performance_test,2024.2.4,MacIntel,60.24096386,c4709aa7-5f61-41da-8334-e9e512ccd54c,5,48.3865,50.0349,space,1,0,21,21,21,1,V,space,0.3214,,,,,,,,,,,
,,,,,R_4GHLGbjadqvvKHy,001,2025-08-14_07h10.53.415,continuous_performance_test,2024.2.4,MacIntel,60.24096386,c4709aa7-5f61-41da-8334-e9e512ccd54c,5,50.0365,51.7848,space,1,0,22,22,9,1,J,space,0.3357,,,,,,,,,,,
,,,,,R_4GHLGbjadqvvKHy,001,2025-08-14_07h10.53.415,continuous_performance_test,2024.2.4,MacIntel,60.24096386,c4709aa7-5f61-41da-8334-e9e512ccd54c,5,51.7857,53.3349,space,1,0,23,23,13,1,N,space,0.299,,,,,,,,,,,
,,,,,R_4GHLGbjadqvvKHy,001,2025-08-14_07h10.53.415,continuous_performance_test,2024.2.4,MacIntel,60.24096386,c4709aa7-5f61-41da-8334-e9e512ccd54c,5,53.3365,54.8849,space,1,0,24,24,11,1,L,space,0.3382,,,,,,,,,,,
,,,,,R_4GHLGbjadqvvKHy,001,2025-08-14_07h10.53.415,continuous_performance_test,2024.2.4,MacIntel,60.24096386,c4709aa7-5f61-41da-8334-e9e512ccd54c,5,54.8865,56.735,,1,0,25,25,28,1,X,,,,,,,,,,,,,
,,,,,R_4GHLGbjadqvvKHy,001,2025-08-14_07h10.53.415,continuous_performance_test,2024.2.4,MacIntel,60.24096386,c4709aa7-5f61-41da-8334-e9e512ccd54c,5,56.7365,58.6348,space,1,0,26,26,1,1,B,space,0.2998,,,,,,,,,,,
,,,,,R_4GHLGbjadqvvKHy,001,2025-08-14_07h10.53.415,continuous_performance_test,2024.2.4,MacIntel,60.24096386,c4709aa7-5f61-41da-8334-e9e512ccd54c,5,58.6364,60.6349,space,1,0,27,27,16,1,Q,space,0.308,,,,,,,,,,,
,,,,,R_4GHLGbjadqvvKHy,001,2025-08-14_07h10.53.415,continuous_performance_test,2024.2.4,MacIntel,60.24096386,c4709aa7-5f61-41da-8334-e9e512ccd54c,5,60.6365,62.5848,space,1,0,28,28,18,1,S,space,0.315,,,,,,,,,,,
,,,,,R_4GHLGbjadqvvKHy,001,2025-08-14_07h10.53.415,continuous_performance_test,2024.2.4,MacIntel,60.24096386,c4709aa7-5f61-41da-8334-e9e512ccd54c,5,62.5858,64.1841,space,1,0,29,29,3,1,D,space,0.3465,,,,,,,,,,,
,,,,,R_4GHLGbjadqvvKHy,001,2025-08-14_07h10.53.415,continuous_performance_test,2024.2.4,MacIntel,60.24096386,c4709aa7-5f61-41da-8334-e9e512ccd54c,5,68.8625,70.5516,space,1,0,0,0,23,1,Y,space,0.4629,,64.1848,68.8521,space,4.6428,,,,,,
,,,,,R_4GHLGbjadqvvKHy,001,2025-08-14_07h10.53.415,continuous_performance_test,2024.2.4,MacIntel,60.24096386,c4709aa7-5f61-41da-8334-e9e512ccd54c,5,70.553,72.4013,space,1,0,1,1,15,1,P,space,0.3477,,,,,,,,,,,
,,,,,R_4GHLGbjadqvvKHy,001,2025-08-14_07h10.53.415,continuous_performance_test,2024.2.4,MacIntel,60.24096386,c4709aa7-5f61-41da-8334-e9e512ccd54c,5,72.4022,74.1015,space,1,0,2,2,0,1,A,space,0.347,,,,,,,,,,,
,,,,,R_4GHLGbjadqvvKHy,001,2025-08-14_07h10.53.415,continuous_performance_test,2024.2.4,MacIntel,60.24096386,c4709aa7-5f61-41da-8334-e9e512ccd54c,5,74.1026,75.6516,space,0,0,3,3,25,1,X,,0.3075,,,,,,,,,,,
,,,,,R_4GHLGbjadqvvKHy,001,2025-08-14_07h10.53.415,continuous_performance_test,2024.2.4,MacIntel,60.24096386,c4709aa7-5f61-41da-8334-e9e512ccd54c,5,75.653,77.5017,space,1,0,4,4,9,1,J,space,0.3304,,,,,,,,,,,
,,,,,R_4GHLGbjadqvvKHy,001,2025-08-14_07h10.53.415,continuous_performance_test,2024.2.4,MacIntel,60.24096386,c4709aa7-5f61-41da-8334-e9e512ccd54c,5,77.503,79.1508,space,1,0,5,5,20,1,U,space,0.3183,,,,,,,,,,,
,,,,,R_4GHLGbjadqvvKHy,001,2025-08-14_07h10.53.415,continuous_performance_test,2024.2.4,MacIntel,60.24096386,c4709aa7-5f61-41da-8334-e9e512ccd54c,5,79.1522,80.8516,,1,0,6,6,26,1,X,,,,,,,,,,,,,
,,,,,R_4GHLGbjadqvvKHy,001,2025-08-14_07h10.53.415,continuous_performance_test,2024.2.4,MacIntel,60.24096386,c4709aa7-5f61-41da-8334-e9e512ccd54c,5,80.853,82.7016,space,1,0,7,7,24,1,Z,space,0.3344,,,,,,,,,,,
,,,,,R_4GHLGbjadqvvKHy,001,2025-08-14_07h10.53.415,continuous_performance_test,2024.2.4,MacIntel,60.24096386,c4709aa7-5f61-41da-8334-e9e512ccd54c,5,82.7031,84.5514,space,1,0,8,8,4,1,E,space,0.3738,,,,,,,,,,,
,,,,,R_4GHLGbjadqvvKHy,001,2025-08-14_07h10.53.415,continuous_performance_test,2024.2.4,MacIntel,60.24096386,c4709aa7-5f61-41da-8334-e9e512ccd54c,5,84.5524,86.4516,space,1,0,9,9,3,1,D,space,0.3227,,,,,,,,,,,
,,,,,R_4GHLGbjadqvvKHy,001,2025-08-14_07h10.53.415,continuous_performance_test,2024.2.4,MacIntel,60.24096386,c4709aa7-5f61-41da-8334-e9e512ccd54c,5,86.4532,88.1015,,1,0,10,10,27,1,X,,,,,,,,,,,,,
,,,,,R_4GHLGbjadqvvKHy,001,2025-08-14_07h10.53.415,continuous_performance_test,2024.2.4,MacIntel,60.24096386,c4709aa7-5f61-41da-8334-e9e512ccd54c,5,88.1029,90.0517,space,1,0,11,11,21,1,V,space,0.3733,,,,,,,,,,,
,,,,,R_4GHLGbjadqvvKHy,001,2025-08-14_07h10.53.415,continuous_performance_test,2024.2.4,MacIntel,60.24096386,c4709aa7-5f61-41da-8334-e9e512ccd54c,5,90.0532,92.0017,space,1,0,12,12,10,1,K,space,0.4973,,,,,,,,,,,
,,,,,R_4GHLGbjadqvvKHy,001,2025-08-14_07h10.53.415,continuous_performance_test,2024.2.4,MacIntel,60.24096386,c4709aa7-5f61-41da-8334-e9e512ccd54c,5,92.003,93.8514,space,1,0,13,13,16,1,Q,space,0.3404,,,,,,,,,,,
,,,,,R_4GHLGbjadqvvKHy,001,2025-08-14_07h10.53.415,continuous_performance_test,2024.2.4,MacIntel,60.24096386,c4709aa7-5f61-41da-8334-e9e512ccd54c,5,93.8524,95.5015,space,1,0,14,14,1,1,B,space,0.3172,,,,,,,,,,,
,,,,,R_4GHLGbjadqvvKHy,001,2025-08-14_07h10.53.415,continuous_performance_test,2024.2.4,MacIntel,60.24096386,c4709aa7-5f61-41da-8334-e9e512ccd54c,5,95.5024,97.1016,space,1,0,15,15,14,1,O,space,0.3574,,,,,,,,,,,
,,,,,R_4GHLGbjadqvvKHy,001,2025-08-14_07h10.53.415,continuous_performance_test,2024.2.4,MacIntel,60.24096386,c4709aa7-5f61-41da-8334-e9e512ccd54c,5,97.1029,98.9516,space,1,0,16,16,22,1,W,space,0.3827,,,,,,,,,,,
,,,,,R_4GHLGbjadqvvKHy,001,2025-08-14_07h10.53.415,continuous_performance_test,2024.2.4,MacIntel,60.24096386,c4709aa7-5f61-41da-8334-e9e512ccd54c,5,98.953,100.8515,space,1,0,17,17,8,1,I,space,0.3567,,,,,,,,,,,
,,,,,R_4GHLGbjadqvvKHy,001,2025-08-14_07h10.53.415,continuous_performance_test,2024.2.4,MacIntel,60.24096386,c4709aa7-5f61-41da-8334-e9e512ccd54c,5,100.8528,102.8518,space,1,0,18,18,18,1,S,space,0.3253,,,,,,,,,,,
,,,,,R_4GHLGbjadqvvKHy,001,2025-08-14_07h10.53.415,continuous_performance_test,2024.2.4,MacIntel,60.24096386,c4709aa7-5f61-41da-8334-e9e512ccd54c,5,102.8533,104.8514,space,1,0,19,19,19,1,T,space,0.3166,,,,,,,,,,,
,,,,,R_4GHLGbjadqvvKHy,001,2025-08-14_07h10.53.415,continuous_performance_test,2024.2.4,MacIntel,60.24096386,c4709aa7-5f61-41da-8334-e9e512ccd54c,5,104.8523,106.7015,space,1,0,20,20,2,1,C,space,0.3479,,,,,,,,,,,
,,,,,R_4GHLGbjadqvvKHy,001,2025-08-14_07h10.53.415,continuous_performance_test,2024.2.4,MacIntel,60.24096386,c4709aa7-5f61-41da-8334-e9e512ccd54c,5,106.7029,108.4516,space,1,0,21,21,7,1,H,space,0.3404,,,,,,,,,,,
,,,,,R_4GHLGbjadqvvKHy,001,2025-08-14_07h10.53.415,continuous_performance_test,2024.2.4,MacIntel,60.24096386,c4709aa7-5f61-41da-8334-e9e512ccd54c,5,108.453,110.3517,space,1,0,22,22,12,1,M,space,0.3706,,,,,,,,,,,
,,,,,R_4GHLGbjadqvvKHy,001,2025-08-14_07h10.53.415,continuous_performance_test,2024.2.4,MacIntel,60.24096386,c4709aa7-5f61-41da-8334-e9e512ccd54c,5,110.3529,111.9016,space,1,0,23,23,13,1,N,space,0.3303,,,,,,,,,,,
,,,,,R_4GHLGbjadqvvKHy,001,2025-08-14_07h10.53.415,continuous_performance_test,2024.2.4,MacIntel,60.24096386,c4709aa7-5f61-41da-8334-e9e512ccd54c,5,111.903,113.9015,space,1,0,24,24,6,1,G,space,0.3378,,,,,,,,,,,
,,,,,R_4GHLGbjadqvvKHy,001,2025-08-14_07h10.53.415,continuous_performance_test,2024.2.4,MacIntel,60.24096386,c4709aa7-5f61-41da-8334-e9e512ccd54c,5,113.903,115.751,space,1,0,25,25,17,1,R,space,0.3139,,,,,,,,,,,
,,,,,R_4GHLGbjadqvvKHy,001,2025-08-14_07h10.53.415,continuous_performance_test,2024.2.4,MacIntel,60.24096386,c4709aa7-5f61-41da-8334-e9e512ccd54c,5,115.7516,117.4516,,1,0,26,26,29,1,X,,,,,,,,,,,,,
,,,,,R_4GHLGbjadqvvKHy,001,2025-08-14_07h10.53.415,continuous_performance_test,2024.2.4,MacIntel,60.24096386,c4709aa7-5f61-41da-8334-e9e512ccd54c,5,117.453,119.0015,space,1,0,27,27,5,1,F,space,0.3458,,,,,,,,,,,
,,,,,R_4GHLGbjadqvvKHy,001,2025-08-14_07h10.53.415,continuous_performance_test,2024.2.4,MacIntel,60.24096386,c4709aa7-5f61-41da-8334-e9e512ccd54c,5,119.003,120.7015,,1,0,28,28,28,1,X,,,,,,,,,,,,,
,,,,,R_4GHLGbjadqvvKHy,001,2025-08-14_07h10.53.415,continuous_performance_test,2024.2.4,MacIntel,60.24096386,c4709aa7-5f61-41da-8334-e9e512ccd54c,5,120.703,122.5016,space,1,0,29,29,11,1,L,space,0.3728,,,,,,,,,,,
,,,,,R_4GHLGbjadqvvKHy,001,2025-08-14_07h10.53.415,continuous_performance_test,2024.2.4,MacIntel,60.24096386,c4709aa7-5f61-41da-8334-e9e512ccd54c,5,125.5581,127.1513,space,1,0,0,0,6,1,G,space,0.4052,,122.5029,125.5518,space,3.0234,,,,,,
,,,,,R_4GHLGbjadqvvKHy,001,2025-08-14_07h10.53.415,continuous_performance_test,2024.2.4,MacIntel,60.24096386,c4709aa7-5f61-41da-8334-e9e512ccd54c,5,127.1522,129.1516,space,1,0,1,1,1,1,B,space,0.3554,,,,,,,,,,,
,,,,,R_4GHLGbjadqvvKHy,001,2025-08-14_07h10.53.415,continuous_performance_test,2024.2.4,MacIntel,60.24096386,c4709aa7-5f61-41da-8334-e9e512ccd54c,5,129.153,131.0016,,1,0,2,2,29,1,X,,,,,,,,,,,,,
,,,,,R_4GHLGbjadqvvKHy,001,2025-08-14_07h10.53.415,continuous_performance_test,2024.2.4,MacIntel,60.24096386,c4709aa7-5f61-41da-8334-e9e512ccd54c,5,131.0031,132.9516,space,1,0,3,3,22,1,W,space,0.3655,,,,,,,,,,,
,,,,,R_4GHLGbjadqvvKHy,001,2025-08-14_07h10.53.415,continuous_performance_test,2024.2.4,MacIntel,60.24096386,c4709aa7-5f61-41da-8334-e9e512ccd54c,5,132.953,134.7516,space,1,0,4,4,10,1,K,space,0.3577,,,,,,,,,,,
,,,,,R_4GHLGbjadqvvKHy,001,2025-08-14_07h10.53.415,continuous_performance_test,2024.2.4,MacIntel,60.24096386,c4709aa7-5f61-41da-8334-e9e512ccd54c,5,134.7531,136.5515,space,1,0,5,5,15,1,P,space,0.3657,,,,,,,,,,,
,,,,,R_4GHLGbjadqvvKHy,001,2025-08-14_07h10.53.415,continuous_performance_test,2024.2.4,MacIntel,60.24096386,c4709aa7-5f61-41da-8334-e9e512ccd54c,5,136.5529,138.3514,space,1,0,6,6,20,1,U,space,0.3747,,,,,,,,,,,
,,,,,R_4GHLGbjadqvvKHy,001,2025-08-14_07h10.53.415,continuous_performance_test,2024.2.4,MacIntel,60.24096386,c4709aa7-5f61-41da-8334-e9e512ccd54c,5,138.3523,140.2012,space,1,0,7,7,3,1,D,space,0.3962,,,,,,,,,,,
,,,,,R_4GHLGbjadqvvKHy,001,2025-08-14_07h10.53.415,continuous_performance_test,2024.2.4,MacIntel,60.24096386,c4709aa7-5f61-41da-8334-e9e512ccd54c,5,140.2027,141.7516,,1,0,8,8,26,1,X,,,,,,,,,,,,,
,,,,,R_4GHLGbjadqvvKHy,001,2025-08-14_07h10.53.415,continuous_performance_test,2024.2.4,MacIntel,60.24096386,c4709aa7-5f61-41da-8334-e9e512ccd54c,5,141.753,143.4016,space,1,0,9,9,8,1,I,space,0.3804,,,,,,,,,,,
,,,,,R_4GHLGbjadqvvKHy,001,2025-08-14_07h10.53.415,continuous_performance_test,2024.2.4,MacIntel,60.24096386,c4709aa7-5f61-41da-8334-e9e512ccd54c,5,143.403,145.4017,space,1,0,10,10,23,1,Y,space,0.3831,,,,,,,,,,,
,,,,,R_4GHLGbjadqvvKHy,001,2025-08-14_07h10.53.415,continuous_performance_test,2024.2.4,MacIntel,60.24096386,c4709aa7-5f61-41da-8334-e9e512ccd54c,5,145.4032,147.2515,space,1,0,11,11,24,1,Z,space,0.4854,,,,,,,,,,,
,,,,,R_4GHLGbjadqvvKHy,001,2025-08-14_07h10.53.415,continuous_performance_test,2024.2.4,MacIntel,60.24096386,c4709aa7-5f61-41da-8334-e9e512ccd54c,5,147.2528,149.1513,space,1,0,12,12,16,1,Q,space,0.3956,,,,,,,,,,,
,,,,,R_4GHLGbjadqvvKHy,001,2025-08-14_07h10.53.415,continuous_performance_test,2024.2.4,MacIntel,60.24096386,c4709aa7-5f61-41da-8334-e9e512ccd54c,5,149.1523,150.8016,space,1,0,13,13,13,1,N,space,0.4302,,,,,,,,,,,
,,,,,R_4GHLGbjadqvvKHy,001,2025-08-14_07h10.53.415,continuous_performance_test,2024.2.4,MacIntel,60.24096386,c4709aa7-5f61-41da-8334-e9e512ccd54c,5,150.803,152.5016,space,1,0,14,14,0,1,A,space,0.3905,,,,,,,,,,,
,,,,,R_4GHLGbjadqvvKHy,001,2025-08-14_07h10.53.415,continuous_performance_test,2024.2.4,MacIntel,60.24096386,c4709aa7-5f61-41da-8334-e9e512ccd54c,5,152.5029,154.4016,space,1,0,15,15,7,1,H,space,0.3743,,,,,,,,,,,
,,,,,R_4GHLGbjadqvvKHy,001,2025-08-14_07h10.53.415,continuous_performance_test,2024.2.4,MacIntel,60.24096386,c4709aa7-5f61-41da-8334-e9e512ccd54c,5,154.4029,156.0515,,1,0,16,16,27,1,X,,,,,,,,,,,,,
,,,,,R_4GHLGbjadqvvKHy,001,2025-08-14_07h10.53.415,continuous_performance_test,2024.2.4,MacIntel,60.24096386,c4709aa7-5f61-41da-8334-e9e512ccd54c,5,156.053,157.8512,space,1,0,17,17,17,1,R,space,0.3117,,,,,,,,,,,
,,,,,R_4GHLGbjadqvvKHy,001,2025-08-14_07h10.53.415,continuous_performance_test,2024.2.4,MacIntel,60.24096386,c4709aa7-5f61-41da-8334-e9e512ccd54c,5,157.8515,159.6013,space,1,0,18,18,11,1,L,space,0.3648,,,,,,,,,,,
,,,,,R_4GHLGbjadqvvKHy,001,2025-08-14_07h10.53.415,continuous_performance_test,2024.2.4,MacIntel,60.24096386,c4709aa7-5f61-41da-8334-e9e512ccd54c,5,159.6023,161.3516,space,0,0,19,19,25,1,X,,0.3504,,,,,,,,,,,
,,,,,R_4GHLGbjadqvvKHy,001,2025-08-14_07h10.53.415,continuous_performance_test,2024.2.4,MacIntel,60.24096386,c4709aa7-5f61-41da-8334-e9e512ccd54c,5,161.353,163.0015,space,1,0,20,20,5,1,F,space,0.4237,,,,,,,,,,,
,,,,,R_4GHLGbjadqvvKHy,001,2025-08-14_07h10.53.415,continuous_performance_test,2024.2.4,MacIntel,60.24096386,c4709aa7-5f61-41da-8334-e9e512ccd54c,5,163.0029,164.6516,space,1,0,21,21,2,1,C,space,0.3898,,,,,,,,,,,
,,,,,R_4GHLGbjadqvvKHy,001,2025-08-14_07h10.53.415,continuous_performance_test,2024.2.4,MacIntel,60.24096386,c4709aa7-5f61-41da-8334-e9e512ccd54c,5,164.6537,166.3016,space,1,0,22,22,21,1,V,space,0.4251,,,,,,,,,,,
,,,,,R_4GHLGbjadqvvKHy,001,2025-08-14_07h10.53.415,continuous_performance_test,2024.2.4,MacIntel,60.24096386,c4709aa7-5f61-41da-8334-e9e512ccd54c,5,166.3029,168.1016,space,1,0,23,23,19,1,T,space,0.4241,,,,,,,,,,,
,,,,,R_4GHLGbjadqvvKHy,001,2025-08-14_07h10.53.415,continuous_performance_test,2024.2.4,MacIntel,60.24096386,c4709aa7-5f61-41da-8334-e9e512ccd54c,5,168.1029,169.9013,space,1,0,24,24,18,1,S,space,0.4289,,,,,,,,,,,
,,,,,R_4GHLGbjadqvvKHy,001,2025-08-14_07h10.53.415,continuous_performance_test,2024.2.4,MacIntel,60.24096386,c4709aa7-5f61-41da-8334-e9e512ccd54c,5,169.9023,171.8515,space,1,0,25,25,9,1,J,space,0.4262,,,,,,,,,,,
,,,,,R_4GHLGbjadqvvKHy,001,2025-08-14_07h10.53.415,continuous_performance_test,2024.2.4,MacIntel,60.24096386,c4709aa7-5f61-41da-8334-e9e512ccd54c,5,171.8528,173.8515,space,1,0,26,26,12,1,M,space,0.5164,,,,,,,,,,,
,,,,,R_4GHLGbjadqvvKHy,001,2025-08-14_07h10.53.415,continuous_performance_test,2024.2.4,MacIntel,60.24096386,c4709aa7-5f61-41da-8334-e9e512ccd54c,5,173.8531,175.6515,space,1,0,27,27,4,1,E,space,0.3972,,,,,,,,,,,
,,,,,R_4GHLGbjadqvvKHy,001,2025-08-14_07h10.53.415,continuous_performance_test,2024.2.4,MacIntel,60.24096386,c4709aa7-5f61-41da-8334-e9e512ccd54c,5,175.6528,177.6015,,1,0,28,28,28,1,X,,,,,,,,,,,,,
,,,,,R_4GHLGbjadqvvKHy,001,2025-08-14_07h10.53.415,continuous_performance_test,2024.2.4,MacIntel,60.24096386,c4709aa7-5f61-41da-8334-e9e512ccd54c,5,177.6029,179.301,space,1,0,29,29,14,1,O,space,0.3306,,,,,,,,,,,
,,,,,R_4GHLGbjadqvvKHy,001,2025-08-14_07h10.53.415,continuous_performance_test,2024.2.4,MacIntel,60.24096386,c4709aa7-5f61-41da-8334-e9e512ccd54c,5,183.875,185.7183,space,1,0,0,0,8,1,I,space,0.4806,,179.3023,183.8685,space,4.5391,,,,,,
,,,,,R_4GHLGbjadqvvKHy,001,2025-08-14_07h10.53.415,continuous_performance_test,2024.2.4,MacIntel,60.24096386,c4709aa7-5f61-41da-8334-e9e512ccd54c,5,185.7198,187.2682,space,1,0,1,1,23,1,Y,space,0.4324,,,,,,,,,,,
,,,,,R_4GHLGbjadqvvKHy,001,2025-08-14_07h10.53.415,continuous_performance_test,2024.2.4,MacIntel,60.24096386,c4709aa7-5f61-41da-8334-e9e512ccd54c,5,187.2696,189.0182,space,1,0,2,2,15,1,P,space,0.4808,,,,,,,,,,,
,,,,,R_4GHLGbjadqvvKHy,001,2025-08-14_07h10.53.415,continuous_performance_test,2024.2.4,MacIntel,60.24096386,c4709aa7-5f61-41da-8334-e9e512ccd54c,5,189.0196,190.7179,space,1,0,3,3,16,1,Q,space,0.375,,,,,,,,,,,
,,,,,R_4GHLGbjadqvvKHy,001,2025-08-14_07h10.53.415,continuous_performance_test,2024.2.4,MacIntel,60.24096386,c4709aa7-5f61-41da-8334-e9e512ccd54c,5,190.7189,192.5178,,1,0,4,4,29,1,X,,,,,,,,,,,,,
,,,,,R_4GHLGbjadqvvKHy,001,2025-08-14_07h10.53.415,continuous_performance_test,2024.2.4,MacIntel,60.24096386,c4709aa7-5f61-41da-8334-e9e512ccd54c,5,192.5186,194.2182,space,1,0,5,5,20,1,U,space,0.3652,,,,,,,,,,,
,,,,,R_4GHLGbjadqvvKHy,001,2025-08-14_07h10.53.415,continuous_performance_test,2024.2.4,MacIntel,60.24096386,c4709aa7-5f61-41da-8334-e9e512ccd54c,5,194.2196,196.1682,,1,0,6,6,27,1,X,,,,,,,,,,,,,
,,,,,R_4GHLGbjadqvvKHy,001,2025-08-14_07h10.53.415,continuous_performance_test,2024.2.4,MacIntel,60.24096386,c4709aa7-5f61-41da-8334-e9e512ccd54c,5,196.1696,197.9182,space,1,0,7,7,19,1,T,space,0.3238,,,,,,,,,,,
,,,,,R_4GHLGbjadqvvKHy,001,2025-08-14_07h10.53.415,continuous_performance_test,2024.2.4,MacIntel,60.24096386,c4709aa7-5f61-41da-8334-e9e512ccd54c,5,197.9195,199.6182,,1,0,8,8,28,1,X,,,,,,,,,,,,,
,,,,,R_4GHLGbjadqvvKHy,001,2025-08-14_07h10.53.415,continuous_performance_test,2024.2.4,MacIntel,60.24096386,c4709aa7-5f61-41da-8334-e9e512ccd54c,5,199.6196,201.3182,space,1,0,9,9,2,1,C,space,0.3647,,,,,,,,,,,
,,,,,R_4GHLGbjadqvvKHy,001,2025-08-14_07h10.53.415,continuous_performance_test,2024.2.4,MacIntel,60.24096386,c4709aa7-5f61-41da-8334-e9e512ccd54c,5,201.3196,203.068,space,1,0,10,10,17,1,R,space,0.3588,,,,,,,,,,,
,,,,,R_4GHLGbjadqvvKHy,001,2025-08-14_07h10.53.415,continuous_performance_test,2024.2.4,MacIntel,60.24096386,c4709aa7-5f61-41da-8334-e9e512ccd54c,5,203.0688,204.6182,space,1,0,11,11,9,1,J,space,0.3485,,,,,,,,,,,
,,,,,R_4GHLGbjadqvvKHy,001,2025-08-14_07h10.53.415,continuous_performance_test,2024.2.4,MacIntel,60.24096386,c4709aa7-5f61-41da-8334-e9e512ccd54c,5,204.6197,206.2682,space,1,0,12,12,7,1,H,space,0.3073,,,,,,,,,,,
,,,,,R_4GHLGbjadqvvKHy,001,2025-08-14_07h10.53.415,continuous_performance_test,2024.2.4,MacIntel,60.24096386,c4709aa7-5f61-41da-8334-e9e512ccd54c,5,206.2695,208.0182,space,1,0,13,13,1,1,B,space,0.4075,,,,,,,,,,,
,,,,,R_4GHLGbjadqvvKHy,001,2025-08-14_07h10.53.415,continuous_performance_test,2024.2.4,MacIntel,60.24096386,c4709aa7-5f61-41da-8334-e9e512ccd54c,5,208.0195,209.9681,space,0,0,14,14,26,1,X,,0.3178,,,,,,,,,,,
,,,,,R_4GHLGbjadqvvKHy,001,2025-08-14_07h10.53.415,continuous_performance_test,2024.2.4,MacIntel,60.24096386,c4709aa7-5f61-41da-8334-e9e512ccd54c,5,209.9694,211.9681,space,1,0,15,15,5,1,F,space,0.4065,,,,,,,,,,,
,,,,,R_4GHLGbjadqvvKHy,001,2025-08-14_07h10.53.415,continuous_performance_test,2024.2.4,MacIntel,60.24096386,c4709aa7-5f61-41da-8334-e9e512ccd54c,5,211.9696,213.5679,space,1,0,16,16,24,1,Z,space,0.3277,,,,,,,,,,,
,,,,,R_4GHLGbjadqvvKHy,001,2025-08-14_07h10.53.415,continuous_performance_test,2024.2.4,MacIntel,60.24096386,c4709aa7-5f61-41da-8334-e9e512ccd54c,5,213.5689,215.4183,space,1,0,17,17,21,1,V,space,0.4072,,,,,,,,,,,
,,,,,R_4GHLGbjadqvvKHy,001,2025-08-14_07h10.53.415,continuous_performance_test,2024.2.4,MacIntel,60.24096386,c4709aa7-5f61-41da-8334-e9e512ccd54c,5,215.4196,217.2182,space,1,0,18,18,14,1,O,space,0.3827,,,,,,,,,,,
,,,,,R_4GHLGbjadqvvKHy,001,2025-08-14_07h10.53.415,continuous_performance_test,2024.2.4,MacIntel,60.24096386,c4709aa7-5f61-41da-8334-e9e512ccd54c,5,217.2196,219.0681,space,1,0,19,19,13,1,N,space,0.3641,,,,,,,,,,,
,,,,,R_4GHLGbjadqvvKHy,001,2025-08-14_07h10.53.415,continuous_performance_test,2024.2.4,MacIntel,60.24096386,c4709aa7-5f61-41da-8334-e9e512ccd54c,5,219.0695,220.7182,space,1,0,20,20,11,1,L,space,0.4544,,,,,,,,,,,
,,,,,R_4GHLGbjadqvvKHy,001,2025-08-14_07h10.53.415,continuous_performance_test,2024.2.4,MacIntel,60.24096386,c4709aa7-5f61-41da-8334-e9e512ccd54c,5,220.7195,222.5181,space,1,0,21,21,18,1,S,space,0.4832,,,,,,,,,,,
,,,,,R_4GHLGbjadqvvKHy,001,2025-08-14_07h10.53.415,continuous_performance_test,2024.2.4,MacIntel,60.24096386,c4709aa7-5f61-41da-8334-e9e512ccd54c,5,222.5194,224.518,space,1,0,22,22,10,1,K,space,0.4684,,,,,,,,,,,
,,,,,R_4GHLGbjadqvvKHy,001,2025-08-14_07h10.53.415,continuous_performance_test,2024.2.4,MacIntel,60.24096386,c4709aa7-5f61-41da-8334-e9e512ccd54c,5,224.5189,226.3182,space,1,0,23,23,3,1,D,space,0.3557,,,,,,,,,,,
,,,,,R_4GHLGbjadqvvKHy,001,2025-08-14_07h10.53.415,continuous_performance_test,2024.2.4,MacIntel,60.24096386,c4709aa7-5f61-41da-8334-e9e512ccd54c,5,226.3195,227.868,,1,0,24,24,25,1,X,,,,,,,,,,,,,
,,,,,R_4GHLGbjadqvvKHy,001,2025-08-14_07h10.53.415,continuous_performance_test,2024.2.4,MacIntel,60.24096386,c4709aa7-5f61-41da-8334-e9e512ccd54c,5,227.8694,229.7182,space,1,0,25,25,6,1,G,space,0.3574,,,,,,,,,,,
,,,,,R_4GHLGbjadqvvKHy,001,2025-08-14_07h10.53.415,continuous_performance_test,2024.2.4,MacIntel,60.24096386,c4709aa7-5f61-41da-8334-e9e512ccd54c,5,229.7196,231.4182,space,1,0,26,26,22,1,W,space,0.4394,,,,,,,,,,,
,,,,,R_4GHLGbjadqvvKHy,001,2025-08-14_07h10.53.415,continuous_performance_test,2024.2.4,MacIntel,60.24096386,c4709aa7-5f61-41da-8334-e9e512ccd54c,5,231.4196,233.0674,space,1,0,27,27,4,1,E,space,0.3805,,,,,,,,,,,
,,,,,R_4GHLGbjadqvvKHy,001,2025-08-14_07h10.53.415,continuous_performance_test,2024.2.4,MacIntel,60.24096386,c4709aa7-5f61-41da-8334-e9e512ccd54c,5,233.0687,235.018,space,1,0,28,28,12,1,M,space,0.4177,,,,,,,,,,,
,,,,,R_4GHLGbjadqvvKHy,001,2025-08-14_07h10.53.415,continuous_performance_test,2024.2.4,MacIntel,60.24096386,c4709aa7-5f61-41da-8334-e9e512ccd54c,5,235.0188,236.5681,space,1,0,29,29,0,1,A,space,0.6274,,,,,,,,,,,
,,,,,R_4GHLGbjadqvvKHy,001,2025-08-14_07h10.53.415,continuous_performance_test,2024.2.4,MacIntel,60.24096386,c4709aa7-5f61-41da-8334-e9e512ccd54c,5,241.025,242.6682,space,1,0,0,0,15,1,P,space,0.4801,,236.5694,241.0185,space,4.4241,,,,,,
,,,,,R_4GHLGbjadqvvKHy,001,2025-08-14_07h10.53.415,continuous_performance_test,2024.2.4,MacIntel,60.24096386,c4709aa7-5f61-41da-8334-e9e512ccd54c,5,242.6698,244.5179,space,1,0,1,1,22,1,W,space,0.3629,,,,,,,,,,,
,,,,,R_4GHLGbjadqvvKHy,001,2025-08-14_07h10.53.415,continuous_performance_test,2024.2.4,MacIntel,60.24096386,c4709aa7-5f61-41da-8334-e9e512ccd54c,5,244.5189,246.4682,space,1,0,2,2,21,1,V,space,0.3736,,,,,,,,,,,
,,,,,R_4GHLGbjadqvvKHy,001,2025-08-14_07h10.53.415,continuous_performance_test,2024.2.4,MacIntel,60.24096386,c4709aa7-5f61-41da-8334-e9e512ccd54c,5,246.4695,248.2681,space,1,0,3,3,2,1,C,space,0.3731,,,,,,,,,,,
,,,,,R_4GHLGbjadqvvKHy,001,2025-08-14_07h10.53.415,continuous_performance_test,2024.2.4,MacIntel,60.24096386,c4709aa7-5f61-41da-8334-e9e512ccd54c,5,248.2694,249.8681,space,1,0,4,4,13,1,N,space,0.3327,,,,,,,,,,,
,,,,,R_4GHLGbjadqvvKHy,001,2025-08-14_07h10.53.415,continuous_performance_test,2024.2.4,MacIntel,60.24096386,c4709aa7-5f61-41da-8334-e9e512ccd54c,5,249.8695,251.6182,space,1,0,5,5,3,1,D,space,0.3573,,,,,,,,,,,
,,,,,R_4GHLGbjadqvvKHy,001,2025-08-14_07h10.53.415,continuous_performance_test,2024.2.4,MacIntel,60.24096386,c4709aa7-5f61-41da-8334-e9e512ccd54c,5,251.6195,253.3181,space,1,0,6,6,6,1,G,space,0.3587,,,,,,,,,,,
,,,,,R_4GHLGbjadqvvKHy,001,2025-08-14_07h10.53.415,continuous_performance_test,2024.2.4,MacIntel,60.24096386,c4709aa7-5f61-41da-8334-e9e512ccd54c,5,253.3196,255.0681,space,1,0,7,7,20,1,U,space,0.3518,,,,,,,,,,,
,,,,,R_4GHLGbjadqvvKHy,001,2025-08-14_07h10.53.415,continuous_performance_test,2024.2.4,MacIntel,60.24096386,c4709aa7-5f61-41da-8334-e9e512ccd54c,5,255.0695,256.8679,space,1,0,8,8,17,1,R,space,0.3428,,,,,,,,,,,
,,,,,R_4GHLGbjadqvvKHy,001,2025-08-14_07h10.53.415,continuous_performance_test,2024.2.4,MacIntel,60.24096386,c4709aa7-5f61-41da-8334-e9e512ccd54c,5,256.8685,258.6182,space,1,0,9,9,9,1,J,space,0.3232,,,,,,,,,,,
,,,,,R_4GHLGbjadqvvKHy,001,2025-08-14_07h10.53.415,continuous_performance_test,2024.2.4,MacIntel,60.24096386,c4709aa7-5f61-41da-8334-e9e512ccd54c,5,258.6195,260.4182,space,1,0,10,10,1,1,B,space,0.3561,,,,,,,,,,,
,,,,,R_4GHLGbjadqvvKHy,001,2025-08-14_07h10.53.415,continuous_performance_test,2024.2.4,MacIntel,60.24096386,c4709aa7-5f61-41da-8334-e9e512ccd54c,5,260.4195,262.0181,,1,0,11,11,26,1,X,,,,,,,,,,,,,
,,,,,R_4GHLGbjadqvvKHy,001,2025-08-14_07h10.53.415,continuous_performance_test,2024.2.4,MacIntel,60.24096386,c4709aa7-5f61-41da-8334-e9e512ccd54c,5,262.0196,263.5681,space,1,0,12,12,0,1,A,space,0.3136,,,,,,,,,,,
,,,,,R_4GHLGbjadqvvKHy,001,2025-08-14_07h10.53.415,continuous_performance_test,2024.2.4,MacIntel,60.24096386,c4709aa7-5f61-41da-8334-e9e512ccd54c,5,263.5695,265.2672,space,1,0,13,13,19,1,T,space,0.3241,,,,,,,,,,,
,,,,,R_4GHLGbjadqvvKHy,001,2025-08-14_07h10.53.415,continuous_performance_test,2024.2.4,MacIntel,60.24096386,c4709aa7-5f61-41da-8334-e9e512ccd54c,5,265.2685,267.0169,space,1,0,14,14,12,1,M,space,0.364,,,,,,,,,,,
,,,,,R_4GHLGbjadqvvKHy,001,2025-08-14_07h10.53.415,continuous_performance_test,2024.2.4,MacIntel,60.24096386,c4709aa7-5f61-41da-8334-e9e512ccd54c,5,267.0178,268.5678,,1,0,15,15,28,1,X,,,,,,,,,,,,,
,,,,,R_4GHLGbjadqvvKHy,001,2025-08-14_07h10.53.415,continuous_performance_test,2024.2.4,MacIntel,60.24096386,c4709aa7-5f61-41da-8334-e9e512ccd54c,5,268.5691,270.5681,space,1,0,16,16,18,1,S,space,0.407,,,,,,,,,,,
,,,,,R_4GHLGbjadqvvKHy,001,2025-08-14_07h10.53.415,continuous_performance_test,2024.2.4,MacIntel,60.24096386,c4709aa7-5f61-41da-8334-e9e512ccd54c,5,270.5695,272.1182,space,1,0,17,17,10,1,K,space,0.5141,,,,,,,,,,,
,,,,,R_4GHLGbjadqvvKHy,001,2025-08-14_07h10.53.415,continuous_performance_test,2024.2.4,MacIntel,60.24096386,c4709aa7-5f61-41da-8334-e9e512ccd54c,5,272.1196,273.9681,space,1,0,18,18,16,1,Q,space,0.4294,,,,,,,,,,,
,,,,,R_4GHLGbjadqvvKHy,001,2025-08-14_07h10.53.415,continuous_performance_test,2024.2.4,MacIntel,60.24096386,c4709aa7-5f61-41da-8334-e9e512ccd54c,5,273.9695,275.8681,space,1,0,19,19,7,1,H,space,0.4911,,,,,,,,,,,
,,,,,R_4GHLGbjadqvvKHy,001,2025-08-14_07h10.53.415,continuous_performance_test,2024.2.4,MacIntel,60.24096386,c4709aa7-5f61-41da-8334-e9e512ccd54c,5,275.8695,277.5179,space,1,0,20,20,4,1,E,space,0.3834,,,,,,,,,,,
,,,,,R_4GHLGbjadqvvKHy,001,2025-08-14_07h10.53.415,continuous_performance_test,2024.2.4,MacIntel,60.24096386,c4709aa7-5f61-41da-8334-e9e512ccd54c,5,277.5187,279.4181,space,1,0,21,21,11,1,L,space,0.3431,,,,,,,,,,,
,,,,,R_4GHLGbjadqvvKHy,001,2025-08-14_07h10.53.415,continuous_performance_test,2024.2.4,MacIntel,60.24096386,c4709aa7-5f61-41da-8334-e9e512ccd54c,5,279.4195,281.2183,space,1,0,22,22,5,1,F,space,0.3729,,,,,,,,,,,
,,,,,R_4GHLGbjadqvvKHy,001,2025-08-14_07h10.53.415,continuous_performance_test,2024.2.4,MacIntel,60.24096386,c4709aa7-5f61-41da-8334-e9e512ccd54c,5,281.2195,283.2182,space,0,0,23,23,29,1,X,,0.3305,,,,,,,,,,,
,,,,,R_4GHLGbjadqvvKHy,001,2025-08-14_07h10.53.415,continuous_performance_test,2024.2.4,MacIntel,60.24096386,c4709aa7-5f61-41da-8334-e9e512ccd54c,5,283.2195,284.9671,space,1,0,24,24,14,1,O,space,0.2972,,,,,,,,,,,
,,,,,R_4GHLGbjadqvvKHy,001,2025-08-14_07h10.53.415,continuous_performance_test,2024.2.4,MacIntel,60.24096386,c4709aa7-5f61-41da-8334-e9e512ccd54c,5,284.9686,286.6681,,1,0,25,25,25,1,X,,,,,,,,,,,,,
,,,,,R_4GHLGbjadqvvKHy,001,2025-08-14_07h10.53.415,continuous_performance_test,2024.2.4,MacIntel,60.24096386,c4709aa7-5f61-41da-8334-e9e512ccd54c,5,286.6694,288.5679,space,1,0,26,26,8,1,I,space,0.3586,,,,,,,,,,,
,,,,,R_4GHLGbjadqvvKHy,001,2025-08-14_07h10.53.415,continuous_performance_test,2024.2.4,MacIntel,60.24096386,c4709aa7-5f61-41da-8334-e9e512ccd54c,5,288.5687,290.2172,space,1,0,27,27,24,1,Z,space,0.4769,,,,,,,,,,,
,,,,,R_4GHLGbjadqvvKHy,001,2025-08-14_07h10.53.415,continuous_performance_test,2024.2.4,MacIntel,60.24096386,c4709aa7-5f61-41da-8334-e9e512ccd54c,5,290.2185,291.9682,,1,0,28,28,27,1,X,,,,,,,,,,,,,
,,,,,R_4GHLGbjadqvvKHy,001,2025-08-14_07h10.53.415,continuous_performance_test,2024.2.4,MacIntel,60.24096386,c4709aa7-5f61-41da-8334-e9e512ccd54c,5,291.9695,293.8182,space,1,0,29,29,23,1,Y,space,0.5319,,,,,,,,,,,
,,,,,R_4GHLGbjadqvvKHy,001,2025-08-14_07h10.53.415,continuous_performance_test,2024.2.4,MacIntel,60.24096386,c4709aa7-5f61-41da-8334-e9e512ccd54c,5,298.2735,299.918,space,1,0,0,0,0,1,A,space,0.4904,,293.8195,298.268,space,4.4217,,,,,,
,,,,,R_4GHLGbjadqvvKHy,001,2025-08-14_07h10.53.415,continuous_performance_test,2024.2.4,MacIntel,60.24096386,c4709aa7-5f61-41da-8334-e9e512ccd54c,5,299.919,301.7181,space,1,0,1,1,13,1,N,space,0.5173,,,,,,,,,,,
,,,,,R_4GHLGbjadqvvKHy,001,2025-08-14_07h10.53.415,continuous_performance_test,2024.2.4,MacIntel,60.24096386,c4709aa7-5f61-41da-8334-e9e512ccd54c,5,301.7195,303.2681,,1,0,2,2,28,1,X,,,,,,,,,,,,,
,,,,,R_4GHLGbjadqvvKHy,001,2025-08-14_07h10.53.415,continuous_performance_test,2024.2.4,MacIntel,60.24096386,c4709aa7-5f61-41da-8334-e9e512ccd54c,5,303.2694,305.2182,space,1,0,3,3,18,1,S,space,0.3741,,,,,,,,,,,
,,,,,R_4GHLGbjadqvvKHy,001,2025-08-14_07h10.53.415,continuous_performance_test,2024.2.4,MacIntel,60.24096386,c4709aa7-5f61-41da-8334-e9e512ccd54c,5,305.2195,306.8172,space,1,0,4,4,23,1,Y,space,0.4176,,,,,,,,,,,
,,,,,R_4GHLGbjadqvvKHy,001,2025-08-14_07h10.53.415,continuous_performance_test,2024.2.4,MacIntel,60.24096386,c4709aa7-5f61-41da-8334-e9e512ccd54c,5,306.8185,308.4672,space,0,0,5,5,29,1,X,,0.3624,,,,,,,,,,,
,,,,,R_4GHLGbjadqvvKHy,001,2025-08-14_07h10.53.415,continuous_performance_test,2024.2.4,MacIntel,60.24096386,c4709aa7-5f61-41da-8334-e9e512ccd54c,5,308.4687,310.3178,space,1,0,6,6,15,1,P,space,0.3586,,,,,,,,,,,
,,,,,R_4GHLGbjadqvvKHy,001,2025-08-14_07h10.53.415,continuous_performance_test,2024.2.4,MacIntel,60.24096386,c4709aa7-5f61-41da-8334-e9e512ccd54c,5,310.3188,312.1681,space,1,0,7,7,8,1,I,space,0.3638,,,,,,,,,,,
,,,,,R_4GHLGbjadqvvKHy,001,2025-08-14_07h10.53.415,continuous_performance_test,2024.2.4,MacIntel,60.24096386,c4709aa7-5f61-41da-8334-e9e512ccd54c,5,312.1695,313.9681,,1,0,8,8,27,1,X,,,,,,,,,,,,,
,,,,,R_4GHLGbjadqvvKHy,001,2025-08-14_07h10.53.415,continuous_performance_test,2024.2.4,MacIntel,60.24096386,c4709aa7-5f61-41da-8334-e9e512ccd54c,5,313.9694,315.7681,space,1,0,9,9,12,1,M,space,0.3307,,,,,,,,,,,
,,,,,R_4GHLGbjadqvvKHy,001,2025-08-14_07h10.53.415,continuous_performance_test,2024.2.4,MacIntel,60.24096386,c4709aa7-5f61-41da-8334-e9e512ccd54c,5,315.7695,317.3681,,1,0,10,10,26,1,X,,,,,,,,,,,,,
,,,,,R_4GHLGbjadqvvKHy,001,2025-08-14_07h10.53.415,continuous_performance_test,2024.2.4,MacIntel,60.24096386,c4709aa7-5f61-41da-8334-e9e512ccd54c,5,317.3695,319.2181,space,1,0,11,11,9,1,J,space,0.3839,,,,,,,,,,,
,,,,,R_4GHLGbjadqvvKHy,001,2025-08-14_07h10.53.415,continuous_performance_test,2024.2.4,MacIntel,60.24096386,c4709aa7-5f61-41da-8334-e9e512ccd54c,5,319.2194,320.9176,space,1,0,12,12,20,1,U,space,0.423,,,,,,,,,,,
,,,,,R_4GHLGbjadqvvKHy,001,2025-08-14_07h10.53.415,continuous_performance_test,2024.2.4,MacIntel,60.24096386,c4709aa7-5f61-41da-8334-e9e512ccd54c,5,320.9185,322.6681,space,1,0,13,13,16,1,Q,space,0.4129,,,,,,,,,,,
,,,,,R_4GHLGbjadqvvKHy,001,2025-08-14_07h10.53.415,continuous_performance_test,2024.2.4,MacIntel,60.24096386,c4709aa7-5f61-41da-8334-e9e512ccd54c,5,322.6694,324.2181,space,1,0,14,14,7,1,H,space,0.3812,,,,,,,,,,,
,,,,,R_4GHLGbjadqvvKHy,001,2025-08-14_07h10.53.415,continuous_performance_test,2024.2.4,MacIntel,60.24096386,c4709aa7-5f61-41da-8334-e9e512ccd54c,5,324.2194,325.8681,,1,0,15,15,25,1,X,,,,,,,,,,,,,
,,,,,R_4GHLGbjadqvvKHy,001,2025-08-14_07h10.53.415,continuous_performance_test,2024.2.4,MacIntel,60.24096386,c4709aa7-5f61-41da-8334-e9e512ccd54c,5,325.8694,327.418,space,1,0,16,16,21,1,V,space,0.4325,,,,,,,,,,,
,,,,,R_4GHLGbjadqvvKHy,001,2025-08-14_07h10.53.415,continuous_performance_test,2024.2.4,MacIntel,60.24096386,c4709aa7-5f61-41da-8334-e9e512ccd54c,5,327.4194,329.4175,space,1,0,17,17,10,1,K,space,0.3689,,,,,,,,,,,
,,,,,R_4GHLGbjadqvvKHy,001,2025-08-14_07h10.53.415,continuous_performance_test,2024.2.4,MacIntel,60.24096386,c4709aa7-5f61-41da-8334-e9e512ccd54c,5,329.4188,331.067,space,1,0,18,18,3,1,D,space,0.3409,,,,,,,,,,,
,,,,,R_4GHLGbjadqvvKHy,001,2025-08-14_07h10.53.415,continuous_performance_test,2024.2.4,MacIntel,60.24096386,c4709aa7-5f61-41da-8334-e9e512ccd54c,5,331.068,333.0172,space,1,0,19,19,6,1,G,space,0.331,,,,,,,,,,,
,,,,,R_4GHLGbjadqvvKHy,001,2025-08-14_07h10.53.415,continuous_performance_test,2024.2.4,MacIntel,60.24096386,c4709aa7-5f61-41da-8334-e9e512ccd54c,5,333.0186,334.818,space,1,0,20,20,4,1,E,space,0.3375,,,,,,,,,,,
,,,,,R_4GHLGbjadqvvKHy,001,2025-08-14_07h10.53.415,continuous_performance_test,2024.2.4,MacIntel,60.24096386,c4709aa7-5f61-41da-8334-e9e512ccd54c,5,334.8193,336.518,space,1,0,21,21,19,1,T,space,0.364,,,,,,,,,,,
,,,,,R_4GHLGbjadqvvKHy,001,2025-08-14_07h10.53.415,continuous_performance_test,2024.2.4,MacIntel,60.24096386,c4709aa7-5f61-41da-8334-e9e512ccd54c,5,336.5194,338.4181,space,1,0,22,22,22,1,W,space,0.3244,,,,,,,,,,,
,,,,,R_4GHLGbjadqvvKHy,001,2025-08-14_07h10.53.415,continuous_performance_test,2024.2.4,MacIntel,60.24096386,c4709aa7-5f61-41da-8334-e9e512ccd54c,5,338.4196,340.4181,space,1,0,23,23,14,1,O,space,0.3135,,,,,,,,,,,
,,,,,R_4GHLGbjadqvvKHy,001,2025-08-14_07h10.53.415,continuous_performance_test,2024.2.4,MacIntel,60.24096386,c4709aa7-5f61-41da-8334-e9e512ccd54c,5,340.4195,341.9678,space,1,0,24,24,24,1,Z,space,0.2961,,,,,,,,,,,
,,,,,R_4GHLGbjadqvvKHy,001,2025-08-14_07h10.53.415,continuous_performance_test,2024.2.4,MacIntel,60.24096386,c4709aa7-5f61-41da-8334-e9e512ccd54c,5,341.9687,343.6181,space,1,0,25,25,5,1,F,space,0.3196,,,,,,,,,,,
,,,,,R_4GHLGbjadqvvKHy,001,2025-08-14_07h10.53.415,continuous_performance_test,2024.2.4,MacIntel,60.24096386,c4709aa7-5f61-41da-8334-e9e512ccd54c,5,343.6194,345.2672,space,1,0,26,26,1,1,B,space,0.3506,,,,,,,,,,,
,,,,,R_4GHLGbjadqvvKHy,001,2025-08-14_07h10.53.415,continuous_performance_test,2024.2.4,MacIntel,60.24096386,c4709aa7-5f61-41da-8334-e9e512ccd54c,5,345.2686,347.118,space,1,0,27,27,2,1,C,space,0.3642,,,,,,,,,,,
,,,,,R_4GHLGbjadqvvKHy,001,2025-08-14_07h10.53.415,continuous_performance_test,2024.2.4,MacIntel,60.24096386,c4709aa7-5f61-41da-8334-e9e512ccd54c,5,347.1194,348.7681,space,1,0,28,28,17,1,R,space,0.3904,,,,,,,,,,,
,,,,,R_4GHLGbjadqvvKHy,001,2025-08-14_07h10.53.415,continuous_performance_test,2024.2.4,MacIntel,60.24096386,c4709aa7-5f61-41da-8334-e9e512ccd54c,5,348.7694,350.7681,space,1,0,29,29,11,1,L,space,0.3499,,,,,,,,,,,
,,,,,R_4GHLGbjadqvvKHy,001,2025-08-14_07h10.53.415,continuous_performance_test,2024.2.4,MacIntel,60.24096386,c4709aa7-5f61-41da-8334-e9e512ccd54c,5,355.2233,357.0181,space,1,0,0,0,5,1,F,space,0.4154,,350.7693,355.2181,space,4.4334,,,,,,
,,,,,R_4GHLGbjadqvvKHy,001,2025-08-14_07h10.53.415,continuous_performance_test,2024.2.4,MacIntel,60.24096386,c4709aa7-5f61-41da-8334-e9e512ccd54c,5,357.0195,358.9681,space,1,0,1,1,22,1,W,space,0.3883,,,,,,,,,,,
,,,,,R_4GHLGbjadqvvKHy,001,2025-08-14_07h10.53.415,continuous_performance_test,2024.2.4,MacIntel,60.24096386,c4709aa7-5f61-41da-8334-e9e512ccd54c,5,358.9694,360.8681,,1,0,2,2,27,1,X,,,,,,,,,,,,,
,,,,,R_4GHLGbjadqvvKHy,001,2025-08-14_07h10.53.415,continuous_performance_test,2024.2.4,MacIntel,60.24096386,c4709aa7-5f61-41da-8334-e9e512ccd54c,5,360.8695,362.618,space,1,0,3,3,9,1,J,space,0.3406,,,,,,,,,,,
,,,,,R_4GHLGbjadqvvKHy,001,2025-08-14_07h10.53.415,continuous_performance_test,2024.2.4,MacIntel,60.24096386,c4709aa7-5f61-41da-8334-e9e512ccd54c,5,362.6194,364.5178,space,1,0,4,4,24,1,Z,space,0.3491,,,,,,,,,,,
,,,,,R_4GHLGbjadqvvKHy,001,2025-08-14_07h10.53.415,continuous_performance_test,2024.2.4,MacIntel,60.24096386,c4709aa7-5f61-41da-8334-e9e512ccd54c,5,364.5184,366.318,space,1,0,5,5,7,1,H,space,0.3137,,,,,,,,,,,
,,,,,R_4GHLGbjadqvvKHy,001,2025-08-14_07h10.53.415,continuous_performance_test,2024.2.4,MacIntel,60.24096386,c4709aa7-5f61-41da-8334-e9e512ccd54c,5,366.3194,368.218,space,0,0,6,6,25,1,X,,0.3229,,,,,,,,,,,
,,,,,R_4GHLGbjadqvvKHy,001,2025-08-14_07h10.53.415,continuous_performance_test,2024.2.4,MacIntel,60.24096386,c4709aa7-5f61-41da-8334-e9e512ccd54c,5,368.2194,370.0681,space,1,0,7,7,11,1,L,space,0.3015,,,,,,,,,,,
,,,,,R_4GHLGbjadqvvKHy,001,2025-08-14_07h10.53.415,continuous_performance_test,2024.2.4,MacIntel,60.24096386,c4709aa7-5f61-41da-8334-e9e512ccd54c,5,370.0694,371.6172,space,1,0,8,8,16,1,Q,space,0.3472,,,,,,,,,,,
,,,,,R_4GHLGbjadqvvKHy,001,2025-08-14_07h10.53.415,continuous_performance_test,2024.2.4,MacIntel,60.24096386,c4709aa7-5f61-41da-8334-e9e512ccd54c,5,371.6186,373.5679,space,1,0,9,9,0,1,A,space,0.3963,,,,,,,,,,,
,,,,,R_4GHLGbjadqvvKHy,001,2025-08-14_07h10.53.415,continuous_performance_test,2024.2.4,MacIntel,60.24096386,c4709aa7-5f61-41da-8334-e9e512ccd54c,5,373.5688,375.1177,space,1,0,10,10,8,1,I,space,0.4267,,,,,,,,,,,
,,,,,R_4GHLGbjadqvvKHy,001,2025-08-14_07h10.53.415,continuous_performance_test,2024.2.4,MacIntel,60.24096386,c4709aa7-5f61-41da-8334-e9e512ccd54c,5,375.1186,377.1181,space,1,0,11,11,20,1,U,space,0.4235,,,,,,,,,,,
,,,,,R_4GHLGbjadqvvKHy,001,2025-08-14_07h10.53.415,continuous_performance_test,2024.2.4,MacIntel,60.24096386,c4709aa7-5f61-41da-8334-e9e512ccd54c,5,377.1195,378.668,,1,0,12,12,28,1,X,,,,,,,,,,,,,
,,,,,R_4GHLGbjadqvvKHy,001,2025-08-14_07h10.53.415,continuous_performance_test,2024.2.4,MacIntel,60.24096386,c4709aa7-5f61-41da-8334-e9e512ccd54c,5,378.6694,380.6679,space,1,0,13,13,18,1,S,space,0.3504,,,,,,,,,,,
,,,,,R_4GHLGbjadqvvKHy,001,2025-08-14_07h10.53.415,continuous_performance_test,2024.2.4,MacIntel,60.24096386,c4709aa7-5f61-41da-8334-e9e512ccd54c,5,380.6693,382.468,,1,0,14,14,26,1,X,,,,,,,,,,,,,
,,,,,R_4GHLGbjadqvvKHy,001,2025-08-14_07h10.53.415,continuous_performance_test,2024.2.4,MacIntel,60.24096386,c4709aa7-5f61-41da-8334-e9e512ccd54c,5,382.4694,384.2182,space,1,0,15,15,2,1,C,space,0.3648,,,,,,,,,,,
,,,,,R_4GHLGbjadqvvKHy,001,2025-08-14_07h10.53.415,continuous_performance_test,2024.2.4,MacIntel,60.24096386,c4709aa7-5f61-41da-8334-e9e512ccd54c,5,384.2195,385.8676,space,1,0,16,16,4,1,E,space,0.3143,,,,,,,,,,,
,,,,,R_4GHLGbjadqvvKHy,001,2025-08-14_07h10.53.415,continuous_performance_test,2024.2.4,MacIntel,60.24096386,c4709aa7-5f61-41da-8334-e9e512ccd54c,5,385.8681,387.7672,space,1,0,17,17,19,1,T,space,0.3243,,,,,,,,,,,
,,,,,R_4GHLGbjadqvvKHy,001,2025-08-14_07h10.53.415,continuous_performance_test,2024.2.4,MacIntel,60.24096386,c4709aa7-5f61-41da-8334-e9e512ccd54c,5,387.7685,389.5674,space,1,0,18,18,3,1,D,space,0.3904,,,,,,,,,,,
,,,,,R_4GHLGbjadqvvKHy,001,2025-08-14_07h10.53.415,continuous_performance_test,2024.2.4,MacIntel,60.24096386,c4709aa7-5f61-41da-8334-e9e512ccd54c,5,389.5688,391.368,space,1,0,19,19,10,1,K,space,0.4308,,,,,,,,,,,
,,,,,R_4GHLGbjadqvvKHy,001,2025-08-14_07h10.53.415,continuous_performance_test,2024.2.4,MacIntel,60.24096386,c4709aa7-5f61-41da-8334-e9e512ccd54c,5,391.3693,393.3681,space,1,0,20,20,6,1,G,space,0.398,,,,,,,,,,,
,,,,,R_4GHLGbjadqvvKHy,001,2025-08-14_07h10.53.415,continuous_performance_test,2024.2.4,MacIntel,60.24096386,c4709aa7-5f61-41da-8334-e9e512ccd54c,5,393.3694,394.9681,space,1,0,21,21,23,1,Y,space,0.3888,,,,,,,,,,,
,,,,,R_4GHLGbjadqvvKHy,001,2025-08-14_07h10.53.415,continuous_performance_test,2024.2.4,MacIntel,60.24096386,c4709aa7-5f61-41da-8334-e9e512ccd54c,5,394.9694,396.6178,,1,0,22,22,29,1,X,,,,,,,,,,,,,
,,,,,R_4GHLGbjadqvvKHy,001,2025-08-14_07h10.53.415,continuous_performance_test,2024.2.4,MacIntel,60.24096386,c4709aa7-5f61-41da-8334-e9e512ccd54c,5,396.6187,398.5181,space,1,0,23,23,17,1,R,space,0.4472,,,,,,,,,,,
,,,,,R_4GHLGbjadqvvKHy,001,2025-08-14_07h10.53.415,continuous_performance_test,2024.2.4,MacIntel,60.24096386,c4709aa7-5f61-41da-8334-e9e512ccd54c,5,398.5194,400.418,space,1,0,24,24,21,1,V,space,0.5073,,,,,,,,,,,
,,,,,R_4GHLGbjadqvvKHy,001,2025-08-14_07h10.53.415,continuous_performance_test,2024.2.4,MacIntel,60.24096386,c4709aa7-5f61-41da-8334-e9e512ccd54c,5,400.4193,402.418,space,1,0,25,25,14,1,O,space,0.4137,,,,,,,,,,,
,,,,,R_4GHLGbjadqvvKHy,001,2025-08-14_07h10.53.415,continuous_performance_test,2024.2.4,MacIntel,60.24096386,c4709aa7-5f61-41da-8334-e9e512ccd54c,5,402.4194,404.168,space,1,0,26,26,12,1,M,space,0.374,,,,,,,,,,,
,,,,,R_4GHLGbjadqvvKHy,001,2025-08-14_07h10.53.415,continuous_performance_test,2024.2.4,MacIntel,60.24096386,c4709aa7-5f61-41da-8334-e9e512ccd54c,5,404.1694,406.1178,space,1,0,27,27,15,1,P,space,0.4243,,,,,,,,,,,
,,,,,R_4GHLGbjadqvvKHy,001,2025-08-14_07h10.53.415,continuous_performance_test,2024.2.4,MacIntel,60.24096386,c4709aa7-5f61-41da-8334-e9e512ccd54c,5,406.1187,408.0675,space,1,0,28,28,13,1,N,space,0.4684,,,,,,,,,,,
,,,,,R_4GHLGbjadqvvKHy,001,2025-08-14_07h10.53.415,continuous_performance_test,2024.2.4,MacIntel,60.24096386,c4709aa7-5f61-41da-8334-e9e512ccd54c,5,408.069,409.668,space,1,0,29,29,1,1,B,space,0.5843,,,,,,,,,,,
,,,,,R_4GHLGbjadqvvKHy,001,2025-08-14_07h10.53.415,continuous_performance_test,2024.2.4,MacIntel,60.24096386,c4709aa7-5f61-41da-8334-e9e512ccd54c,5,415.7562,417.6011,space,1,0,0,0,18,1,S,space,0.4713,,409.6693,415.7514,space,6.0652,,,,,,
,,,,,R_4GHLGbjadqvvKHy,001,2025-08-14_07h10.53.415,continuous_performance_test,2024.2.4,MacIntel,60.24096386,c4709aa7-5f61-41da-8334-e9e512ccd54c,5,417.6021,419.2513,space,1,0,1,1,6,1,G,space,0.3595,,,,,,,,,,,
,,,,,R_4GHLGbjadqvvKHy,001,2025-08-14_07h10.53.415,continuous_performance_test,2024.2.4,MacIntel,60.24096386,c4709aa7-5f61-41da-8334-e9e512ccd54c,5,419.2527,420.8512,space,1,0,2,2,21,1,V,space,0.3988,,,,,,,,,,,
,,,,,R_4GHLGbjadqvvKHy,001,2025-08-14_07h10.53.415,continuous_performance_test,2024.2.4,MacIntel,60.24096386,c4709aa7-5f61-41da-8334-e9e512ccd54c,5,420.8523,422.8513,space,1,0,3,3,8,1,I,space,0.3467,,,,,,,,,,,
,,,,,R_4GHLGbjadqvvKHy,001,2025-08-14_07h10.53.415,continuous_performance_test,2024.2.4,MacIntel,60.24096386,c4709aa7-5f61-41da-8334-e9e512ccd54c,5,422.8528,424.4014,space,1,0,4,4,19,1,T,space,0.3969,,,,,,,,,,,
,,,,,R_4GHLGbjadqvvKHy,001,2025-08-14_07h10.53.415,continuous_performance_test,2024.2.4,MacIntel,60.24096386,c4709aa7-5f61-41da-8334-e9e512ccd54c,5,424.4027,426.2014,space,1,0,5,5,16,1,Q,space,0.3324,,,,,,,,,,,
,,,,,R_4GHLGbjadqvvKHy,001,2025-08-14_07h10.53.415,continuous_performance_test,2024.2.4,MacIntel,60.24096386,c4709aa7-5f61-41da-8334-e9e512ccd54c,5,426.2028,427.8511,,1,0,6,6,27,1,X,,,,,,,,,,,,,
,,,,,R_4GHLGbjadqvvKHy,001,2025-08-14_07h10.53.415,continuous_performance_test,2024.2.4,MacIntel,60.24096386,c4709aa7-5f61-41da-8334-e9e512ccd54c,5,427.8518,429.5013,space,1,0,7,7,4,1,E,space,0.36,,,,,,,,,,,
,,,,,R_4GHLGbjadqvvKHy,001,2025-08-14_07h10.53.415,continuous_performance_test,2024.2.4,MacIntel,60.24096386,c4709aa7-5f61-41da-8334-e9e512ccd54c,5,429.5027,431.5011,space,1,0,8,8,14,1,O,space,0.457,,,,,,,,,,,
,,,,,R_4GHLGbjadqvvKHy,001,2025-08-14_07h10.53.415,continuous_performance_test,2024.2.4,MacIntel,60.24096386,c4709aa7-5f61-41da-8334-e9e512ccd54c,5,431.5024,433.4013,space,1,0,9,9,10,1,K,space,0.5329,,,,,,,,,,,
,,,,,R_4GHLGbjadqvvKHy,001,2025-08-14_07h10.53.415,continuous_performance_test,2024.2.4,MacIntel,60.24096386,c4709aa7-5f61-41da-8334-e9e512ccd54c,5,433.4027,435.1514,,1,0,10,10,28,1,X,,,,,,,,,,,,,
,,,,,R_4GHLGbjadqvvKHy,001,2025-08-14_07h10.53.415,continuous_performance_test,2024.2.4,MacIntel,60.24096386,c4709aa7-5f61-41da-8334-e9e512ccd54c,5,435.1528,436.7513,space,1,0,11,11,24,1,Z,space,0.3643,,,,,,,,,,,
,,,,,R_4GHLGbjadqvvKHy,001,2025-08-14_07h10.53.415,continuous_performance_test,2024.2.4,MacIntel,60.24096386,c4709aa7-5f61-41da-8334-e9e512ccd54c,5,436.7527,438.501,space,1,0,12,12,7,1,H,space,0.297,,,,,,,,,,,
,,,,,R_4GHLGbjadqvvKHy,001,2025-08-14_07h10.53.415,continuous_performance_test,2024.2.4,MacIntel,60.24096386,c4709aa7-5f61-41da-8334-e9e512ccd54c,5,438.5019,440.451,space,1,0,13,13,17,1,R,space,0.3226,,,,,,,,,,,
,,,,,R_4GHLGbjadqvvKHy,001,2025-08-14_07h10.53.415,continuous_performance_test,2024.2.4,MacIntel,60.24096386,c4709aa7-5f61-41da-8334-e9e512ccd54c,5,440.4524,442.3514,space,1,0,14,14,3,1,D,space,0.3637,,,,,,,,,,,
,,,,,R_4GHLGbjadqvvKHy,001,2025-08-14_07h10.53.415,continuous_performance_test,2024.2.4,MacIntel,60.24096386,c4709aa7-5f61-41da-8334-e9e512ccd54c,5,442.3527,444.2014,space,1,0,15,15,11,1,L,space,0.3639,,,,,,,,,,,
,,,,,R_4GHLGbjadqvvKHy,001,2025-08-14_07h10.53.415,continuous_performance_test,2024.2.4,MacIntel,60.24096386,c4709aa7-5f61-41da-8334-e9e512ccd54c,5,444.2027,446.2013,space,1,0,16,16,23,1,Y,space,0.4725,,,,,,,,,,,
,,,,,R_4GHLGbjadqvvKHy,001,2025-08-14_07h10.53.415,continuous_performance_test,2024.2.4,MacIntel,60.24096386,c4709aa7-5f61-41da-8334-e9e512ccd54c,5,446.2027,447.9013,space,1,0,17,17,22,1,W,space,0.3471,,,,,,,,,,,
,,,,,R_4GHLGbjadqvvKHy,001,2025-08-14_07h10.53.415,continuous_performance_test,2024.2.4,MacIntel,60.24096386,c4709aa7-5f61-41da-8334-e9e512ccd54c,5,447.9027,449.6011,space,1,0,18,18,1,1,B,space,0.3628,,,,,,,,,,,
,,,,,R_4GHLGbjadqvvKHy,001,2025-08-14_07h10.53.415,continuous_performance_test,2024.2.4,MacIntel,60.24096386,c4709aa7-5f61-41da-8334-e9e512ccd54c,5,449.602,451.1515,,1,0,19,19,25,1,X,,,,,,,,,,,,,
,,,,,R_4GHLGbjadqvvKHy,001,2025-08-14_07h10.53.415,continuous_performance_test,2024.2.4,MacIntel,60.24096386,c4709aa7-5f61-41da-8334-e9e512ccd54c,5,451.1528,453.0514,space,1,0,20,20,0,1,A,space,0.3637,,,,,,,,,,,
,,,,,R_4GHLGbjadqvvKHy,001,2025-08-14_07h10.53.415,continuous_performance_test,2024.2.4,MacIntel,60.24096386,c4709aa7-5f61-41da-8334-e9e512ccd54c,5,453.0528,454.9514,space,1,0,21,21,13,1,N,space,0.3641,,,,,,,,,,,
,,,,,R_4GHLGbjadqvvKHy,001,2025-08-14_07h10.53.415,continuous_performance_test,2024.2.4,MacIntel,60.24096386,c4709aa7-5f61-41da-8334-e9e512ccd54c,5,454.9527,456.8514,space,1,0,22,22,2,1,C,space,0.3908,,,,,,,,,,,
,,,,,R_4GHLGbjadqvvKHy,001,2025-08-14_07h10.53.415,continuous_performance_test,2024.2.4,MacIntel,60.24096386,c4709aa7-5f61-41da-8334-e9e512ccd54c,5,456.8528,458.4513,space,1,0,23,23,15,1,P,space,0.2968,,,,,,,,,,,
,,,,,R_4GHLGbjadqvvKHy,001,2025-08-14_07h10.53.415,continuous_performance_test,2024.2.4,MacIntel,60.24096386,c4709aa7-5f61-41da-8334-e9e512ccd54c,5,458.4526,460.0511,,1,0,24,24,26,1,X,,,,,,,,,,,,,
,,,,,R_4GHLGbjadqvvKHy,001,2025-08-14_07h10.53.415,continuous_performance_test,2024.2.4,MacIntel,60.24096386,c4709aa7-5f61-41da-8334-e9e512ccd54c,5,460.0516,462.0004,space,1,0,25,25,9,1,J,space,0.372,,,,,,,,,,,
,,,,,R_4GHLGbjadqvvKHy,001,2025-08-14_07h10.53.415,continuous_performance_test,2024.2.4,MacIntel,60.24096386,c4709aa7-5f61-41da-8334-e9e512ccd54c,5,462.0018,463.5514,space,1,0,26,26,12,1,M,space,0.3969,,,,,,,,,,,
,,,,,R_4GHLGbjadqvvKHy,001,2025-08-14_07h10.53.415,continuous_performance_test,2024.2.4,MacIntel,60.24096386,c4709aa7-5f61-41da-8334-e9e512ccd54c,5,463.5528,465.1513,,1,0,27,27,29,1,X,,,,,,,,,,,,,
,,,,,R_4GHLGbjadqvvKHy,001,2025-08-14_07h10.53.415,continuous_performance_test,2024.2.4,MacIntel,60.24096386,c4709aa7-5f61-41da-8334-e9e512ccd54c,5,465.1527,466.8013,space,1,0,28,28,20,1,U,space,0.3056,,,,,,,,,,,
,,,,,R_4GHLGbjadqvvKHy,001,2025-08-14_07h10.53.415,continuous_performance_test,2024.2.4,MacIntel,60.24096386,c4709aa7-5f61-41da-8334-e9e512ccd54c,5,466.8024,468.7014,space,1,0,29,29,5,1,F,space,0.4814,,,,,,,,,,,
,,,,,R_4GHLGbjadqvvKHy,001,2025-08-14_07h10.53.415,continuous_performance_test,2024.2.4,MacIntel,60.24096386,c4709aa7-5f61-41da-8334-e9e512ccd54c,5,472.9743,474.718,space,1,0,0,0,19,1,T,space,0.3746,,468.7026,472.9682,space,4.2432,,,,,,
,,,,,R_4GHLGbjadqvvKHy,001,2025-08-14_07h10.53.415,continuous_performance_test,2024.2.4,MacIntel,60.24096386,c4709aa7-5f61-41da-8334-e9e512ccd54c,5,474.7193,476.6181,,1,0,1,1,25,1,X,,,,,,,,,,,,,
,,,,,R_4GHLGbjadqvvKHy,001,2025-08-14_07h10.53.415,continuous_performance_test,2024.2.4,MacIntel,60.24096386,c4709aa7-5f61-41da-8334-e9e512ccd54c,5,476.6192,478.4671,,1,0,2,2,29,1,X,,,,,,,,,,,,,
,,,,,R_4GHLGbjadqvvKHy,001,2025-08-14_07h10.53.415,continuous_performance_test,2024.2.4,MacIntel,60.24096386,c4709aa7-5f61-41da-8334-e9e512ccd54c,5,478.4685,480.168,space,1,0,3,3,6,1,G,space,0.3975,,,,,,,,,,,
,,,,,R_4GHLGbjadqvvKHy,001,2025-08-14_07h10.53.415,continuous_performance_test,2024.2.4,MacIntel,60.24096386,c4709aa7-5f61-41da-8334-e9e512ccd54c,5,480.1694,482.0677,space,1,0,4,4,17,1,R,space,0.3575,,,,,,,,,,,
,,,,,R_4GHLGbjadqvvKHy,001,2025-08-14_07h10.53.415,continuous_performance_test,2024.2.4,MacIntel,60.24096386,c4709aa7-5f61-41da-8334-e9e512ccd54c,5,482.0686,484.0671,,1,0,5,5,26,1,X,,,,,,,,,,,,,
,,,,,R_4GHLGbjadqvvKHy,001,2025-08-14_07h10.53.415,continuous_performance_test,2024.2.4,MacIntel,60.24096386,c4709aa7-5f61-41da-8334-e9e512ccd54c,5,484.0684,485.767,space,1,0,6,6,13,1,N,space,0.4148,,,,,,,,,,,
,,,,,R_4GHLGbjadqvvKHy,001,2025-08-14_07h10.53.415,continuous_performance_test,2024.2.4,MacIntel,60.24096386,c4709aa7-5f61-41da-8334-e9e512ccd54c,5,485.7684,487.7171,space,1,0,7,7,20,1,U,space,0.4393,,,,,,,,,,,
,,,,,R_4GHLGbjadqvvKHy,001,2025-08-14_07h10.53.415,continuous_performance_test,2024.2.4,MacIntel,60.24096386,c4709aa7-5f61-41da-8334-e9e512ccd54c,5,487.7186,489.368,space,1,0,8,8,24,1,Z,space,0.3332,,,,,,,,,,,
,,,,,R_4GHLGbjadqvvKHy,001,2025-08-14_07h10.53.415,continuous_performance_test,2024.2.4,MacIntel,60.24096386,c4709aa7-5f61-41da-8334-e9e512ccd54c,5,489.3693,490.918,space,1,0,9,9,4,1,E,space,0.397,,,,,,,,,,,
,,,,,R_4GHLGbjadqvvKHy,001,2025-08-14_07h10.53.415,continuous_performance_test,2024.2.4,MacIntel,60.24096386,c4709aa7-5f61-41da-8334-e9e512ccd54c,5,490.9194,492.4677,space,1,0,10,10,1,1,B,space,0.4013,,,,,,,,,,,
,,,,,R_4GHLGbjadqvvKHy,001,2025-08-14_07h10.53.415,continuous_performance_test,2024.2.4,MacIntel,60.24096386,c4709aa7-5f61-41da-8334-e9e512ccd54c,5,492.4687,494.4166,,1,0,11,11,28,1,X,,,,,,,,,,,,,
,,,,,R_4GHLGbjadqvvKHy,001,2025-08-14_07h10.53.415,continuous_performance_test,2024.2.4,MacIntel,60.24096386,c4709aa7-5f61-41da-8334-e9e512ccd54c,5,494.417,496.018,space,1,0,12,12,21,1,V,space,0.3682,,,,,,,,,,,
,,,,,R_4GHLGbjadqvvKHy,001,2025-08-14_07h10.53.415,continuous_performance_test,2024.2.4,MacIntel,60.24096386,c4709aa7-5f61-41da-8334-e9e512ccd54c,5,496.0194,497.817,space,1,0,13,13,10,1,K,space,0.4741,,,,,,,,,,,
,,,,,R_4GHLGbjadqvvKHy,001,2025-08-14_07h10.53.415,continuous_performance_test,2024.2.4,MacIntel,60.24096386,c4709aa7-5f61-41da-8334-e9e512ccd54c,5,497.8183,499.4681,space,1,0,14,14,18,1,S,space,0.4136,,,,,,,,,,,
,,,,,R_4GHLGbjadqvvKHy,001,2025-08-14_07h10.53.415,continuous_performance_test,2024.2.4,MacIntel,60.24096386,c4709aa7-5f61-41da-8334-e9e512ccd54c,5,499.4694,501.117,space,1,0,15,15,15,1,P,space,0.3909,,,,,,,,,,,
,,,,,R_4GHLGbjadqvvKHy,001,2025-08-14_07h10.53.415,continuous_performance_test,2024.2.4,MacIntel,60.24096386,c4709aa7-5f61-41da-8334-e9e512ccd54c,5,501.1184,502.8677,space,1,0,16,16,23,1,Y,space,0.4631,,,,,,,,,,,
,,,,,R_4GHLGbjadqvvKHy,001,2025-08-14_07h10.53.415,continuous_performance_test,2024.2.4,MacIntel,60.24096386,c4709aa7-5f61-41da-8334-e9e512ccd54c,5,502.8684,504.867,space,1,0,17,17,3,1,D,space,0.3863,,,,,,,,,,,
,,,,,R_4GHLGbjadqvvKHy,001,2025-08-14_07h10.53.415,continuous_performance_test,2024.2.4,MacIntel,60.24096386,c4709aa7-5f61-41da-8334-e9e512ccd54c,5,504.8683,506.6671,space,1,0,18,18,22,1,W,space,0.3731,,,,,,,,,,,
,,,,,R_4GHLGbjadqvvKHy,001,2025-08-14_07h10.53.415,continuous_performance_test,2024.2.4,MacIntel,60.24096386,c4709aa7-5f61-41da-8334-e9e512ccd54c,5,506.6684,508.5679,space,1,0,19,19,16,1,Q,space,0.3406,,,,,,,,,,,
,,,,,R_4GHLGbjadqvvKHy,001,2025-08-14_07h10.53.415,continuous_performance_test,2024.2.4,MacIntel,60.24096386,c4709aa7-5f61-41da-8334-e9e512ccd54c,5,508.5693,510.2179,space,1,0,20,20,2,1,C,space,0.3323,,,,,,,,,,,
,,,,,R_4GHLGbjadqvvKHy,001,2025-08-14_07h10.53.415,continuous_performance_test,2024.2.4,MacIntel,60.24096386,c4709aa7-5f61-41da-8334-e9e512ccd54c,5,510.2192,511.9681,space,1,0,21,21,0,1,A,space,0.3645,,,,,,,,,,,
,,,,,R_4GHLGbjadqvvKHy,001,2025-08-14_07h10.53.415,continuous_performance_test,2024.2.4,MacIntel,60.24096386,c4709aa7-5f61-41da-8334-e9e512ccd54c,5,511.9694,513.6177,space,1,0,22,22,7,1,H,space,0.3574,,,,,,,,,,,
,,,,,R_4GHLGbjadqvvKHy,001,2025-08-14_07h10.53.415,continuous_performance_test,2024.2.4,MacIntel,60.24096386,c4709aa7-5f61-41da-8334-e9e512ccd54c,5,513.6185,515.3676,space,1,0,23,23,8,1,I,space,0.3858,,,,,,,,,,,
,,,,,R_4GHLGbjadqvvKHy,001,2025-08-14_07h10.53.415,continuous_performance_test,2024.2.4,MacIntel,60.24096386,c4709aa7-5f61-41da-8334-e9e512ccd54c,5,515.3681,517.368,space,1,0,24,24,14,1,O,space,0.3803,,,,,,,,,,,
,,,,,R_4GHLGbjadqvvKHy,001,2025-08-14_07h10.53.415,continuous_performance_test,2024.2.4,MacIntel,60.24096386,c4709aa7-5f61-41da-8334-e9e512ccd54c,5,517.3695,519.2673,space,1,0,25,25,12,1,M,space,0.347,,,,,,,,,,,
,,,,,R_4GHLGbjadqvvKHy,001,2025-08-14_07h10.53.415,continuous_performance_test,2024.2.4,MacIntel,60.24096386,c4709aa7-5f61-41da-8334-e9e512ccd54c,5,519.2688,520.8177,space,1,0,26,26,11,1,L,space,0.3672,,,,,,,,,,,
,,,,,R_4GHLGbjadqvvKHy,001,2025-08-14_07h10.53.415,continuous_performance_test,2024.2.4,MacIntel,60.24096386,c4709aa7-5f61-41da-8334-e9e512ccd54c,5,520.819,522.8179,space,1,0,27,27,9,1,J,space,0.3806,,,,,,,,,,,
,,,,,R_4GHLGbjadqvvKHy,001,2025-08-14_07h10.53.415,continuous_performance_test,2024.2.4,MacIntel,60.24096386,c4709aa7-5f61-41da-8334-e9e512ccd54c,5,522.8194,524.8177,,1,0,28,28,27,1,X,,,,,,,,,,,,,
,,,,,R_4GHLGbjadqvvKHy,001,2025-08-14_07h10.53.415,continuous_performance_test,2024.2.4,MacIntel,60.24096386,c4709aa7-5f61-41da-8334-e9e512ccd54c,5,524.8186,526.5179,space,1,0,29,29,5,1,F,space,0.5019,,,,,,,,,,,
,,,,,R_4GHLGbjadqvvKHy,001,2025-08-14_07h10.53.415,continuous_performance_test,2024.2.4,MacIntel,60.24096386,c4709aa7-5f61-41da-8334-e9e512ccd54c,5,529.0739,530.6676,,1,0,0,0,25,1,X,,,,526.5191,529.0681,space,2.523,,,,,,
,,,,,R_4GHLGbjadqvvKHy,001,2025-08-14_07h10.53.415,continuous_performance_test,2024.2.4,MacIntel,60.24096386,c4709aa7-5f61-41da-8334-e9e512ccd54c,5,530.669,532.668,space,1,0,1,1,2,1,C,space,0.3972,,,,,,,,,,,
,,,,,R_4GHLGbjadqvvKHy,001,2025-08-14_07h10.53.415,continuous_performance_test,2024.2.4,MacIntel,60.24096386,c4709aa7-5f61-41da-8334-e9e512ccd54c,5,532.6693,534.368,,1,0,2,2,29,1,X,,,,,,,,,,,,,
,,,,,R_4GHLGbjadqvvKHy,001,2025-08-14_07h10.53.415,continuous_performance_test,2024.2.4,MacIntel,60.24096386,c4709aa7-5f61-41da-8334-e9e512ccd54c,5,534.3695,535.9177,space,1,0,3,3,5,1,F,space,0.3641,,,,,,,,,,,
,,,,,R_4GHLGbjadqvvKHy,001,2025-08-14_07h10.53.415,continuous_performance_test,2024.2.4,MacIntel,60.24096386,c4709aa7-5f61-41da-8334-e9e512ccd54c,5,535.9186,537.518,space,1,0,4,4,8,1,I,space,0.4255,,,,,,,,,,,
,,,,,R_4GHLGbjadqvvKHy,001,2025-08-14_07h10.53.415,continuous_performance_test,2024.2.4,MacIntel,60.24096386,c4709aa7-5f61-41da-8334-e9e512ccd54c,5,537.5194,539.3671,space,1,0,5,5,20,1,U,space,0.3635,,,,,,,,,,,
,,,,,R_4GHLGbjadqvvKHy,001,2025-08-14_07h10.53.415,continuous_performance_test,2024.2.4,MacIntel,60.24096386,c4709aa7-5f61-41da-8334-e9e512ccd54c,5,539.3684,540.9679,space,1,0,6,6,22,1,W,space,0.3311,,,,,,,,,,,
,,,,,R_4GHLGbjadqvvKHy,001,2025-08-14_07h10.53.415,continuous_performance_test,2024.2.4,MacIntel,60.24096386,c4709aa7-5f61-41da-8334-e9e512ccd54c,5,540.9692,542.818,space,1,0,7,7,1,1,B,space,0.3894,,,,,,,,,,,
,,,,,R_4GHLGbjadqvvKHy,001,2025-08-14_07h10.53.415,continuous_performance_test,2024.2.4,MacIntel,60.24096386,c4709aa7-5f61-41da-8334-e9e512ccd54c,5,542.8193,544.818,space,1,0,8,8,9,1,J,space,0.3993,,,,,,,,,,,
,,,,,R_4GHLGbjadqvvKHy,001,2025-08-14_07h10.53.415,continuous_performance_test,2024.2.4,MacIntel,60.24096386,c4709aa7-5f61-41da-8334-e9e512ccd54c,5,544.8193,546.3677,,1,0,9,9,26,1,X,,,,,,,,,,,,,
,,,,,R_4GHLGbjadqvvKHy,001,2025-08-14_07h10.53.415,continuous_performance_test,2024.2.4,MacIntel,60.24096386,c4709aa7-5f61-41da-8334-e9e512ccd54c,5,546.3685,548.1179,space,1,0,10,10,3,1,D,space,0.3362,,,,,,,,,,,
,,,,,R_4GHLGbjadqvvKHy,001,2025-08-14_07h10.53.415,continuous_performance_test,2024.2.4,MacIntel,60.24096386,c4709aa7-5f61-41da-8334-e9e512ccd54c,5,548.1192,549.967,space,1,0,11,11,6,1,G,space,0.3686,,,,,,,,,,,
,,,,,R_4GHLGbjadqvvKHy,001,2025-08-14_07h10.53.415,continuous_performance_test,2024.2.4,MacIntel,60.24096386,c4709aa7-5f61-41da-8334-e9e512ccd54c,5,549.9684,551.568,space,1,0,12,12,19,1,T,space,0.4642,,,,,,,,,,,
,,,,,R_4GHLGbjadqvvKHy,001,2025-08-14_07h10.53.415,continuous_performance_test,2024.2.4,MacIntel,60.24096386,c4709aa7-5f61-41da-8334-e9e512ccd54c,5,551.5693,553.1179,space,1,0,13,13,16,1,Q,space,0.331,,,,,,,,,,,
,,,,,R_4GHLGbjadqvvKHy,001,2025-08-14_07h10.53.415,continuous_performance_test,2024.2.4,MacIntel,60.24096386,c4709aa7-5f61-41da-8334-e9e512ccd54c,5,553.1193,554.6679,space,1,0,14,14,21,1,V,space,0.3727,,,,,,,,,,,
,,,,,R_4GHLGbjadqvvKHy,001,2025-08-14_07h10.53.415,continuous_performance_test,2024.2.4,MacIntel,60.24096386,c4709aa7-5f61-41da-8334-e9e512ccd54c,5,554.6694,556.6677,,1,0,15,15,28,1,X,,,,,,,,,,,,,
,,,,,R_4GHLGbjadqvvKHy,001,2025-08-14_07h10.53.415,continuous_performance_test,2024.2.4,MacIntel,60.24096386,c4709aa7-5f61-41da-8334-e9e512ccd54c,5,556.6691,558.5179,space,1,0,16,16,18,1,S,space,0.4273,,,,,,,,,,,
,,,,,R_4GHLGbjadqvvKHy,001,2025-08-14_07h10.53.415,continuous_performance_test,2024.2.4,MacIntel,60.24096386,c4709aa7-5f61-41da-8334-e9e512ccd54c,5,558.519,560.0679,space,1,0,17,17,14,1,O,space,0.3653,,,,,,,,,,,
,,,,,R_4GHLGbjadqvvKHy,001,2025-08-14_07h10.53.415,continuous_performance_test,2024.2.4,MacIntel,60.24096386,c4709aa7-5f61-41da-8334-e9e512ccd54c,5,560.0693,561.6179,space,1,0,18,18,4,1,E,space,0.3563,,,,,,,,,,,
,,,,,R_4GHLGbjadqvvKHy,001,2025-08-14_07h10.53.415,continuous_performance_test,2024.2.4,MacIntel,60.24096386,c4709aa7-5f61-41da-8334-e9e512ccd54c,5,561.6193,563.2679,space,1,0,19,19,11,1,L,space,0.3489,,,,,,,,,,,
,,,,,R_4GHLGbjadqvvKHy,001,2025-08-14_07h10.53.415,continuous_performance_test,2024.2.4,MacIntel,60.24096386,c4709aa7-5f61-41da-8334-e9e512ccd54c,5,563.2692,564.8176,,1,0,20,20,27,1,X,,,,,,,,,,,,,
,,,,,R_4GHLGbjadqvvKHy,001,2025-08-14_07h10.53.415,continuous_performance_test,2024.2.4,MacIntel,60.24096386,c4709aa7-5f61-41da-8334-e9e512ccd54c,5,564.819,566.767,space,1,0,21,21,7,1,H,space,0.4067,,,,,,,,,,,
,,,,,R_4GHLGbjadqvvKHy,001,2025-08-14_07h10.53.415,continuous_performance_test,2024.2.4,MacIntel,60.24096386,c4709aa7-5f61-41da-8334-e9e512ccd54c,5,566.7684,568.6177,space,1,0,22,22,17,1,R,space,0.4895,,,,,,,,,,,
,,,,,R_4GHLGbjadqvvKHy,001,2025-08-14_07h10.53.415,continuous_performance_test,2024.2.4,MacIntel,60.24096386,c4709aa7-5f61-41da-8334-e9e512ccd54c,5,568.6187,570.1679,space,1,0,23,23,24,1,Z,space,0.4107,,,,,,,,,,,
,,,,,R_4GHLGbjadqvvKHy,001,2025-08-14_07h10.53.415,continuous_performance_test,2024.2.4,MacIntel,60.24096386,c4709aa7-5f61-41da-8334-e9e512ccd54c,5,570.1693,572.117,space,1,0,24,24,12,1,M,space,0.464,,,,,,,,,,,
,,,,,R_4GHLGbjadqvvKHy,001,2025-08-14_07h10.53.415,continuous_performance_test,2024.2.4,MacIntel,60.24096386,c4709aa7-5f61-41da-8334-e9e512ccd54c,5,572.1184,574.117,space,1,0,25,25,23,1,Y,space,0.4401,,,,,,,,,,,
,,,,,R_4GHLGbjadqvvKHy,001,2025-08-14_07h10.53.415,continuous_performance_test,2024.2.4,MacIntel,60.24096386,c4709aa7-5f61-41da-8334-e9e512ccd54c,5,574.1184,576.1179,space,1,0,26,26,15,1,P,space,0.3968,,,,,,,,,,,
,,,,,R_4GHLGbjadqvvKHy,001,2025-08-14_07h10.53.415,continuous_performance_test,2024.2.4,MacIntel,60.24096386,c4709aa7-5f61-41da-8334-e9e512ccd54c,5,576.1192,577.9179,space,1,0,27,27,13,1,N,space,0.4143,,,,,,,,,,,
,,,,,R_4GHLGbjadqvvKHy,001,2025-08-14_07h10.53.415,continuous_performance_test,2024.2.4,MacIntel,60.24096386,c4709aa7-5f61-41da-8334-e9e512ccd54c,5,577.9193,579.5177,space,1,0,28,28,10,1,K,space,0.5428,,,,,,,,,,,
,,,,,R_4GHLGbjadqvvKHy,001,2025-08-14_07h10.53.415,continuous_performance_test,2024.2.4,MacIntel,60.24096386,c4709aa7-5f61-41da-8334-e9e512ccd54c,5,579.5186,581.3179,space,1,0,29,29,0,1,A,space,0.4573,,,,,,,,,,,
,,,,,R_4GHLGbjadqvvKHy,001,2025-08-14_07h10.53.415,continuous_performance_test,2024.2.4,MacIntel,60.24096386,c4709aa7-5f61-41da-8334-e9e512ccd54c,5,,,,,,,,,,,,,,581.3191,581.322,,,,581.3222,584.7181,space,3.383,
