Instructions.started,Instructions.stopped,key_resp.keys,key_resp.rt,key_resp.duration,participant,session,date,expName,psychopyVersion,OS,frameRate,realeye-tester-id,realeye-tester-quality_grade,Trial_noX.started,Trial_noX.stopped,response.keys,response.corr,response.rt,response.duration,trials_noX.thisRepN,trials_noX.thisTrialN,trials_noX.thisN,trials_noX.thisIndex,trials_noX.ran,letter,corrAns,BlockBreak.started,BlockBreak.stopped,key_instruct.keys,key_instruct.rt,key_instruct.duration,End_NoX.started,End_NoX.stopped,key_resp_end_noX.keys,key_resp_end_noX.rt,key_resp_end_noX.duration
0.002,12.728,space,12.645,,R_4HB6iecylB5JMS5,001,2025-09-08_20h20.03.658,continuous_performance_test,2024.2.4,Win32,59.95203837,53ea59fd-da83-4611-8f63-ff9cb4080cb3,4,,,,,,,,,,,,,,,,,,,,,,,
,,,,,R_4HB6iecylB5JMS5,001,2025-09-08_20h20.03.658,continuous_performance_test,2024.2.4,Win32,59.95203837,53ea59fd-da83-4611-8f63-ff9cb4080cb3,4,12.748,14.295,space,1,0.432,,0,0,0,4,1,E,space,,,,,,,,,,
,,,,,R_4HB6iecylB5JMS5,001,2025-09-08_20h20.03.658,continuous_performance_test,2024.2.4,Win32,59.95203837,53ea59fd-da83-4611-8f63-ff9cb4080cb3,4,14.299,15.846,space,1,0.267,,0,1,1,13,1,N,space,,,,,,,,,,
,,,,,R_4HB6iecylB5JMS5,001,2025-09-08_20h20.03.658,continuous_performance_test,2024.2.4,Win32,59.95203837,53ea59fd-da83-4611-8f63-ff9cb4080cb3,4,15.849,17.794,space,1,0.324,,0,2,2,7,1,H,space,,,,,,,,,,
,,,,,R_4HB6iecylB5JMS5,001,2025-09-08_20h20.03.658,continuous_performance_test,2024.2.4,Win32,59.95203837,53ea59fd-da83-4611-8f63-ff9cb4080cb3,4,17.798,19.594,space,1,0.262,,0,3,3,12,1,M,space,,,,,,,,,,
,,,,,R_4HB6iecylB5JMS5,001,2025-09-08_20h20.03.658,continuous_performance_test,2024.2.4,Win32,59.95203837,53ea59fd-da83-4611-8f63-ff9cb4080cb3,4,19.598,21.394,space,1,0.295,,0,4,4,9,1,J,space,,,,,,,,,,
,,,,,R_4HB6iecylB5JMS5,001,2025-09-08_20h20.03.658,continuous_performance_test,2024.2.4,Win32,59.95203837,53ea59fd-da83-4611-8f63-ff9cb4080cb3,4,21.399,23.297,space,1,0.303,,0,5,5,15,1,P,space,,,,,,,,,,
,,,,,R_4HB6iecylB5JMS5,001,2025-09-08_20h20.03.658,continuous_performance_test,2024.2.4,Win32,59.95203837,53ea59fd-da83-4611-8f63-ff9cb4080cb3,4,23.301,25.245,space,1,0.349,,0,6,6,10,1,K,space,,,,,,,,,,
,,,,,R_4HB6iecylB5JMS5,001,2025-09-08_20h20.03.658,continuous_performance_test,2024.2.4,Win32,59.95203837,53ea59fd-da83-4611-8f63-ff9cb4080cb3,4,25.249,27.195,space,1,0.331,,0,7,7,20,1,U,space,,,,,,,,,,
,,,,,R_4HB6iecylB5JMS5,001,2025-09-08_20h20.03.658,continuous_performance_test,2024.2.4,Win32,59.95203837,53ea59fd-da83-4611-8f63-ff9cb4080cb3,4,27.198,29.046,space,1,0.317,,0,8,8,1,1,B,space,,,,,,,,,,
,,,,,R_4HB6iecylB5JMS5,001,2025-09-08_20h20.03.658,continuous_performance_test,2024.2.4,Win32,59.95203837,53ea59fd-da83-4611-8f63-ff9cb4080cb3,4,29.048,30.894,space,1,0.263,,0,9,9,2,1,C,space,,,,,,,,,,
,,,,,R_4HB6iecylB5JMS5,001,2025-09-08_20h20.03.658,continuous_performance_test,2024.2.4,Win32,59.95203837,53ea59fd-da83-4611-8f63-ff9cb4080cb3,4,30.897,32.797,space,1,0.322,,0,10,10,0,1,A,space,,,,,,,,,,
,,,,,R_4HB6iecylB5JMS5,001,2025-09-08_20h20.03.658,continuous_performance_test,2024.2.4,Win32,59.95203837,53ea59fd-da83-4611-8f63-ff9cb4080cb3,4,32.801,34.396,,1,,,0,11,11,29,1,X,,,,,,,,,,,
,,,,,R_4HB6iecylB5JMS5,001,2025-09-08_20h20.03.658,continuous_performance_test,2024.2.4,Win32,59.95203837,53ea59fd-da83-4611-8f63-ff9cb4080cb3,4,34.399,35.945,space,1,0.287,,0,12,12,11,1,L,space,,,,,,,,,,
,,,,,R_4HB6iecylB5JMS5,001,2025-09-08_20h20.03.658,continuous_performance_test,2024.2.4,Win32,59.95203837,53ea59fd-da83-4611-8f63-ff9cb4080cb3,4,35.948,37.846,space,0,0.294,,0,13,13,26,1,X,,,,,,,,,,,
,,,,,R_4HB6iecylB5JMS5,001,2025-09-08_20h20.03.658,continuous_performance_test,2024.2.4,Win32,59.95203837,53ea59fd-da83-4611-8f63-ff9cb4080cb3,4,37.849,39.745,space,1,0.398,,0,14,14,18,1,S,space,,,,,,,,,,
,,,,,R_4HB6iecylB5JMS5,001,2025-09-08_20h20.03.658,continuous_performance_test,2024.2.4,Win32,59.95203837,53ea59fd-da83-4611-8f63-ff9cb4080cb3,4,39.748,41.545,space,1,0.5,,0,15,15,14,1,O,space,,,,,,,,,,
,,,,,R_4HB6iecylB5JMS5,001,2025-09-08_20h20.03.658,continuous_performance_test,2024.2.4,Win32,59.95203837,53ea59fd-da83-4611-8f63-ff9cb4080cb3,4,41.549,43.246,space,1,0.38,,0,16,16,23,1,Y,space,,,,,,,,,,
,,,,,R_4HB6iecylB5JMS5,001,2025-09-08_20h20.03.658,continuous_performance_test,2024.2.4,Win32,59.95203837,53ea59fd-da83-4611-8f63-ff9cb4080cb3,4,43.249,45.096,space,0,0.334,,0,17,17,25,1,X,,,,,,,,,,,
,,,,,R_4HB6iecylB5JMS5,001,2025-09-08_20h20.03.658,continuous_performance_test,2024.2.4,Win32,59.95203837,53ea59fd-da83-4611-8f63-ff9cb4080cb3,4,45.099,46.945,,1,,,0,18,18,28,1,X,,,,,,,,,,,
,,,,,R_4HB6iecylB5JMS5,001,2025-09-08_20h20.03.658,continuous_performance_test,2024.2.4,Win32,59.95203837,53ea59fd-da83-4611-8f63-ff9cb4080cb3,4,46.948,48.545,space,1,0.288,,0,19,19,6,1,G,space,,,,,,,,,,
,,,,,R_4HB6iecylB5JMS5,001,2025-09-08_20h20.03.658,continuous_performance_test,2024.2.4,Win32,59.95203837,53ea59fd-da83-4611-8f63-ff9cb4080cb3,4,48.548,50.095,space,1,0.348,,0,20,20,22,1,W,space,,,,,,,,,,
,,,,,R_4HB6iecylB5JMS5,001,2025-09-08_20h20.03.658,continuous_performance_test,2024.2.4,Win32,59.95203837,53ea59fd-da83-4611-8f63-ff9cb4080cb3,4,50.099,52.095,space,1,0.428,,0,21,21,17,1,R,space,,,,,,,,,,
,,,,,R_4HB6iecylB5JMS5,001,2025-09-08_20h20.03.658,continuous_performance_test,2024.2.4,Win32,59.95203837,53ea59fd-da83-4611-8f63-ff9cb4080cb3,4,52.098,53.795,space,1,0.432,,0,22,22,24,1,Z,space,,,,,,,,,,
,,,,,R_4HB6iecylB5JMS5,001,2025-09-08_20h20.03.658,continuous_performance_test,2024.2.4,Win32,59.95203837,53ea59fd-da83-4611-8f63-ff9cb4080cb3,4,53.798,55.645,space,1,0.574,,0,23,23,16,1,Q,space,,,,,,,,,,
,,,,,R_4HB6iecylB5JMS5,001,2025-09-08_20h20.03.658,continuous_performance_test,2024.2.4,Win32,59.95203837,53ea59fd-da83-4611-8f63-ff9cb4080cb3,4,55.648,57.196,space,1,0.415,,0,24,24,21,1,V,space,,,,,,,,,,
,,,,,R_4HB6iecylB5JMS5,001,2025-09-08_20h20.03.658,continuous_performance_test,2024.2.4,Win32,59.95203837,53ea59fd-da83-4611-8f63-ff9cb4080cb3,4,57.2,59.146,space,1,0.329,,0,25,25,5,1,F,space,,,,,,,,,,
,,,,,R_4HB6iecylB5JMS5,001,2025-09-08_20h20.03.658,continuous_performance_test,2024.2.4,Win32,59.95203837,53ea59fd-da83-4611-8f63-ff9cb4080cb3,4,59.149,60.795,space,1,0.438,,0,26,26,3,1,D,space,,,,,,,,,,
,,,,,R_4HB6iecylB5JMS5,001,2025-09-08_20h20.03.658,continuous_performance_test,2024.2.4,Win32,59.95203837,53ea59fd-da83-4611-8f63-ff9cb4080cb3,4,60.798,62.346,space,1,0.379,,0,27,27,8,1,I,space,,,,,,,,,,
,,,,,R_4HB6iecylB5JMS5,001,2025-09-08_20h20.03.658,continuous_performance_test,2024.2.4,Win32,59.95203837,53ea59fd-da83-4611-8f63-ff9cb4080cb3,4,62.348,64.145,space,0,0.3,,0,28,28,27,1,X,,,,,,,,,,,
,,,,,R_4HB6iecylB5JMS5,001,2025-09-08_20h20.03.658,continuous_performance_test,2024.2.4,Win32,59.95203837,53ea59fd-da83-4611-8f63-ff9cb4080cb3,4,64.148,66.096,space,1,0.326,,0,29,29,19,1,T,space,,,,,,,,,,
,,,,,R_4HB6iecylB5JMS5,001,2025-09-08_20h20.03.658,continuous_performance_test,2024.2.4,Win32,59.95203837,53ea59fd-da83-4611-8f63-ff9cb4080cb3,4,81.115,83.013,,1,,,0,0,0,29,1,X,,66.097,81.096,,,,,,,,
,,,,,R_4HB6iecylB5JMS5,001,2025-09-08_20h20.03.658,continuous_performance_test,2024.2.4,Win32,59.95203837,53ea59fd-da83-4611-8f63-ff9cb4080cb3,4,83.016,84.864,space,1,0.531,,0,1,1,6,1,G,space,,,,,,,,,,
,,,,,R_4HB6iecylB5JMS5,001,2025-09-08_20h20.03.658,continuous_performance_test,2024.2.4,Win32,59.95203837,53ea59fd-da83-4611-8f63-ff9cb4080cb3,4,84.866,86.712,space,1,0.416,,0,2,2,7,1,H,space,,,,,,,,,,
,,,,,R_4HB6iecylB5JMS5,001,2025-09-08_20h20.03.658,continuous_performance_test,2024.2.4,Win32,59.95203837,53ea59fd-da83-4611-8f63-ff9cb4080cb3,4,86.715,88.714,space,1,0.301,,0,3,3,19,1,T,space,,,,,,,,,,
,,,,,R_4HB6iecylB5JMS5,001,2025-09-08_20h20.03.658,continuous_performance_test,2024.2.4,Win32,59.95203837,53ea59fd-da83-4611-8f63-ff9cb4080cb3,4,88.718,90.263,space,1,0.321,,0,4,4,5,1,F,space,,,,,,,,,,
,,,,,R_4HB6iecylB5JMS5,001,2025-09-08_20h20.03.658,continuous_performance_test,2024.2.4,Win32,59.95203837,53ea59fd-da83-4611-8f63-ff9cb4080cb3,4,90.266,92.162,space,1,0.251,,0,5,5,15,1,P,space,,,,,,,,,,
,,,,,R_4HB6iecylB5JMS5,001,2025-09-08_20h20.03.658,continuous_performance_test,2024.2.4,Win32,59.95203837,53ea59fd-da83-4611-8f63-ff9cb4080cb3,4,92.164,93.713,space,1,0.249,,0,6,6,16,1,Q,space,,,,,,,,,,
,,,,,R_4HB6iecylB5JMS5,001,2025-09-08_20h20.03.658,continuous_performance_test,2024.2.4,Win32,59.95203837,53ea59fd-da83-4611-8f63-ff9cb4080cb3,4,93.716,95.264,space,1,0.32,,0,7,7,14,1,O,space,,,,,,,,,,
,,,,,R_4HB6iecylB5JMS5,001,2025-09-08_20h20.03.658,continuous_performance_test,2024.2.4,Win32,59.95203837,53ea59fd-da83-4611-8f63-ff9cb4080cb3,4,95.268,96.813,space,1,0.285,,0,8,8,0,1,A,space,,,,,,,,,,
,,,,,R_4HB6iecylB5JMS5,001,2025-09-08_20h20.03.658,continuous_performance_test,2024.2.4,Win32,59.95203837,53ea59fd-da83-4611-8f63-ff9cb4080cb3,4,96.815,98.665,space,0,0.319,,0,9,9,25,1,X,,,,,,,,,,,
,,,,,R_4HB6iecylB5JMS5,001,2025-09-08_20h20.03.658,continuous_performance_test,2024.2.4,Win32,59.95203837,53ea59fd-da83-4611-8f63-ff9cb4080cb3,4,98.67,100.364,space,1,0.384,,0,10,10,21,1,V,space,,,,,,,,,,
,,,,,R_4HB6iecylB5JMS5,001,2025-09-08_20h20.03.658,continuous_performance_test,2024.2.4,Win32,59.95203837,53ea59fd-da83-4611-8f63-ff9cb4080cb3,4,100.367,102.263,space,1,0.3,,0,11,11,17,1,R,space,,,,,,,,,,
,,,,,R_4HB6iecylB5JMS5,001,2025-09-08_20h20.03.658,continuous_performance_test,2024.2.4,Win32,59.95203837,53ea59fd-da83-4611-8f63-ff9cb4080cb3,4,102.265,104.212,,1,,,0,12,12,26,1,X,,,,,,,,,,,
,,,,,R_4HB6iecylB5JMS5,001,2025-09-08_20h20.03.658,continuous_performance_test,2024.2.4,Win32,59.95203837,53ea59fd-da83-4611-8f63-ff9cb4080cb3,4,104.215,105.913,space,1,0.329,,0,13,13,3,1,D,space,,,,,,,,,,
,,,,,R_4HB6iecylB5JMS5,001,2025-09-08_20h20.03.658,continuous_performance_test,2024.2.4,Win32,59.95203837,53ea59fd-da83-4611-8f63-ff9cb4080cb3,4,105.914,107.513,space,1,0.448,,0,14,14,2,1,C,space,,,,,,,,,,
,,,,,R_4HB6iecylB5JMS5,001,2025-09-08_20h20.03.658,continuous_performance_test,2024.2.4,Win32,59.95203837,53ea59fd-da83-4611-8f63-ff9cb4080cb3,4,107.515,109.263,space,1,0.367,,0,15,15,18,1,S,space,,,,,,,,,,
,,,,,R_4HB6iecylB5JMS5,001,2025-09-08_20h20.03.658,continuous_performance_test,2024.2.4,Win32,59.95203837,53ea59fd-da83-4611-8f63-ff9cb4080cb3,4,109.265,111.064,,1,,,0,16,16,28,1,X,,,,,,,,,,,
,,,,,R_4HB6iecylB5JMS5,001,2025-09-08_20h20.03.658,continuous_performance_test,2024.2.4,Win32,59.95203837,53ea59fd-da83-4611-8f63-ff9cb4080cb3,4,111.066,112.813,space,1,0.322,,0,17,17,10,1,K,space,,,,,,,,,,
,,,,,R_4HB6iecylB5JMS5,001,2025-09-08_20h20.03.658,continuous_performance_test,2024.2.4,Win32,59.95203837,53ea59fd-da83-4611-8f63-ff9cb4080cb3,4,112.816,114.663,space,1,0.348,,0,18,18,13,1,N,space,,,,,,,,,,
,,,,,R_4HB6iecylB5JMS5,001,2025-09-08_20h20.03.658,continuous_performance_test,2024.2.4,Win32,59.95203837,53ea59fd-da83-4611-8f63-ff9cb4080cb3,4,114.667,116.214,space,1,0.333,,0,19,19,23,1,Y,space,,,,,,,,,,
,,,,,R_4HB6iecylB5JMS5,001,2025-09-08_20h20.03.658,continuous_performance_test,2024.2.4,Win32,59.95203837,53ea59fd-da83-4611-8f63-ff9cb4080cb3,4,116.217,118.212,space,1,0.382,,0,20,20,12,1,M,space,,,,,,,,,,
,,,,,R_4HB6iecylB5JMS5,001,2025-09-08_20h20.03.658,continuous_performance_test,2024.2.4,Win32,59.95203837,53ea59fd-da83-4611-8f63-ff9cb4080cb3,4,118.215,120.213,,1,,,0,21,21,27,1,X,,,,,,,,,,,
,,,,,R_4HB6iecylB5JMS5,001,2025-09-08_20h20.03.658,continuous_performance_test,2024.2.4,Win32,59.95203837,53ea59fd-da83-4611-8f63-ff9cb4080cb3,4,120.215,122.064,space,1,0.291,,0,22,22,9,1,J,space,,,,,,,,,,
,,,,,R_4HB6iecylB5JMS5,001,2025-09-08_20h20.03.658,continuous_performance_test,2024.2.4,Win32,59.95203837,53ea59fd-da83-4611-8f63-ff9cb4080cb3,4,122.067,123.963,space,1,0.385,,0,23,23,11,1,L,space,,,,,,,,,,
,,,,,R_4HB6iecylB5JMS5,001,2025-09-08_20h20.03.658,continuous_performance_test,2024.2.4,Win32,59.95203837,53ea59fd-da83-4611-8f63-ff9cb4080cb3,4,123.964,125.914,space,1,0.293,,0,24,24,8,1,I,space,,,,,,,,,,
,,,,,R_4HB6iecylB5JMS5,001,2025-09-08_20h20.03.658,continuous_performance_test,2024.2.4,Win32,59.95203837,53ea59fd-da83-4611-8f63-ff9cb4080cb3,4,125.918,127.863,space,1,0.377,,0,25,25,24,1,Z,space,,,,,,,,,,
,,,,,R_4HB6iecylB5JMS5,001,2025-09-08_20h20.03.658,continuous_performance_test,2024.2.4,Win32,59.95203837,53ea59fd-da83-4611-8f63-ff9cb4080cb3,4,127.867,129.664,space,1,0.381,,0,26,26,20,1,U,space,,,,,,,,,,
,,,,,R_4HB6iecylB5JMS5,001,2025-09-08_20h20.03.658,continuous_performance_test,2024.2.4,Win32,59.95203837,53ea59fd-da83-4611-8f63-ff9cb4080cb3,4,129.667,131.563,space,1,0.302,,0,27,27,22,1,W,space,,,,,,,,,,
,,,,,R_4HB6iecylB5JMS5,001,2025-09-08_20h20.03.658,continuous_performance_test,2024.2.4,Win32,59.95203837,53ea59fd-da83-4611-8f63-ff9cb4080cb3,4,131.565,133.165,space,1,0.332,,0,28,28,1,1,B,space,,,,,,,,,,
,,,,,R_4HB6iecylB5JMS5,001,2025-09-08_20h20.03.658,continuous_performance_test,2024.2.4,Win32,59.95203837,53ea59fd-da83-4611-8f63-ff9cb4080cb3,4,133.17,134.913,space,1,0.365,,0,29,29,4,1,E,space,,,,,,,,,,
,,,,,R_4HB6iecylB5JMS5,001,2025-09-08_20h20.03.658,continuous_performance_test,2024.2.4,Win32,59.95203837,53ea59fd-da83-4611-8f63-ff9cb4080cb3,4,141.315,142.864,space,1,0.358,,0,0,0,5,1,F,space,134.917,141.298,space,6.348,,,,,,
,,,,,R_4HB6iecylB5JMS5,001,2025-09-08_20h20.03.658,continuous_performance_test,2024.2.4,Win32,59.95203837,53ea59fd-da83-4611-8f63-ff9cb4080cb3,4,142.868,144.413,space,1,0.263,,0,1,1,2,1,C,space,,,,,,,,,,
,,,,,R_4HB6iecylB5JMS5,001,2025-09-08_20h20.03.658,continuous_performance_test,2024.2.4,Win32,59.95203837,53ea59fd-da83-4611-8f63-ff9cb4080cb3,4,144.417,146.414,space,1,0.279,,0,2,2,0,1,A,space,,,,,,,,,,
,,,,,R_4HB6iecylB5JMS5,001,2025-09-08_20h20.03.658,continuous_performance_test,2024.2.4,Win32,59.95203837,53ea59fd-da83-4611-8f63-ff9cb4080cb3,4,146.418,148.013,space,1,0.464,,0,3,3,23,1,Y,space,,,,,,,,,,
,,,,,R_4HB6iecylB5JMS5,001,2025-09-08_20h20.03.658,continuous_performance_test,2024.2.4,Win32,59.95203837,53ea59fd-da83-4611-8f63-ff9cb4080cb3,4,148.018,149.864,space,1,0.303,,0,4,4,13,1,N,space,,,,,,,,,,
,,,,,R_4HB6iecylB5JMS5,001,2025-09-08_20h20.03.658,continuous_performance_test,2024.2.4,Win32,59.95203837,53ea59fd-da83-4611-8f63-ff9cb4080cb3,4,149.868,151.514,space,1,0.319,,0,5,5,15,1,P,space,,,,,,,,,,
,,,,,R_4HB6iecylB5JMS5,001,2025-09-08_20h20.03.658,continuous_performance_test,2024.2.4,Win32,59.95203837,53ea59fd-da83-4611-8f63-ff9cb4080cb3,4,151.517,153.214,space,1,0.298,,0,6,6,1,1,B,space,,,,,,,,,,
,,,,,R_4HB6iecylB5JMS5,001,2025-09-08_20h20.03.658,continuous_performance_test,2024.2.4,Win32,59.95203837,53ea59fd-da83-4611-8f63-ff9cb4080cb3,4,153.217,154.964,space,1,0.295,,0,7,7,24,1,Z,space,,,,,,,,,,
,,,,,R_4HB6iecylB5JMS5,001,2025-09-08_20h20.03.658,continuous_performance_test,2024.2.4,Win32,59.95203837,53ea59fd-da83-4611-8f63-ff9cb4080cb3,4,154.967,156.614,space,1,0.302,,0,8,8,12,1,M,space,,,,,,,,,,
,,,,,R_4HB6iecylB5JMS5,001,2025-09-08_20h20.03.658,continuous_performance_test,2024.2.4,Win32,59.95203837,53ea59fd-da83-4611-8f63-ff9cb4080cb3,4,156.617,158.564,space,1,0.316,,0,9,9,21,1,V,space,,,,,,,,,,
,,,,,R_4HB6iecylB5JMS5,001,2025-09-08_20h20.03.658,continuous_performance_test,2024.2.4,Win32,59.95203837,53ea59fd-da83-4611-8f63-ff9cb4080cb3,4,158.567,160.364,space,0,0.297,,0,10,10,25,1,X,,,,,,,,,,,
,,,,,R_4HB6iecylB5JMS5,001,2025-09-08_20h20.03.658,continuous_performance_test,2024.2.4,Win32,59.95203837,53ea59fd-da83-4611-8f63-ff9cb4080cb3,4,160.368,162.264,space,1,0.319,,0,11,11,6,1,G,space,,,,,,,,,,
,,,,,R_4HB6iecylB5JMS5,001,2025-09-08_20h20.03.658,continuous_performance_test,2024.2.4,Win32,59.95203837,53ea59fd-da83-4611-8f63-ff9cb4080cb3,4,162.265,164.164,space,1,0.367,,0,12,12,16,1,Q,space,,,,,,,,,,
,,,,,R_4HB6iecylB5JMS5,001,2025-09-08_20h20.03.658,continuous_performance_test,2024.2.4,Win32,59.95203837,53ea59fd-da83-4611-8f63-ff9cb4080cb3,4,164.167,165.814,space,1,0.37,,0,13,13,7,1,H,space,,,,,,,,,,
,,,,,R_4HB6iecylB5JMS5,001,2025-09-08_20h20.03.658,continuous_performance_test,2024.2.4,Win32,59.95203837,53ea59fd-da83-4611-8f63-ff9cb4080cb3,4,165.816,167.815,space,1,0.313,,0,14,14,10,1,K,space,,,,,,,,,,
,,,,,R_4HB6iecylB5JMS5,001,2025-09-08_20h20.03.658,continuous_performance_test,2024.2.4,Win32,59.95203837,53ea59fd-da83-4611-8f63-ff9cb4080cb3,4,167.817,169.764,space,1,0.581,,0,15,15,3,1,D,space,,,,,,,,,,
,,,,,R_4HB6iecylB5JMS5,001,2025-09-08_20h20.03.658,continuous_performance_test,2024.2.4,Win32,59.95203837,53ea59fd-da83-4611-8f63-ff9cb4080cb3,4,169.768,171.664,space,0,0.33,,0,16,16,28,1,X,,,,,,,,,,,
,,,,,R_4HB6iecylB5JMS5,001,2025-09-08_20h20.03.658,continuous_performance_test,2024.2.4,Win32,59.95203837,53ea59fd-da83-4611-8f63-ff9cb4080cb3,4,171.668,173.265,space,1,0.398,,0,17,17,11,1,L,space,,,,,,,,,,
,,,,,R_4HB6iecylB5JMS5,001,2025-09-08_20h20.03.658,continuous_performance_test,2024.2.4,Win32,59.95203837,53ea59fd-da83-4611-8f63-ff9cb4080cb3,4,173.268,175.014,space,1,0.575,,0,18,18,9,1,J,space,,,,,,,,,,
,,,,,R_4HB6iecylB5JMS5,001,2025-09-08_20h20.03.658,continuous_performance_test,2024.2.4,Win32,59.95203837,53ea59fd-da83-4611-8f63-ff9cb4080cb3,4,175.017,176.865,space,1,0.301,,0,19,19,20,1,U,space,,,,,,,,,,
,,,,,R_4HB6iecylB5JMS5,001,2025-09-08_20h20.03.658,continuous_performance_test,2024.2.4,Win32,59.95203837,53ea59fd-da83-4611-8f63-ff9cb4080cb3,4,176.868,178.614,space,1,0.313,,0,20,20,14,1,O,space,,,,,,,,,,
,,,,,R_4HB6iecylB5JMS5,001,2025-09-08_20h20.03.658,continuous_performance_test,2024.2.4,Win32,59.95203837,53ea59fd-da83-4611-8f63-ff9cb4080cb3,4,178.618,180.515,space,0,0.287,,0,21,21,27,1,X,,,,,,,,,,,
,,,,,R_4HB6iecylB5JMS5,001,2025-09-08_20h20.03.658,continuous_performance_test,2024.2.4,Win32,59.95203837,53ea59fd-da83-4611-8f63-ff9cb4080cb3,4,180.517,182.164,,1,,,0,22,22,29,1,X,,,,,,,,,,,
,,,,,R_4HB6iecylB5JMS5,001,2025-09-08_20h20.03.658,continuous_performance_test,2024.2.4,Win32,59.95203837,53ea59fd-da83-4611-8f63-ff9cb4080cb3,4,182.169,183.864,space,1,0.321,,0,23,23,17,1,R,space,,,,,,,,,,
,,,,,R_4HB6iecylB5JMS5,001,2025-09-08_20h20.03.658,continuous_performance_test,2024.2.4,Win32,59.95203837,53ea59fd-da83-4611-8f63-ff9cb4080cb3,4,183.866,185.614,,1,,,0,24,24,26,1,X,,,,,,,,,,,
,,,,,R_4HB6iecylB5JMS5,001,2025-09-08_20h20.03.658,continuous_performance_test,2024.2.4,Win32,59.95203837,53ea59fd-da83-4611-8f63-ff9cb4080cb3,4,185.618,187.214,space,1,0.35,,0,25,25,22,1,W,space,,,,,,,,,,
,,,,,R_4HB6iecylB5JMS5,001,2025-09-08_20h20.03.658,continuous_performance_test,2024.2.4,Win32,59.95203837,53ea59fd-da83-4611-8f63-ff9cb4080cb3,4,187.217,189.215,space,1,0.452,,0,26,26,19,1,T,space,,,,,,,,,,
,,,,,R_4HB6iecylB5JMS5,001,2025-09-08_20h20.03.658,continuous_performance_test,2024.2.4,Win32,59.95203837,53ea59fd-da83-4611-8f63-ff9cb4080cb3,4,189.217,191.064,space,1,0.382,,0,27,27,8,1,I,space,,,,,,,,,,
,,,,,R_4HB6iecylB5JMS5,001,2025-09-08_20h20.03.658,continuous_performance_test,2024.2.4,Win32,59.95203837,53ea59fd-da83-4611-8f63-ff9cb4080cb3,4,191.067,193.064,space,1,0.399,,0,28,28,4,1,E,space,,,,,,,,,,
,,,,,R_4HB6iecylB5JMS5,001,2025-09-08_20h20.03.658,continuous_performance_test,2024.2.4,Win32,59.95203837,53ea59fd-da83-4611-8f63-ff9cb4080cb3,4,193.068,194.915,space,1,0.684,,0,29,29,18,1,S,space,,,,,,,,,,
,,,,,R_4HB6iecylB5JMS5,001,2025-09-08_20h20.03.658,continuous_performance_test,2024.2.4,Win32,59.95203837,53ea59fd-da83-4611-8f63-ff9cb4080cb3,4,200.969,202.815,space,1,0.438,,0,0,0,14,1,O,space,194.917,200.949,space,5.985,,,,,,
,,,,,R_4HB6iecylB5JMS5,001,2025-09-08_20h20.03.658,continuous_performance_test,2024.2.4,Win32,59.95203837,53ea59fd-da83-4611-8f63-ff9cb4080cb3,4,202.82,204.665,space,1,0.347,,0,1,1,7,1,H,space,,,,,,,,,,
,,,,,R_4HB6iecylB5JMS5,001,2025-09-08_20h20.03.658,continuous_performance_test,2024.2.4,Win32,59.95203837,53ea59fd-da83-4611-8f63-ff9cb4080cb3,4,204.669,206.265,space,1,0.464,,0,2,2,2,1,C,space,,,,,,,,,,
,,,,,R_4HB6iecylB5JMS5,001,2025-09-08_20h20.03.658,continuous_performance_test,2024.2.4,Win32,59.95203837,53ea59fd-da83-4611-8f63-ff9cb4080cb3,4,206.269,208.015,space,1,0.367,,0,3,3,21,1,V,space,,,,,,,,,,
,,,,,R_4HB6iecylB5JMS5,001,2025-09-08_20h20.03.658,continuous_performance_test,2024.2.4,Win32,59.95203837,53ea59fd-da83-4611-8f63-ff9cb4080cb3,4,208.018,209.765,space,1,0.366,,0,4,4,0,1,A,space,,,,,,,,,,
,,,,,R_4HB6iecylB5JMS5,001,2025-09-08_20h20.03.658,continuous_performance_test,2024.2.4,Win32,59.95203837,53ea59fd-da83-4611-8f63-ff9cb4080cb3,4,209.769,211.368,space,1,0.348,,0,5,5,12,1,M,space,,,,,,,,,,
,,,,,R_4HB6iecylB5JMS5,001,2025-09-08_20h20.03.658,continuous_performance_test,2024.2.4,Win32,59.95203837,53ea59fd-da83-4611-8f63-ff9cb4080cb3,4,211.37,213.065,space,0,0.4,,0,6,6,27,1,X,,,,,,,,,,,
,,,,,R_4HB6iecylB5JMS5,001,2025-09-08_20h20.03.658,continuous_performance_test,2024.2.4,Win32,59.95203837,53ea59fd-da83-4611-8f63-ff9cb4080cb3,4,213.069,214.715,space,1,0.376,,0,7,7,8,1,I,space,,,,,,,,,,
,,,,,R_4HB6iecylB5JMS5,001,2025-09-08_20h20.03.658,continuous_performance_test,2024.2.4,Win32,59.95203837,53ea59fd-da83-4611-8f63-ff9cb4080cb3,4,214.719,216.465,space,1,0.361,,0,8,8,18,1,S,space,,,,,,,,,,
,,,,,R_4HB6iecylB5JMS5,001,2025-09-08_20h20.03.658,continuous_performance_test,2024.2.4,Win32,59.95203837,53ea59fd-da83-4611-8f63-ff9cb4080cb3,4,216.468,218.265,space,1,0.336,,0,9,9,16,1,Q,space,,,,,,,,,,
,,,,,R_4HB6iecylB5JMS5,001,2025-09-08_20h20.03.658,continuous_performance_test,2024.2.4,Win32,59.95203837,53ea59fd-da83-4611-8f63-ff9cb4080cb3,4,218.267,219.915,space,1,0.482,,0,10,10,17,1,R,space,,,,,,,,,,
,,,,,R_4HB6iecylB5JMS5,001,2025-09-08_20h20.03.658,continuous_performance_test,2024.2.4,Win32,59.95203837,53ea59fd-da83-4611-8f63-ff9cb4080cb3,4,219.917,221.665,space,1,0.539,,0,11,11,23,1,Y,space,,,,,,,,,,
,,,,,R_4HB6iecylB5JMS5,001,2025-09-08_20h20.03.658,continuous_performance_test,2024.2.4,Win32,59.95203837,53ea59fd-da83-4611-8f63-ff9cb4080cb3,4,221.668,223.465,space,1,0.621,,0,12,12,24,1,Z,space,,,,,,,,,,
,,,,,R_4HB6iecylB5JMS5,001,2025-09-08_20h20.03.658,continuous_performance_test,2024.2.4,Win32,59.95203837,53ea59fd-da83-4611-8f63-ff9cb4080cb3,4,223.467,225.315,space,1,0.352,,0,13,13,4,1,E,space,,,,,,,,,,
,,,,,R_4HB6iecylB5JMS5,001,2025-09-08_20h20.03.658,continuous_performance_test,2024.2.4,Win32,59.95203837,53ea59fd-da83-4611-8f63-ff9cb4080cb3,4,225.319,227.016,space,1,0.351,,0,14,14,5,1,F,space,,,,,,,,,,
,,,,,R_4HB6iecylB5JMS5,001,2025-09-08_20h20.03.658,continuous_performance_test,2024.2.4,Win32,59.95203837,53ea59fd-da83-4611-8f63-ff9cb4080cb3,4,227.018,228.665,,1,,,0,15,15,29,1,X,,,,,,,,,,,
,,,,,R_4HB6iecylB5JMS5,001,2025-09-08_20h20.03.658,continuous_performance_test,2024.2.4,Win32,59.95203837,53ea59fd-da83-4611-8f63-ff9cb4080cb3,4,228.669,230.515,space,1,0.328,,0,16,16,13,1,N,space,,,,,,,,,,
,,,,,R_4HB6iecylB5JMS5,001,2025-09-08_20h20.03.658,continuous_performance_test,2024.2.4,Win32,59.95203837,53ea59fd-da83-4611-8f63-ff9cb4080cb3,4,230.519,232.366,space,1,0.486,,0,17,17,11,1,L,space,,,,,,,,,,
,,,,,R_4HB6iecylB5JMS5,001,2025-09-08_20h20.03.658,continuous_performance_test,2024.2.4,Win32,59.95203837,53ea59fd-da83-4611-8f63-ff9cb4080cb3,4,232.369,234.215,space,1,0.546,,0,18,18,6,1,G,space,,,,,,,,,,
,,,,,R_4HB6iecylB5JMS5,001,2025-09-08_20h20.03.658,continuous_performance_test,2024.2.4,Win32,59.95203837,53ea59fd-da83-4611-8f63-ff9cb4080cb3,4,234.223,236.116,space,0,0.322,,0,19,19,28,1,X,,,,,,,,,,,
,,,,,R_4HB6iecylB5JMS5,001,2025-09-08_20h20.03.658,continuous_performance_test,2024.2.4,Win32,59.95203837,53ea59fd-da83-4611-8f63-ff9cb4080cb3,4,236.12,237.765,space,1,0.419,,0,20,20,3,1,D,space,,,,,,,,,,
,,,,,R_4HB6iecylB5JMS5,001,2025-09-08_20h20.03.658,continuous_performance_test,2024.2.4,Win32,59.95203837,53ea59fd-da83-4611-8f63-ff9cb4080cb3,4,237.77,239.365,space,1,0.49,,0,21,21,15,1,P,space,,,,,,,,,,
,,,,,R_4HB6iecylB5JMS5,001,2025-09-08_20h20.03.658,continuous_performance_test,2024.2.4,Win32,59.95203837,53ea59fd-da83-4611-8f63-ff9cb4080cb3,4,239.369,241.365,space,1,0.312,,0,22,22,22,1,W,space,,,,,,,,,,
,,,,,R_4HB6iecylB5JMS5,001,2025-09-08_20h20.03.658,continuous_performance_test,2024.2.4,Win32,59.95203837,53ea59fd-da83-4611-8f63-ff9cb4080cb3,4,241.368,242.916,space,1,0.422,,0,23,23,10,1,K,space,,,,,,,,,,
,,,,,R_4HB6iecylB5JMS5,001,2025-09-08_20h20.03.658,continuous_performance_test,2024.2.4,Win32,59.95203837,53ea59fd-da83-4611-8f63-ff9cb4080cb3,4,242.919,244.716,,1,,,0,24,24,25,1,X,,,,,,,,,,,
,,,,,R_4HB6iecylB5JMS5,001,2025-09-08_20h20.03.658,continuous_performance_test,2024.2.4,Win32,59.95203837,53ea59fd-da83-4611-8f63-ff9cb4080cb3,4,244.719,246.466,space,0,0.336,,0,25,25,26,1,X,,,,,,,,,,,
,,,,,R_4HB6iecylB5JMS5,001,2025-09-08_20h20.03.658,continuous_performance_test,2024.2.4,Win32,59.95203837,53ea59fd-da83-4611-8f63-ff9cb4080cb3,4,246.47,248.315,space,1,0.499,,0,26,26,20,1,U,space,,,,,,,,,,
,,,,,R_4HB6iecylB5JMS5,001,2025-09-08_20h20.03.658,continuous_performance_test,2024.2.4,Win32,59.95203837,53ea59fd-da83-4611-8f63-ff9cb4080cb3,4,248.318,250.066,space,1,0.388,,0,27,27,1,1,B,space,,,,,,,,,,
,,,,,R_4HB6iecylB5JMS5,001,2025-09-08_20h20.03.658,continuous_performance_test,2024.2.4,Win32,59.95203837,53ea59fd-da83-4611-8f63-ff9cb4080cb3,4,250.068,251.765,space,1,0.547,,0,28,28,19,1,T,space,,,,,,,,,,
,,,,,R_4HB6iecylB5JMS5,001,2025-09-08_20h20.03.658,continuous_performance_test,2024.2.4,Win32,59.95203837,53ea59fd-da83-4611-8f63-ff9cb4080cb3,4,251.769,253.315,space,1,0.453,,0,29,29,9,1,J,space,,,,,,,,,,
,,,,,R_4HB6iecylB5JMS5,001,2025-09-08_20h20.03.658,continuous_performance_test,2024.2.4,Win32,59.95203837,53ea59fd-da83-4611-8f63-ff9cb4080cb3,4,258.616,260.516,space,1,0.263,,0,0,0,7,1,H,space,253.318,258.6,space,5.246,,,,,,
,,,,,R_4HB6iecylB5JMS5,001,2025-09-08_20h20.03.658,continuous_performance_test,2024.2.4,Win32,59.95203837,53ea59fd-da83-4611-8f63-ff9cb4080cb3,4,260.52,262.116,space,1,0.302,,0,1,1,23,1,Y,space,,,,,,,,,,
,,,,,R_4HB6iecylB5JMS5,001,2025-09-08_20h20.03.658,continuous_performance_test,2024.2.4,Win32,59.95203837,53ea59fd-da83-4611-8f63-ff9cb4080cb3,4,262.119,263.815,space,1,0.296,,0,2,2,4,1,E,space,,,,,,,,,,
,,,,,R_4HB6iecylB5JMS5,001,2025-09-08_20h20.03.658,continuous_performance_test,2024.2.4,Win32,59.95203837,53ea59fd-da83-4611-8f63-ff9cb4080cb3,4,263.818,265.565,space,0,0.297,,0,3,3,28,1,X,,,,,,,,,,,
,,,,,R_4HB6iecylB5JMS5,001,2025-09-08_20h20.03.658,continuous_performance_test,2024.2.4,Win32,59.95203837,53ea59fd-da83-4611-8f63-ff9cb4080cb3,4,265.568,267.417,space,1,0.377,,0,4,4,6,1,G,space,,,,,,,,,,
,,,,,R_4HB6iecylB5JMS5,001,2025-09-08_20h20.03.658,continuous_performance_test,2024.2.4,Win32,59.95203837,53ea59fd-da83-4611-8f63-ff9cb4080cb3,4,267.423,269.316,space,1,0.331,,0,5,5,17,1,R,space,,,,,,,,,,
,,,,,R_4HB6iecylB5JMS5,001,2025-09-08_20h20.03.658,continuous_performance_test,2024.2.4,Win32,59.95203837,53ea59fd-da83-4611-8f63-ff9cb4080cb3,4,269.32,271.115,space,1,0.379,,0,6,6,21,1,V,space,,,,,,,,,,
,,,,,R_4HB6iecylB5JMS5,001,2025-09-08_20h20.03.658,continuous_performance_test,2024.2.4,Win32,59.95203837,53ea59fd-da83-4611-8f63-ff9cb4080cb3,4,271.12,272.966,space,1,0.437,,0,7,7,2,1,C,space,,,,,,,,,,
,,,,,R_4HB6iecylB5JMS5,001,2025-09-08_20h20.03.658,continuous_performance_test,2024.2.4,Win32,59.95203837,53ea59fd-da83-4611-8f63-ff9cb4080cb3,4,272.968,274.966,space,1,0.497,,0,8,8,18,1,S,space,,,,,,,,,,
,,,,,R_4HB6iecylB5JMS5,001,2025-09-08_20h20.03.658,continuous_performance_test,2024.2.4,Win32,59.95203837,53ea59fd-da83-4611-8f63-ff9cb4080cb3,4,274.969,276.615,space,1,0.518,,0,9,9,22,1,W,space,,,,,,,,,,
,,,,,R_4HB6iecylB5JMS5,001,2025-09-08_20h20.03.658,continuous_performance_test,2024.2.4,Win32,59.95203837,53ea59fd-da83-4611-8f63-ff9cb4080cb3,4,276.62,278.317,space,1,0.393,,0,10,10,9,1,J,space,,,,,,,,,,
,,,,,R_4HB6iecylB5JMS5,001,2025-09-08_20h20.03.658,continuous_performance_test,2024.2.4,Win32,59.95203837,53ea59fd-da83-4611-8f63-ff9cb4080cb3,4,278.32,280.016,,1,,,0,11,11,27,1,X,,,,,,,,,,,
,,,,,R_4HB6iecylB5JMS5,001,2025-09-08_20h20.03.658,continuous_performance_test,2024.2.4,Win32,59.95203837,53ea59fd-da83-4611-8f63-ff9cb4080cb3,4,280.018,281.617,space,1,0.318,,0,12,12,16,1,Q,space,,,,,,,,,,
,,,,,R_4HB6iecylB5JMS5,001,2025-09-08_20h20.03.658,continuous_performance_test,2024.2.4,Win32,59.95203837,53ea59fd-da83-4611-8f63-ff9cb4080cb3,4,281.621,283.517,space,1,0.288,,0,13,13,11,1,L,space,,,,,,,,,,
,,,,,R_4HB6iecylB5JMS5,001,2025-09-08_20h20.03.658,continuous_performance_test,2024.2.4,Win32,59.95203837,53ea59fd-da83-4611-8f63-ff9cb4080cb3,4,283.521,285.517,space,1,0.355,,0,14,14,5,1,F,space,,,,,,,,,,
,,,,,R_4HB6iecylB5JMS5,001,2025-09-08_20h20.03.658,continuous_performance_test,2024.2.4,Win32,59.95203837,53ea59fd-da83-4611-8f63-ff9cb4080cb3,4,285.521,287.067,,1,,,0,15,15,25,1,X,,,,,,,,,,,
,,,,,R_4HB6iecylB5JMS5,001,2025-09-08_20h20.03.658,continuous_performance_test,2024.2.4,Win32,59.95203837,53ea59fd-da83-4611-8f63-ff9cb4080cb3,4,287.069,289.068,space,1,0.317,,0,16,16,1,1,B,space,,,,,,,,,,
,,,,,R_4HB6iecylB5JMS5,001,2025-09-08_20h20.03.658,continuous_performance_test,2024.2.4,Win32,59.95203837,53ea59fd-da83-4611-8f63-ff9cb4080cb3,4,289.071,290.817,space,1,0.641,,0,17,17,0,1,A,space,,,,,,,,,,
,,,,,R_4HB6iecylB5JMS5,001,2025-09-08_20h20.03.658,continuous_performance_test,2024.2.4,Win32,59.95203837,53ea59fd-da83-4611-8f63-ff9cb4080cb3,4,290.819,292.716,space,1,0.457,,0,18,18,15,1,P,space,,,,,,,,,,
,,,,,R_4HB6iecylB5JMS5,001,2025-09-08_20h20.03.658,continuous_performance_test,2024.2.4,Win32,59.95203837,53ea59fd-da83-4611-8f63-ff9cb4080cb3,4,292.718,294.316,,1,,,0,19,19,29,1,X,,,,,,,,,,,
,,,,,R_4HB6iecylB5JMS5,001,2025-09-08_20h20.03.658,continuous_performance_test,2024.2.4,Win32,59.95203837,53ea59fd-da83-4611-8f63-ff9cb4080cb3,4,294.319,296.267,space,1,0.431,,0,20,20,8,1,I,space,,,,,,,,,,
,,,,,R_4HB6iecylB5JMS5,001,2025-09-08_20h20.03.658,continuous_performance_test,2024.2.4,Win32,59.95203837,53ea59fd-da83-4611-8f63-ff9cb4080cb3,4,296.269,298.216,space,1,0.567,,0,21,21,24,1,Z,space,,,,,,,,,,
,,,,,R_4HB6iecylB5JMS5,001,2025-09-08_20h20.03.658,continuous_performance_test,2024.2.4,Win32,59.95203837,53ea59fd-da83-4611-8f63-ff9cb4080cb3,4,298.219,300.166,space,1,0.537,,0,22,22,13,1,N,space,,,,,,,,,,
,,,,,R_4HB6iecylB5JMS5,001,2025-09-08_20h20.03.658,continuous_performance_test,2024.2.4,Win32,59.95203837,53ea59fd-da83-4611-8f63-ff9cb4080cb3,4,300.168,301.767,space,1,0.566,,0,23,23,12,1,M,space,,,,,,,,,,
,,,,,R_4HB6iecylB5JMS5,001,2025-09-08_20h20.03.658,continuous_performance_test,2024.2.4,Win32,59.95203837,53ea59fd-da83-4611-8f63-ff9cb4080cb3,4,301.773,303.716,space,1,0.502,,0,24,24,20,1,U,space,,,,,,,,,,
,,,,,R_4HB6iecylB5JMS5,001,2025-09-08_20h20.03.658,continuous_performance_test,2024.2.4,Win32,59.95203837,53ea59fd-da83-4611-8f63-ff9cb4080cb3,4,303.719,305.316,space,1,0.469,,0,25,25,19,1,T,space,,,,,,,,,,
,,,,,R_4HB6iecylB5JMS5,001,2025-09-08_20h20.03.658,continuous_performance_test,2024.2.4,Win32,59.95203837,53ea59fd-da83-4611-8f63-ff9cb4080cb3,4,305.319,307.217,,1,,,0,26,26,26,1,X,,,,,,,,,,,
,,,,,R_4HB6iecylB5JMS5,001,2025-09-08_20h20.03.658,continuous_performance_test,2024.2.4,Win32,59.95203837,53ea59fd-da83-4611-8f63-ff9cb4080cb3,4,307.22,308.866,space,1,0.415,,0,27,27,14,1,O,space,,,,,,,,,,
,,,,,R_4HB6iecylB5JMS5,001,2025-09-08_20h20.03.658,continuous_performance_test,2024.2.4,Win32,59.95203837,53ea59fd-da83-4611-8f63-ff9cb4080cb3,4,308.87,310.516,space,1,0.492,,0,28,28,3,1,D,space,,,,,,,,,,
,,,,,R_4HB6iecylB5JMS5,001,2025-09-08_20h20.03.658,continuous_performance_test,2024.2.4,Win32,59.95203837,53ea59fd-da83-4611-8f63-ff9cb4080cb3,4,310.52,312.267,space,1,0.331,,0,29,29,10,1,K,space,,,,,,,,,,
,,,,,R_4HB6iecylB5JMS5,001,2025-09-08_20h20.03.658,continuous_performance_test,2024.2.4,Win32,59.95203837,53ea59fd-da83-4611-8f63-ff9cb4080cb3,4,318.151,319.951,space,1,0.283,,0,0,0,13,1,N,space,312.27,318.133,space,5.828,,,,,,
,,,,,R_4HB6iecylB5JMS5,001,2025-09-08_20h20.03.658,continuous_performance_test,2024.2.4,Win32,59.95203837,53ea59fd-da83-4611-8f63-ff9cb4080cb3,4,319.953,321.85,space,1,0.269,,0,1,1,7,1,H,space,,,,,,,,,,
,,,,,R_4HB6iecylB5JMS5,001,2025-09-08_20h20.03.658,continuous_performance_test,2024.2.4,Win32,59.95203837,53ea59fd-da83-4611-8f63-ff9cb4080cb3,4,321.853,323.6,space,0,0.278,,0,2,2,29,1,X,,,,,,,,,,,
,,,,,R_4HB6iecylB5JMS5,001,2025-09-08_20h20.03.658,continuous_performance_test,2024.2.4,Win32,59.95203837,53ea59fd-da83-4611-8f63-ff9cb4080cb3,4,323.602,325.35,space,1,0.4,,0,3,3,24,1,Z,space,,,,,,,,,,
,,,,,R_4HB6iecylB5JMS5,001,2025-09-08_20h20.03.658,continuous_performance_test,2024.2.4,Win32,59.95203837,53ea59fd-da83-4611-8f63-ff9cb4080cb3,4,325.352,327.1,space,1,0.449,,0,4,4,12,1,M,space,,,,,,,,,,
,,,,,R_4HB6iecylB5JMS5,001,2025-09-08_20h20.03.658,continuous_performance_test,2024.2.4,Win32,59.95203837,53ea59fd-da83-4611-8f63-ff9cb4080cb3,4,327.102,328.8,space,1,0.399,,0,5,5,5,1,F,space,,,,,,,,,,
,,,,,R_4HB6iecylB5JMS5,001,2025-09-08_20h20.03.658,continuous_performance_test,2024.2.4,Win32,59.95203837,53ea59fd-da83-4611-8f63-ff9cb4080cb3,4,328.802,330.55,space,1,0.418,,0,6,6,19,1,T,space,,,,,,,,,,
,,,,,R_4HB6iecylB5JMS5,001,2025-09-08_20h20.03.658,continuous_performance_test,2024.2.4,Win32,59.95203837,53ea59fd-da83-4611-8f63-ff9cb4080cb3,4,330.553,332.5,space,0,0.314,,0,7,7,26,1,X,,,,,,,,,,,
,,,,,R_4HB6iecylB5JMS5,001,2025-09-08_20h20.03.658,continuous_performance_test,2024.2.4,Win32,59.95203837,53ea59fd-da83-4611-8f63-ff9cb4080cb3,4,332.503,334.501,space,1,0.524,,0,8,8,16,1,Q,space,,,,,,,,,,
,,,,,R_4HB6iecylB5JMS5,001,2025-09-08_20h20.03.658,continuous_performance_test,2024.2.4,Win32,59.95203837,53ea59fd-da83-4611-8f63-ff9cb4080cb3,4,334.503,336.401,space,1,0.283,,0,9,9,3,1,D,space,,,,,,,,,,
,,,,,R_4HB6iecylB5JMS5,001,2025-09-08_20h20.03.658,continuous_performance_test,2024.2.4,Win32,59.95203837,53ea59fd-da83-4611-8f63-ff9cb4080cb3,4,336.405,338.25,space,1,0.266,,0,10,10,0,1,A,space,,,,,,,,,,
,,,,,R_4HB6iecylB5JMS5,001,2025-09-08_20h20.03.658,continuous_performance_test,2024.2.4,Win32,59.95203837,53ea59fd-da83-4611-8f63-ff9cb4080cb3,4,338.253,340.251,space,1,0.287,,0,11,11,8,1,I,space,,,,,,,,,,
,,,,,R_4HB6iecylB5JMS5,001,2025-09-08_20h20.03.658,continuous_performance_test,2024.2.4,Win32,59.95203837,53ea59fd-da83-4611-8f63-ff9cb4080cb3,4,340.254,342.15,space,1,0.249,,0,12,12,18,1,S,space,,,,,,,,,,
,,,,,R_4HB6iecylB5JMS5,001,2025-09-08_20h20.03.658,continuous_performance_test,2024.2.4,Win32,59.95203837,53ea59fd-da83-4611-8f63-ff9cb4080cb3,4,342.154,343.75,space,1,0.349,,0,13,13,22,1,W,space,,,,,,,,,,
,,,,,R_4HB6iecylB5JMS5,001,2025-09-08_20h20.03.658,continuous_performance_test,2024.2.4,Win32,59.95203837,53ea59fd-da83-4611-8f63-ff9cb4080cb3,4,343.754,345.602,space,1,0.347,,0,14,14,9,1,J,space,,,,,,,,,,
,,,,,R_4HB6iecylB5JMS5,001,2025-09-08_20h20.03.658,continuous_performance_test,2024.2.4,Win32,59.95203837,53ea59fd-da83-4611-8f63-ff9cb4080cb3,4,345.605,347.301,space,1,0.366,,0,15,15,17,1,R,space,,,,,,,,,,
,,,,,R_4HB6iecylB5JMS5,001,2025-09-08_20h20.03.658,continuous_performance_test,2024.2.4,Win32,59.95203837,53ea59fd-da83-4611-8f63-ff9cb4080cb3,4,347.305,348.85,space,1,0.452,,0,16,16,2,1,C,space,,,,,,,,,,
,,,,,R_4HB6iecylB5JMS5,001,2025-09-08_20h20.03.658,continuous_performance_test,2024.2.4,Win32,59.95203837,53ea59fd-da83-4611-8f63-ff9cb4080cb3,4,348.853,350.601,space,1,0.385,,0,17,17,10,1,K,space,,,,,,,,,,
,,,,,R_4HB6iecylB5JMS5,001,2025-09-08_20h20.03.658,continuous_performance_test,2024.2.4,Win32,59.95203837,53ea59fd-da83-4611-8f63-ff9cb4080cb3,4,350.603,352.6,space,1,0.474,,0,18,18,1,1,B,space,,,,,,,,,,
,,,,,R_4HB6iecylB5JMS5,001,2025-09-08_20h20.03.658,continuous_performance_test,2024.2.4,Win32,59.95203837,53ea59fd-da83-4611-8f63-ff9cb4080cb3,4,352.603,354.15,space,1,0.381,,0,19,19,6,1,G,space,,,,,,,,,,
,,,,,R_4HB6iecylB5JMS5,001,2025-09-08_20h20.03.658,continuous_performance_test,2024.2.4,Win32,59.95203837,53ea59fd-da83-4611-8f63-ff9cb4080cb3,4,354.155,355.75,space,1,0.341,,0,20,20,11,1,L,space,,,,,,,,,,
,,,,,R_4HB6iecylB5JMS5,001,2025-09-08_20h20.03.658,continuous_performance_test,2024.2.4,Win32,59.95203837,53ea59fd-da83-4611-8f63-ff9cb4080cb3,4,355.754,357.351,space,1,0.333,,0,21,21,4,1,E,space,,,,,,,,,,
,,,,,R_4HB6iecylB5JMS5,001,2025-09-08_20h20.03.658,continuous_performance_test,2024.2.4,Win32,59.95203837,53ea59fd-da83-4611-8f63-ff9cb4080cb3,4,357.356,359.102,space,1,0.248,,0,22,22,20,1,U,space,,,,,,,,,,
,,,,,R_4HB6iecylB5JMS5,001,2025-09-08_20h20.03.658,continuous_performance_test,2024.2.4,Win32,59.95203837,53ea59fd-da83-4611-8f63-ff9cb4080cb3,4,359.104,360.651,space,0,0.332,,0,23,23,25,1,X,,,,,,,,,,,
,,,,,R_4HB6iecylB5JMS5,001,2025-09-08_20h20.03.658,continuous_performance_test,2024.2.4,Win32,59.95203837,53ea59fd-da83-4611-8f63-ff9cb4080cb3,4,360.653,362.451,,1,,,0,24,24,27,1,X,,,,,,,,,,,
,,,,,R_4HB6iecylB5JMS5,001,2025-09-08_20h20.03.658,continuous_performance_test,2024.2.4,Win32,59.95203837,53ea59fd-da83-4611-8f63-ff9cb4080cb3,4,362.454,364.151,space,1,0.457,,0,25,25,23,1,Y,space,,,,,,,,,,
,,,,,R_4HB6iecylB5JMS5,001,2025-09-08_20h20.03.658,continuous_performance_test,2024.2.4,Win32,59.95203837,53ea59fd-da83-4611-8f63-ff9cb4080cb3,4,364.153,365.801,space,1,0.433,,0,26,26,14,1,O,space,,,,,,,,,,
,,,,,R_4HB6iecylB5JMS5,001,2025-09-08_20h20.03.658,continuous_performance_test,2024.2.4,Win32,59.95203837,53ea59fd-da83-4611-8f63-ff9cb4080cb3,4,365.804,367.551,space,0,0.29,,0,27,27,28,1,X,,,,,,,,,,,
,,,,,R_4HB6iecylB5JMS5,001,2025-09-08_20h20.03.658,continuous_performance_test,2024.2.4,Win32,59.95203837,53ea59fd-da83-4611-8f63-ff9cb4080cb3,4,367.552,369.152,space,1,0.551,,0,28,28,21,1,V,space,,,,,,,,,,
,,,,,R_4HB6iecylB5JMS5,001,2025-09-08_20h20.03.658,continuous_performance_test,2024.2.4,Win32,59.95203837,53ea59fd-da83-4611-8f63-ff9cb4080cb3,4,369.158,370.751,space,1,0.469,,0,29,29,15,1,P,space,,,,,,,,,,
,,,,,R_4HB6iecylB5JMS5,001,2025-09-08_20h20.03.658,continuous_performance_test,2024.2.4,Win32,59.95203837,53ea59fd-da83-4611-8f63-ff9cb4080cb3,4,379.902,381.601,space,1,0.382,,0,0,0,13,1,N,space,370.753,379.885,space,9.085,,,,,,
,,,,,R_4HB6iecylB5JMS5,001,2025-09-08_20h20.03.658,continuous_performance_test,2024.2.4,Win32,59.95203837,53ea59fd-da83-4611-8f63-ff9cb4080cb3,4,381.603,383.202,space,1,0.273,,0,1,1,21,1,V,space,,,,,,,,,,
,,,,,R_4HB6iecylB5JMS5,001,2025-09-08_20h20.03.658,continuous_performance_test,2024.2.4,Win32,59.95203837,53ea59fd-da83-4611-8f63-ff9cb4080cb3,4,383.204,385.102,space,1,0.34,,0,2,2,19,1,T,space,,,,,,,,,,
,,,,,R_4HB6iecylB5JMS5,001,2025-09-08_20h20.03.658,continuous_performance_test,2024.2.4,Win32,59.95203837,53ea59fd-da83-4611-8f63-ff9cb4080cb3,4,385.104,386.952,space,0,0.28,,0,3,3,25,1,X,,,,,,,,,,,
,,,,,R_4HB6iecylB5JMS5,001,2025-09-08_20h20.03.658,continuous_performance_test,2024.2.4,Win32,59.95203837,53ea59fd-da83-4611-8f63-ff9cb4080cb3,4,386.955,388.902,space,1,0.49,,0,4,4,9,1,J,space,,,,,,,,,,
,,,,,R_4HB6iecylB5JMS5,001,2025-09-08_20h20.03.658,continuous_performance_test,2024.2.4,Win32,59.95203837,53ea59fd-da83-4611-8f63-ff9cb4080cb3,4,388.904,390.702,space,1,0.485,,0,5,5,3,1,D,space,,,,,,,,,,
,,,,,R_4HB6iecylB5JMS5,001,2025-09-08_20h20.03.658,continuous_performance_test,2024.2.4,Win32,59.95203837,53ea59fd-da83-4611-8f63-ff9cb4080cb3,4,390.704,392.551,space,1,0.373,,0,6,6,2,1,C,space,,,,,,,,,,
,,,,,R_4HB6iecylB5JMS5,001,2025-09-08_20h20.03.658,continuous_performance_test,2024.2.4,Win32,59.95203837,53ea59fd-da83-4611-8f63-ff9cb4080cb3,4,392.553,394.502,space,0,0.366,,0,7,7,26,1,X,,,,,,,,,,,
,,,,,R_4HB6iecylB5JMS5,001,2025-09-08_20h20.03.658,continuous_performance_test,2024.2.4,Win32,59.95203837,53ea59fd-da83-4611-8f63-ff9cb4080cb3,4,394.505,396.252,space,1,0.739,,0,8,8,6,1,G,space,,,,,,,,,,
,,,,,R_4HB6iecylB5JMS5,001,2025-09-08_20h20.03.658,continuous_performance_test,2024.2.4,Win32,59.95203837,53ea59fd-da83-4611-8f63-ff9cb4080cb3,4,396.254,398.152,space,1,0.493,,0,9,9,20,1,U,space,,,,,,,,,,
,,,,,R_4HB6iecylB5JMS5,001,2025-09-08_20h20.03.658,continuous_performance_test,2024.2.4,Win32,59.95203837,53ea59fd-da83-4611-8f63-ff9cb4080cb3,4,398.154,399.952,space,1,0.366,,0,10,10,16,1,Q,space,,,,,,,,,,
,,,,,R_4HB6iecylB5JMS5,001,2025-09-08_20h20.03.658,continuous_performance_test,2024.2.4,Win32,59.95203837,53ea59fd-da83-4611-8f63-ff9cb4080cb3,4,399.954,401.802,space,1,0.371,,0,11,11,11,1,L,space,,,,,,,,,,
,,,,,R_4HB6iecylB5JMS5,001,2025-09-08_20h20.03.658,continuous_performance_test,2024.2.4,Win32,59.95203837,53ea59fd-da83-4611-8f63-ff9cb4080cb3,4,401.805,403.602,space,1,0.363,,0,12,12,17,1,R,space,,,,,,,,,,
,,,,,R_4HB6iecylB5JMS5,001,2025-09-08_20h20.03.658,continuous_performance_test,2024.2.4,Win32,59.95203837,53ea59fd-da83-4611-8f63-ff9cb4080cb3,4,403.607,405.602,space,1,0.383,,0,13,13,0,1,A,space,,,,,,,,,,
,,,,,R_4HB6iecylB5JMS5,001,2025-09-08_20h20.03.658,continuous_performance_test,2024.2.4,Win32,59.95203837,53ea59fd-da83-4611-8f63-ff9cb4080cb3,4,405.606,407.352,space,1,0.353,,0,14,14,5,1,F,space,,,,,,,,,,
,,,,,R_4HB6iecylB5JMS5,001,2025-09-08_20h20.03.658,continuous_performance_test,2024.2.4,Win32,59.95203837,53ea59fd-da83-4611-8f63-ff9cb4080cb3,4,407.355,409.151,space,1,0.425,,0,15,15,23,1,Y,space,,,,,,,,,,
,,,,,R_4HB6iecylB5JMS5,001,2025-09-08_20h20.03.658,continuous_performance_test,2024.2.4,Win32,59.95203837,53ea59fd-da83-4611-8f63-ff9cb4080cb3,4,409.155,410.851,,1,,,0,16,16,28,1,X,,,,,,,,,,,
,,,,,R_4HB6iecylB5JMS5,001,2025-09-08_20h20.03.658,continuous_performance_test,2024.2.4,Win32,59.95203837,53ea59fd-da83-4611-8f63-ff9cb4080cb3,4,410.854,412.701,space,1,0.314,,0,17,17,8,1,I,space,,,,,,,,,,
,,,,,R_4HB6iecylB5JMS5,001,2025-09-08_20h20.03.658,continuous_performance_test,2024.2.4,Win32,59.95203837,53ea59fd-da83-4611-8f63-ff9cb4080cb3,4,412.704,414.252,space,1,0.314,,0,18,18,7,1,H,space,,,,,,,,,,
,,,,,R_4HB6iecylB5JMS5,001,2025-09-08_20h20.03.658,continuous_performance_test,2024.2.4,Win32,59.95203837,53ea59fd-da83-4611-8f63-ff9cb4080cb3,4,414.254,415.802,,1,,,0,19,19,29,1,X,,,,,,,,,,,
,,,,,R_4HB6iecylB5JMS5,001,2025-09-08_20h20.03.658,continuous_performance_test,2024.2.4,Win32,59.95203837,53ea59fd-da83-4611-8f63-ff9cb4080cb3,4,415.804,417.352,,1,,,0,20,20,27,1,X,,,,,,,,,,,
,,,,,R_4HB6iecylB5JMS5,001,2025-09-08_20h20.03.658,continuous_performance_test,2024.2.4,Win32,59.95203837,53ea59fd-da83-4611-8f63-ff9cb4080cb3,4,417.354,418.903,space,1,0.35,,0,21,21,4,1,E,space,,,,,,,,,,
,,,,,R_4HB6iecylB5JMS5,001,2025-09-08_20h20.03.658,continuous_performance_test,2024.2.4,Win32,59.95203837,53ea59fd-da83-4611-8f63-ff9cb4080cb3,4,418.907,420.801,space,1,0.366,,0,22,22,12,1,M,space,,,,,,,,,,
,,,,,R_4HB6iecylB5JMS5,001,2025-09-08_20h20.03.658,continuous_performance_test,2024.2.4,Win32,59.95203837,53ea59fd-da83-4611-8f63-ff9cb4080cb3,4,420.805,422.353,space,1,0.535,,0,23,23,22,1,W,space,,,,,,,,,,
,,,,,R_4HB6iecylB5JMS5,001,2025-09-08_20h20.03.658,continuous_performance_test,2024.2.4,Win32,59.95203837,53ea59fd-da83-4611-8f63-ff9cb4080cb3,4,422.357,424.202,space,1,0.358,,0,24,24,15,1,P,space,,,,,,,,,,
,,,,,R_4HB6iecylB5JMS5,001,2025-09-08_20h20.03.658,continuous_performance_test,2024.2.4,Win32,59.95203837,53ea59fd-da83-4611-8f63-ff9cb4080cb3,4,424.204,426.002,space,1,0.408,,0,25,25,18,1,S,space,,,,,,,,,,
,,,,,R_4HB6iecylB5JMS5,001,2025-09-08_20h20.03.658,continuous_performance_test,2024.2.4,Win32,59.95203837,53ea59fd-da83-4611-8f63-ff9cb4080cb3,4,426.003,427.802,space,1,0.416,,0,26,26,1,1,B,space,,,,,,,,,,
,,,,,R_4HB6iecylB5JMS5,001,2025-09-08_20h20.03.658,continuous_performance_test,2024.2.4,Win32,59.95203837,53ea59fd-da83-4611-8f63-ff9cb4080cb3,4,427.805,429.502,space,1,0.419,,0,27,27,14,1,O,space,,,,,,,,,,
,,,,,R_4HB6iecylB5JMS5,001,2025-09-08_20h20.03.658,continuous_performance_test,2024.2.4,Win32,59.95203837,53ea59fd-da83-4611-8f63-ff9cb4080cb3,4,429.505,431.503,space,1,0.336,,0,28,28,24,1,Z,space,,,,,,,,,,
,,,,,R_4HB6iecylB5JMS5,001,2025-09-08_20h20.03.658,continuous_performance_test,2024.2.4,Win32,59.95203837,53ea59fd-da83-4611-8f63-ff9cb4080cb3,4,431.506,433.253,space,1,0.334,,0,29,29,10,1,K,space,,,,,,,,,,
,,,,,R_4HB6iecylB5JMS5,001,2025-09-08_20h20.03.658,continuous_performance_test,2024.2.4,Win32,59.95203837,53ea59fd-da83-4611-8f63-ff9cb4080cb3,4,446.257,448.003,space,1,0.132,,0,0,0,18,1,S,space,433.255,446.236,space,12.939,,,,,,
,,,,,R_4HB6iecylB5JMS5,001,2025-09-08_20h20.03.658,continuous_performance_test,2024.2.4,Win32,59.95203837,53ea59fd-da83-4611-8f63-ff9cb4080cb3,4,448.006,449.902,space,1,0.324,,0,1,1,15,1,P,space,,,,,,,,,,
,,,,,R_4HB6iecylB5JMS5,001,2025-09-08_20h20.03.658,continuous_performance_test,2024.2.4,Win32,59.95203837,53ea59fd-da83-4611-8f63-ff9cb4080cb3,4,449.905,451.752,space,0,0.281,,0,2,2,28,1,X,,,,,,,,,,,
,,,,,R_4HB6iecylB5JMS5,001,2025-09-08_20h20.03.658,continuous_performance_test,2024.2.4,Win32,59.95203837,53ea59fd-da83-4611-8f63-ff9cb4080cb3,4,451.755,453.652,space,1,0.319,,0,3,3,3,1,D,space,,,,,,,,,,
,,,,,R_4HB6iecylB5JMS5,001,2025-09-08_20h20.03.658,continuous_performance_test,2024.2.4,Win32,59.95203837,53ea59fd-da83-4611-8f63-ff9cb4080cb3,4,453.655,455.402,space,1,0.366,,0,4,4,20,1,U,space,,,,,,,,,,
,,,,,R_4HB6iecylB5JMS5,001,2025-09-08_20h20.03.658,continuous_performance_test,2024.2.4,Win32,59.95203837,53ea59fd-da83-4611-8f63-ff9cb4080cb3,4,455.404,456.953,space,1,0.299,,0,5,5,7,1,H,space,,,,,,,,,,
,,,,,R_4HB6iecylB5JMS5,001,2025-09-08_20h20.03.658,continuous_performance_test,2024.2.4,Win32,59.95203837,53ea59fd-da83-4611-8f63-ff9cb4080cb3,4,456.956,458.853,space,1,0.4,,0,6,6,0,1,A,space,,,,,,,,,,
,,,,,R_4HB6iecylB5JMS5,001,2025-09-08_20h20.03.658,continuous_performance_test,2024.2.4,Win32,59.95203837,53ea59fd-da83-4611-8f63-ff9cb4080cb3,4,458.856,460.504,space,1,0.347,,0,7,7,17,1,R,space,,,,,,,,,,
,,,,,R_4HB6iecylB5JMS5,001,2025-09-08_20h20.03.658,continuous_performance_test,2024.2.4,Win32,59.95203837,53ea59fd-da83-4611-8f63-ff9cb4080cb3,4,460.506,462.304,space,1,0.334,,0,8,8,23,1,Y,space,,,,,,,,,,
,,,,,R_4HB6iecylB5JMS5,001,2025-09-08_20h20.03.658,continuous_performance_test,2024.2.4,Win32,59.95203837,53ea59fd-da83-4611-8f63-ff9cb4080cb3,4,462.307,463.953,space,1,0.421,,0,9,9,2,1,C,space,,,,,,,,,,
,,,,,R_4HB6iecylB5JMS5,001,2025-09-08_20h20.03.658,continuous_performance_test,2024.2.4,Win32,59.95203837,53ea59fd-da83-4611-8f63-ff9cb4080cb3,4,463.955,465.553,space,1,0.399,,0,10,10,1,1,B,space,,,,,,,,,,
,,,,,R_4HB6iecylB5JMS5,001,2025-09-08_20h20.03.658,continuous_performance_test,2024.2.4,Win32,59.95203837,53ea59fd-da83-4611-8f63-ff9cb4080cb3,4,465.555,467.402,space,0,0.322,,0,11,11,26,1,X,,,,,,,,,,,
,,,,,R_4HB6iecylB5JMS5,001,2025-09-08_20h20.03.658,continuous_performance_test,2024.2.4,Win32,59.95203837,53ea59fd-da83-4611-8f63-ff9cb4080cb3,4,467.405,469.153,space,1,0.348,,0,12,12,4,1,E,space,,,,,,,,,,
,,,,,R_4HB6iecylB5JMS5,001,2025-09-08_20h20.03.658,continuous_performance_test,2024.2.4,Win32,59.95203837,53ea59fd-da83-4611-8f63-ff9cb4080cb3,4,469.154,471.003,space,1,0.399,,0,13,13,14,1,O,space,,,,,,,,,,
,,,,,R_4HB6iecylB5JMS5,001,2025-09-08_20h20.03.658,continuous_performance_test,2024.2.4,Win32,59.95203837,53ea59fd-da83-4611-8f63-ff9cb4080cb3,4,471.008,472.903,space,1,0.491,,0,14,14,21,1,V,space,,,,,,,,,,
,,,,,R_4HB6iecylB5JMS5,001,2025-09-08_20h20.03.658,continuous_performance_test,2024.2.4,Win32,59.95203837,53ea59fd-da83-4611-8f63-ff9cb4080cb3,4,472.907,474.853,space,1,0.681,,0,15,15,24,1,Z,space,,,,,,,,,,
,,,,,R_4HB6iecylB5JMS5,001,2025-09-08_20h20.03.658,continuous_performance_test,2024.2.4,Win32,59.95203837,53ea59fd-da83-4611-8f63-ff9cb4080cb3,4,474.857,476.603,space,1,0.339,,0,16,16,11,1,L,space,,,,,,,,,,
,,,,,R_4HB6iecylB5JMS5,001,2025-09-08_20h20.03.658,continuous_performance_test,2024.2.4,Win32,59.95203837,53ea59fd-da83-4611-8f63-ff9cb4080cb3,4,476.605,478.254,space,1,0.519,,0,17,17,8,1,I,space,,,,,,,,,,
,,,,,R_4HB6iecylB5JMS5,001,2025-09-08_20h20.03.658,continuous_performance_test,2024.2.4,Win32,59.95203837,53ea59fd-da83-4611-8f63-ff9cb4080cb3,4,478.257,480.153,space,1,0.349,,0,18,18,13,1,N,space,,,,,,,,,,
,,,,,R_4HB6iecylB5JMS5,001,2025-09-08_20h20.03.658,continuous_performance_test,2024.2.4,Win32,59.95203837,53ea59fd-da83-4611-8f63-ff9cb4080cb3,4,480.157,482.053,space,1,0.389,,0,19,19,16,1,Q,space,,,,,,,,,,
,,,,,R_4HB6iecylB5JMS5,001,2025-09-08_20h20.03.658,continuous_performance_test,2024.2.4,Win32,59.95203837,53ea59fd-da83-4611-8f63-ff9cb4080cb3,4,482.056,483.853,space,1,0.47,,0,20,20,9,1,J,space,,,,,,,,,,
,,,,,R_4HB6iecylB5JMS5,001,2025-09-08_20h20.03.658,continuous_performance_test,2024.2.4,Win32,59.95203837,53ea59fd-da83-4611-8f63-ff9cb4080cb3,4,483.857,485.703,space,1,0.395,,0,21,21,5,1,F,space,,,,,,,,,,
,,,,,R_4HB6iecylB5JMS5,001,2025-09-08_20h20.03.658,continuous_performance_test,2024.2.4,Win32,59.95203837,53ea59fd-da83-4611-8f63-ff9cb4080cb3,4,485.707,487.553,,1,,,0,22,22,27,1,X,,,,,,,,,,,
,,,,,R_4HB6iecylB5JMS5,001,2025-09-08_20h20.03.658,continuous_performance_test,2024.2.4,Win32,59.95203837,53ea59fd-da83-4611-8f63-ff9cb4080cb3,4,487.556,489.553,space,1,0.369,,0,23,23,10,1,K,space,,,,,,,,,,
,,,,,R_4HB6iecylB5JMS5,001,2025-09-08_20h20.03.658,continuous_performance_test,2024.2.4,Win32,59.95203837,53ea59fd-da83-4611-8f63-ff9cb4080cb3,4,489.557,491.202,,1,,,0,24,24,25,1,X,,,,,,,,,,,
,,,,,R_4HB6iecylB5JMS5,001,2025-09-08_20h20.03.658,continuous_performance_test,2024.2.4,Win32,59.95203837,53ea59fd-da83-4611-8f63-ff9cb4080cb3,4,491.205,492.904,,1,,,0,25,25,29,1,X,,,,,,,,,,,
,,,,,R_4HB6iecylB5JMS5,001,2025-09-08_20h20.03.658,continuous_performance_test,2024.2.4,Win32,59.95203837,53ea59fd-da83-4611-8f63-ff9cb4080cb3,4,492.909,494.603,space,1,0.418,,0,26,26,22,1,W,space,,,,,,,,,,
,,,,,R_4HB6iecylB5JMS5,001,2025-09-08_20h20.03.658,continuous_performance_test,2024.2.4,Win32,59.95203837,53ea59fd-da83-4611-8f63-ff9cb4080cb3,4,494.606,496.504,space,1,0.435,,0,27,27,12,1,M,space,,,,,,,,,,
,,,,,R_4HB6iecylB5JMS5,001,2025-09-08_20h20.03.658,continuous_performance_test,2024.2.4,Win32,59.95203837,53ea59fd-da83-4611-8f63-ff9cb4080cb3,4,496.508,498.453,space,1,0.332,,0,28,28,6,1,G,space,,,,,,,,,,
,,,,,R_4HB6iecylB5JMS5,001,2025-09-08_20h20.03.658,continuous_performance_test,2024.2.4,Win32,59.95203837,53ea59fd-da83-4611-8f63-ff9cb4080cb3,4,498.456,500.404,space,1,0.616,,0,29,29,19,1,T,space,,,,,,,,,,
,,,,,R_4HB6iecylB5JMS5,001,2025-09-08_20h20.03.658,continuous_performance_test,2024.2.4,Win32,59.95203837,53ea59fd-da83-4611-8f63-ff9cb4080cb3,4,503.102,504.903,space,1,0.284,,0,0,0,2,1,C,space,500.407,503.087,space,2.626,,,,,,
,,,,,R_4HB6iecylB5JMS5,001,2025-09-08_20h20.03.658,continuous_performance_test,2024.2.4,Win32,59.95203837,53ea59fd-da83-4611-8f63-ff9cb4080cb3,4,504.91,506.603,space,1,0.335,,0,1,1,17,1,R,space,,,,,,,,,,
,,,,,R_4HB6iecylB5JMS5,001,2025-09-08_20h20.03.658,continuous_performance_test,2024.2.4,Win32,59.95203837,53ea59fd-da83-4611-8f63-ff9cb4080cb3,4,506.605,508.604,,1,,,0,2,2,25,1,X,,,,,,,,,,,
,,,,,R_4HB6iecylB5JMS5,001,2025-09-08_20h20.03.658,continuous_performance_test,2024.2.4,Win32,59.95203837,53ea59fd-da83-4611-8f63-ff9cb4080cb3,4,508.608,510.255,space,1,0.376,,0,3,3,20,1,U,space,,,,,,,,,,
,,,,,R_4HB6iecylB5JMS5,001,2025-09-08_20h20.03.658,continuous_performance_test,2024.2.4,Win32,59.95203837,53ea59fd-da83-4611-8f63-ff9cb4080cb3,4,510.259,512.154,space,1,0.254,,0,4,4,4,1,E,space,,,,,,,,,,
,,,,,R_4HB6iecylB5JMS5,001,2025-09-08_20h20.03.658,continuous_performance_test,2024.2.4,Win32,59.95203837,53ea59fd-da83-4611-8f63-ff9cb4080cb3,4,512.157,513.904,space,1,0.272,,0,5,5,5,1,F,space,,,,,,,,,,
,,,,,R_4HB6iecylB5JMS5,001,2025-09-08_20h20.03.658,continuous_performance_test,2024.2.4,Win32,59.95203837,53ea59fd-da83-4611-8f63-ff9cb4080cb3,4,513.907,515.503,space,1,0.3,,0,6,6,24,1,Z,space,,,,,,,,,,
,,,,,R_4HB6iecylB5JMS5,001,2025-09-08_20h20.03.658,continuous_performance_test,2024.2.4,Win32,59.95203837,53ea59fd-da83-4611-8f63-ff9cb4080cb3,4,515.506,517.055,space,1,0.373,,0,7,7,16,1,Q,space,,,,,,,,,,
,,,,,R_4HB6iecylB5JMS5,001,2025-09-08_20h20.03.658,continuous_performance_test,2024.2.4,Win32,59.95203837,53ea59fd-da83-4611-8f63-ff9cb4080cb3,4,517.058,518.804,space,1,0.336,,0,8,8,11,1,L,space,,,,,,,,,,
,,,,,R_4HB6iecylB5JMS5,001,2025-09-08_20h20.03.658,continuous_performance_test,2024.2.4,Win32,59.95203837,53ea59fd-da83-4611-8f63-ff9cb4080cb3,4,518.807,520.354,space,1,0.334,,0,9,9,23,1,Y,space,,,,,,,,,,
,,,,,R_4HB6iecylB5JMS5,001,2025-09-08_20h20.03.658,continuous_performance_test,2024.2.4,Win32,59.95203837,53ea59fd-da83-4611-8f63-ff9cb4080cb3,4,520.356,522.054,space,1,0.363,,0,10,10,6,1,G,space,,,,,,,,,,
,,,,,R_4HB6iecylB5JMS5,001,2025-09-08_20h20.03.658,continuous_performance_test,2024.2.4,Win32,59.95203837,53ea59fd-da83-4611-8f63-ff9cb4080cb3,4,522.058,523.604,space,1,0.416,,0,11,11,0,1,A,space,,,,,,,,,,
,,,,,R_4HB6iecylB5JMS5,001,2025-09-08_20h20.03.658,continuous_performance_test,2024.2.4,Win32,59.95203837,53ea59fd-da83-4611-8f63-ff9cb4080cb3,4,523.609,525.554,space,1,0.387,,0,12,12,12,1,M,space,,,,,,,,,,
,,,,,R_4HB6iecylB5JMS5,001,2025-09-08_20h20.03.658,continuous_performance_test,2024.2.4,Win32,59.95203837,53ea59fd-da83-4611-8f63-ff9cb4080cb3,4,525.557,527.554,space,0,0.405,,0,13,13,29,1,X,,,,,,,,,,,
,,,,,R_4HB6iecylB5JMS5,001,2025-09-08_20h20.03.658,continuous_performance_test,2024.2.4,Win32,59.95203837,53ea59fd-da83-4611-8f63-ff9cb4080cb3,4,527.556,529.403,space,1,0.49,,0,14,14,19,1,T,space,,,,,,,,,,
,,,,,R_4HB6iecylB5JMS5,001,2025-09-08_20h20.03.658,continuous_performance_test,2024.2.4,Win32,59.95203837,53ea59fd-da83-4611-8f63-ff9cb4080cb3,4,529.406,531.104,space,1,0.371,,0,15,15,3,1,D,space,,,,,,,,,,
,,,,,R_4HB6iecylB5JMS5,001,2025-09-08_20h20.03.658,continuous_performance_test,2024.2.4,Win32,59.95203837,53ea59fd-da83-4611-8f63-ff9cb4080cb3,4,531.107,532.655,space,1,0.387,,0,16,16,9,1,J,space,,,,,,,,,,
,,,,,R_4HB6iecylB5JMS5,001,2025-09-08_20h20.03.658,continuous_performance_test,2024.2.4,Win32,59.95203837,53ea59fd-da83-4611-8f63-ff9cb4080cb3,4,532.658,534.654,space,1,0.359,,0,17,17,10,1,K,space,,,,,,,,,,
,,,,,R_4HB6iecylB5JMS5,001,2025-09-08_20h20.03.658,continuous_performance_test,2024.2.4,Win32,59.95203837,53ea59fd-da83-4611-8f63-ff9cb4080cb3,4,534.659,536.204,space,1,0.399,,0,18,18,18,1,S,space,,,,,,,,,,
,,,,,R_4HB6iecylB5JMS5,001,2025-09-08_20h20.03.658,continuous_performance_test,2024.2.4,Win32,59.95203837,53ea59fd-da83-4611-8f63-ff9cb4080cb3,4,536.208,537.856,space,1,0.574,,0,19,19,8,1,I,space,,,,,,,,,,
,,,,,R_4HB6iecylB5JMS5,001,2025-09-08_20h20.03.658,continuous_performance_test,2024.2.4,Win32,59.95203837,53ea59fd-da83-4611-8f63-ff9cb4080cb3,4,537.862,539.505,space,1,0.432,,0,20,20,22,1,W,space,,,,,,,,,,
,,,,,R_4HB6iecylB5JMS5,001,2025-09-08_20h20.03.658,continuous_performance_test,2024.2.4,Win32,59.95203837,53ea59fd-da83-4611-8f63-ff9cb4080cb3,4,539.508,541.154,space,1,0.415,,0,21,21,14,1,O,space,,,,,,,,,,
,,,,,R_4HB6iecylB5JMS5,001,2025-09-08_20h20.03.658,continuous_performance_test,2024.2.4,Win32,59.95203837,53ea59fd-da83-4611-8f63-ff9cb4080cb3,4,541.159,542.754,space,1,0.361,,0,22,22,1,1,B,space,,,,,,,,,,
,,,,,R_4HB6iecylB5JMS5,001,2025-09-08_20h20.03.658,continuous_performance_test,2024.2.4,Win32,59.95203837,53ea59fd-da83-4611-8f63-ff9cb4080cb3,4,542.758,544.554,space,0,0.327,,0,23,23,28,1,X,,,,,,,,,,,
,,,,,R_4HB6iecylB5JMS5,001,2025-09-08_20h20.03.658,continuous_performance_test,2024.2.4,Win32,59.95203837,53ea59fd-da83-4611-8f63-ff9cb4080cb3,4,544.557,546.555,space,1,0.381,,0,24,24,7,1,H,space,,,,,,,,,,
,,,,,R_4HB6iecylB5JMS5,001,2025-09-08_20h20.03.658,continuous_performance_test,2024.2.4,Win32,59.95203837,53ea59fd-da83-4611-8f63-ff9cb4080cb3,4,546.559,548.255,space,1,0.33,,0,25,25,21,1,V,space,,,,,,,,,,
,,,,,R_4HB6iecylB5JMS5,001,2025-09-08_20h20.03.658,continuous_performance_test,2024.2.4,Win32,59.95203837,53ea59fd-da83-4611-8f63-ff9cb4080cb3,4,548.258,550.205,,1,,,0,26,26,26,1,X,,,,,,,,,,,
,,,,,R_4HB6iecylB5JMS5,001,2025-09-08_20h20.03.658,continuous_performance_test,2024.2.4,Win32,59.95203837,53ea59fd-da83-4611-8f63-ff9cb4080cb3,4,550.209,551.805,,1,,,0,27,27,27,1,X,,,,,,,,,,,
,,,,,R_4HB6iecylB5JMS5,001,2025-09-08_20h20.03.658,continuous_performance_test,2024.2.4,Win32,59.95203837,53ea59fd-da83-4611-8f63-ff9cb4080cb3,4,551.808,553.504,space,1,0.413,,0,28,28,13,1,N,space,,,,,,,,,,
,,,,,R_4HB6iecylB5JMS5,001,2025-09-08_20h20.03.658,continuous_performance_test,2024.2.4,Win32,59.95203837,53ea59fd-da83-4611-8f63-ff9cb4080cb3,4,553.507,555.404,space,1,0.48,,0,29,29,15,1,P,space,,,,,,,,,,
,,,,,R_4HB6iecylB5JMS5,001,2025-09-08_20h20.03.658,continuous_performance_test,2024.2.4,Win32,59.95203837,53ea59fd-da83-4611-8f63-ff9cb4080cb3,4,559.44,561.388,space,1,0.259,,0,0,0,10,1,K,space,555.407,559.422,space,3.97,,,,,,
,,,,,R_4HB6iecylB5JMS5,001,2025-09-08_20h20.03.658,continuous_performance_test,2024.2.4,Win32,59.95203837,53ea59fd-da83-4611-8f63-ff9cb4080cb3,4,561.39,563.288,space,1,0.349,,0,1,1,18,1,S,space,,,,,,,,,,
,,,,,R_4HB6iecylB5JMS5,001,2025-09-08_20h20.03.658,continuous_performance_test,2024.2.4,Win32,59.95203837,53ea59fd-da83-4611-8f63-ff9cb4080cb3,4,563.289,565.188,space,1,0.319,,0,2,2,20,1,U,space,,,,,,,,,,
,,,,,R_4HB6iecylB5JMS5,001,2025-09-08_20h20.03.658,continuous_performance_test,2024.2.4,Win32,59.95203837,53ea59fd-da83-4611-8f63-ff9cb4080cb3,4,565.191,566.738,space,1,0.35,,0,3,3,19,1,T,space,,,,,,,,,,
,,,,,R_4HB6iecylB5JMS5,001,2025-09-08_20h20.03.658,continuous_performance_test,2024.2.4,Win32,59.95203837,53ea59fd-da83-4611-8f63-ff9cb4080cb3,4,566.74,568.338,space,1,0.368,,0,4,4,11,1,L,space,,,,,,,,,,
,,,,,R_4HB6iecylB5JMS5,001,2025-09-08_20h20.03.658,continuous_performance_test,2024.2.4,Win32,59.95203837,53ea59fd-da83-4611-8f63-ff9cb4080cb3,4,568.341,570.138,space,1,0.248,,0,5,5,13,1,N,space,,,,,,,,,,
,,,,,R_4HB6iecylB5JMS5,001,2025-09-08_20h20.03.658,continuous_performance_test,2024.2.4,Win32,59.95203837,53ea59fd-da83-4611-8f63-ff9cb4080cb3,4,570.14,571.988,space,1,0.299,,0,6,6,24,1,Z,space,,,,,,,,,,
,,,,,R_4HB6iecylB5JMS5,001,2025-09-08_20h20.03.658,continuous_performance_test,2024.2.4,Win32,59.95203837,53ea59fd-da83-4611-8f63-ff9cb4080cb3,4,571.996,573.538,space,1,0.314,,0,7,7,8,1,I,space,,,,,,,,,,
,,,,,R_4HB6iecylB5JMS5,001,2025-09-08_20h20.03.658,continuous_performance_test,2024.2.4,Win32,59.95203837,53ea59fd-da83-4611-8f63-ff9cb4080cb3,4,573.54,575.339,space,1,0.331,,0,8,8,4,1,E,space,,,,,,,,,,
,,,,,R_4HB6iecylB5JMS5,001,2025-09-08_20h20.03.658,continuous_performance_test,2024.2.4,Win32,59.95203837,53ea59fd-da83-4611-8f63-ff9cb4080cb3,4,575.341,576.988,,1,,,0,9,9,29,1,X,,,,,,,,,,,
,,,,,R_4HB6iecylB5JMS5,001,2025-09-08_20h20.03.658,continuous_performance_test,2024.2.4,Win32,59.95203837,53ea59fd-da83-4611-8f63-ff9cb4080cb3,4,576.99,578.689,space,1,0.334,,0,10,10,5,1,F,space,,,,,,,,,,
,,,,,R_4HB6iecylB5JMS5,001,2025-09-08_20h20.03.658,continuous_performance_test,2024.2.4,Win32,59.95203837,53ea59fd-da83-4611-8f63-ff9cb4080cb3,4,578.691,580.388,space,1,0.5,,0,11,11,7,1,H,space,,,,,,,,,,
,,,,,R_4HB6iecylB5JMS5,001,2025-09-08_20h20.03.658,continuous_performance_test,2024.2.4,Win32,59.95203837,53ea59fd-da83-4611-8f63-ff9cb4080cb3,4,580.391,582.389,space,1,0.37,,0,12,12,3,1,D,space,,,,,,,,,,
,,,,,R_4HB6iecylB5JMS5,001,2025-09-08_20h20.03.658,continuous_performance_test,2024.2.4,Win32,59.95203837,53ea59fd-da83-4611-8f63-ff9cb4080cb3,4,582.391,584.088,space,1,0.465,,0,13,13,16,1,Q,space,,,,,,,,,,
,,,,,R_4HB6iecylB5JMS5,001,2025-09-08_20h20.03.658,continuous_performance_test,2024.2.4,Win32,59.95203837,53ea59fd-da83-4611-8f63-ff9cb4080cb3,4,584.092,585.638,space,1,0.419,,0,14,14,17,1,R,space,,,,,,,,,,
,,,,,R_4HB6iecylB5JMS5,001,2025-09-08_20h20.03.658,continuous_performance_test,2024.2.4,Win32,59.95203837,53ea59fd-da83-4611-8f63-ff9cb4080cb3,4,585.642,587.288,space,1,0.531,,0,15,15,1,1,B,space,,,,,,,,,,
,,,,,R_4HB6iecylB5JMS5,001,2025-09-08_20h20.03.658,continuous_performance_test,2024.2.4,Win32,59.95203837,53ea59fd-da83-4611-8f63-ff9cb4080cb3,4,587.291,588.938,space,1,0.472,,0,16,16,21,1,V,space,,,,,,,,,,
,,,,,R_4HB6iecylB5JMS5,001,2025-09-08_20h20.03.658,continuous_performance_test,2024.2.4,Win32,59.95203837,53ea59fd-da83-4611-8f63-ff9cb4080cb3,4,588.941,590.838,space,1,0.452,,0,17,17,6,1,G,space,,,,,,,,,,
,,,,,R_4HB6iecylB5JMS5,001,2025-09-08_20h20.03.658,continuous_performance_test,2024.2.4,Win32,59.95203837,53ea59fd-da83-4611-8f63-ff9cb4080cb3,4,590.84,592.638,space,1,0.497,,0,18,18,12,1,M,space,,,,,,,,,,
,,,,,R_4HB6iecylB5JMS5,001,2025-09-08_20h20.03.658,continuous_performance_test,2024.2.4,Win32,59.95203837,53ea59fd-da83-4611-8f63-ff9cb4080cb3,4,592.64,594.338,space,1,0.349,,0,19,19,9,1,J,space,,,,,,,,,,
,,,,,R_4HB6iecylB5JMS5,001,2025-09-08_20h20.03.658,continuous_performance_test,2024.2.4,Win32,59.95203837,53ea59fd-da83-4611-8f63-ff9cb4080cb3,4,594.34,596.338,space,1,0.351,,0,20,20,22,1,W,space,,,,,,,,,,
,,,,,R_4HB6iecylB5JMS5,001,2025-09-08_20h20.03.658,continuous_performance_test,2024.2.4,Win32,59.95203837,53ea59fd-da83-4611-8f63-ff9cb4080cb3,4,596.34,598.289,space,0,0.3,,0,21,21,25,1,X,,,,,,,,,,,
,,,,,R_4HB6iecylB5JMS5,001,2025-09-08_20h20.03.658,continuous_performance_test,2024.2.4,Win32,59.95203837,53ea59fd-da83-4611-8f63-ff9cb4080cb3,4,598.291,599.989,space,1,0.448,,0,22,22,23,1,Y,space,,,,,,,,,,
,,,,,R_4HB6iecylB5JMS5,001,2025-09-08_20h20.03.658,continuous_performance_test,2024.2.4,Win32,59.95203837,53ea59fd-da83-4611-8f63-ff9cb4080cb3,4,599.991,601.988,space,1,0.349,,0,23,23,15,1,P,space,,,,,,,,,,
,,,,,R_4HB6iecylB5JMS5,001,2025-09-08_20h20.03.658,continuous_performance_test,2024.2.4,Win32,59.95203837,53ea59fd-da83-4611-8f63-ff9cb4080cb3,4,601.991,603.689,space,1,0.381,,0,24,24,14,1,O,space,,,,,,,,,,
,,,,,R_4HB6iecylB5JMS5,001,2025-09-08_20h20.03.658,continuous_performance_test,2024.2.4,Win32,59.95203837,53ea59fd-da83-4611-8f63-ff9cb4080cb3,4,603.692,605.489,space,1,0.403,,0,25,25,0,1,A,space,,,,,,,,,,
,,,,,R_4HB6iecylB5JMS5,001,2025-09-08_20h20.03.658,continuous_performance_test,2024.2.4,Win32,59.95203837,53ea59fd-da83-4611-8f63-ff9cb4080cb3,4,605.491,607.489,,1,,,0,26,26,26,1,X,,,,,,,,,,,
,,,,,R_4HB6iecylB5JMS5,001,2025-09-08_20h20.03.658,continuous_performance_test,2024.2.4,Win32,59.95203837,53ea59fd-da83-4611-8f63-ff9cb4080cb3,4,607.494,609.189,space,1,0.346,,0,27,27,2,1,C,space,,,,,,,,,,
,,,,,R_4HB6iecylB5JMS5,001,2025-09-08_20h20.03.658,continuous_performance_test,2024.2.4,Win32,59.95203837,53ea59fd-da83-4611-8f63-ff9cb4080cb3,4,609.192,611.089,,1,,,0,28,28,28,1,X,,,,,,,,,,,
,,,,,R_4HB6iecylB5JMS5,001,2025-09-08_20h20.03.658,continuous_performance_test,2024.2.4,Win32,59.95203837,53ea59fd-da83-4611-8f63-ff9cb4080cb3,4,611.091,612.939,,1,,,0,29,29,27,1,X,,,,,,,,,,,
,,,,,R_4HB6iecylB5JMS5,001,2025-09-08_20h20.03.658,continuous_performance_test,2024.2.4,Win32,59.95203837,53ea59fd-da83-4611-8f63-ff9cb4080cb3,4,,,,,,,,,,,,,,612.942,612.945,,,,612.945,615.556,space,2.571,
