Instructions.started,Instructions.stopped,key_resp.keys,key_resp.rt,key_resp.duration,participant,session,date,expName,psychopyVersion,OS,frameRate,realeye-tester-id,realeye-tester-quality_grade,Trial_noX.started,Trial_noX.stopped,response.keys,response.corr,response.rt,response.duration,trials_noX.thisRepN,trials_noX.thisTrialN,trials_noX.thisN,trials_noX.thisIndex,trials_noX.ran,letter,corrAns,BlockBreak.started,BlockBreak.stopped,key_instruct.keys,key_instruct.rt,key_instruct.duration,End_NoX.started,End_NoX.stopped,key_resp_end_noX.keys,key_resp_end_noX.rt,key_resp_end_noX.duration
0.0004,9.6938,space,9.6814,,R_4li9cD7fBSAM9RP,001,2025-09-15_19h59.32.025,continuous_performance_test,2024.2.4,MacIntel,119.047619,940987d6-eeed-46db-b3ac-3c40dd254c09,5,,,,,,,,,,,,,,,,,,,,,,,
,,,,,R_4li9cD7fBSAM9RP,001,2025-09-15_19h59.32.025,continuous_performance_test,2024.2.4,MacIntel,119.047619,940987d6-eeed-46db-b3ac-3c40dd254c09,5,9.7161,11.5615,space,1,0.5459,,0,0,0,18,1,S,space,,,,,,,,,,
,,,,,R_4li9cD7fBSAM9RP,001,2025-09-15_19h59.32.025,continuous_performance_test,2024.2.4,MacIntel,119.047619,940987d6-eeed-46db-b3ac-3c40dd254c09,5,11.5655,13.5611,space,1,0.2532,,0,1,1,17,1,R,space,,,,,,,,,,
,,,,,R_4li9cD7fBSAM9RP,001,2025-09-15_19h59.32.025,continuous_performance_test,2024.2.4,MacIntel,119.047619,940987d6-eeed-46db-b3ac-3c40dd254c09,5,13.563,15.2606,space,0,0.3159,,0,2,2,28,1,X,,,,,,,,,,,
,,,,,R_4li9cD7fBSAM9RP,001,2025-09-15_19h59.32.025,continuous_performance_test,2024.2.4,MacIntel,119.047619,940987d6-eeed-46db-b3ac-3c40dd254c09,5,15.2632,17.0602,space,1,0.3575,,0,3,3,6,1,G,space,,,,,,,,,,
,,,,,R_4li9cD7fBSAM9RP,001,2025-09-15_19h59.32.025,continuous_performance_test,2024.2.4,MacIntel,119.047619,940987d6-eeed-46db-b3ac-3c40dd254c09,5,17.0614,18.6111,space,1,0.385,,0,4,4,5,1,F,space,,,,,,,,,,
,,,,,R_4li9cD7fBSAM9RP,001,2025-09-15_19h59.32.025,continuous_performance_test,2024.2.4,MacIntel,119.047619,940987d6-eeed-46db-b3ac-3c40dd254c09,5,18.6129,20.56,space,1,0.4435,,0,5,5,21,1,V,space,,,,,,,,,,
,,,,,R_4li9cD7fBSAM9RP,001,2025-09-15_19h59.32.025,continuous_performance_test,2024.2.4,MacIntel,119.047619,940987d6-eeed-46db-b3ac-3c40dd254c09,5,20.5614,22.356,space,1,0.3231,,0,6,6,13,1,N,space,,,,,,,,,,
,,,,,R_4li9cD7fBSAM9RP,001,2025-09-15_19h59.32.025,continuous_performance_test,2024.2.4,MacIntel,119.047619,940987d6-eeed-46db-b3ac-3c40dd254c09,5,22.3588,24.3054,space,1,0.2442,,0,7,7,19,1,T,space,,,,,,,,,,
,,,,,R_4li9cD7fBSAM9RP,001,2025-09-15_19h59.32.025,continuous_performance_test,2024.2.4,MacIntel,119.047619,940987d6-eeed-46db-b3ac-3c40dd254c09,5,24.3081,26.0564,space,0,0.2948,,0,8,8,25,1,X,,,,,,,,,,,
,,,,,R_4li9cD7fBSAM9RP,001,2025-09-15_19h59.32.025,continuous_performance_test,2024.2.4,MacIntel,119.047619,940987d6-eeed-46db-b3ac-3c40dd254c09,5,26.0588,27.9065,space,1,0.3962,,0,9,9,2,1,C,space,,,,,,,,,,
,,,,,R_4li9cD7fBSAM9RP,001,2025-09-15_19h59.32.025,continuous_performance_test,2024.2.4,MacIntel,119.047619,940987d6-eeed-46db-b3ac-3c40dd254c09,5,27.9089,29.7566,space,1,0.3591,,0,10,10,12,1,M,space,,,,,,,,,,
,,,,,R_4li9cD7fBSAM9RP,001,2025-09-15_19h59.32.025,continuous_performance_test,2024.2.4,MacIntel,119.047619,940987d6-eeed-46db-b3ac-3c40dd254c09,5,29.7591,31.7567,space,1,0.3775,,0,11,11,9,1,J,space,,,,,,,,,,
,,,,,R_4li9cD7fBSAM9RP,001,2025-09-15_19h59.32.025,continuous_performance_test,2024.2.4,MacIntel,119.047619,940987d6-eeed-46db-b3ac-3c40dd254c09,5,31.7589,33.4074,space,1,0.6182,,0,12,12,20,1,U,space,,,,,,,,,,
,,,,,R_4li9cD7fBSAM9RP,001,2025-09-15_19h59.32.025,continuous_performance_test,2024.2.4,MacIntel,119.047619,940987d6-eeed-46db-b3ac-3c40dd254c09,5,33.4091,35.3559,space,1,0.4347,,0,13,13,23,1,Y,space,,,,,,,,,,
,,,,,R_4li9cD7fBSAM9RP,001,2025-09-15_19h59.32.025,continuous_performance_test,2024.2.4,MacIntel,119.047619,940987d6-eeed-46db-b3ac-3c40dd254c09,5,35.3568,36.9571,space,1,0.4815,,0,14,14,24,1,Z,space,,,,,,,,,,
,,,,,R_4li9cD7fBSAM9RP,001,2025-09-15_19h59.32.025,continuous_performance_test,2024.2.4,MacIntel,119.047619,940987d6-eeed-46db-b3ac-3c40dd254c09,5,36.9591,38.6062,space,1,0.4008,,0,15,15,1,1,B,space,,,,,,,,,,
,,,,,R_4li9cD7fBSAM9RP,001,2025-09-15_19h59.32.025,continuous_performance_test,2024.2.4,MacIntel,119.047619,940987d6-eeed-46db-b3ac-3c40dd254c09,5,38.6076,40.1564,,1,,,0,16,16,26,1,X,,,,,,,,,,,
,,,,,R_4li9cD7fBSAM9RP,001,2025-09-15_19h59.32.025,continuous_performance_test,2024.2.4,MacIntel,119.047619,940987d6-eeed-46db-b3ac-3c40dd254c09,5,40.1599,41.8059,space,1,0.4047,,0,17,17,10,1,K,space,,,,,,,,,,
,,,,,R_4li9cD7fBSAM9RP,001,2025-09-15_19h59.32.025,continuous_performance_test,2024.2.4,MacIntel,119.047619,940987d6-eeed-46db-b3ac-3c40dd254c09,5,41.8071,43.7564,space,1,0.4267,,0,18,18,3,1,D,space,,,,,,,,,,
,,,,,R_4li9cD7fBSAM9RP,001,2025-09-15_19h59.32.025,continuous_performance_test,2024.2.4,MacIntel,119.047619,940987d6-eeed-46db-b3ac-3c40dd254c09,5,43.759,45.4564,space,1,0.3845,,0,19,19,14,1,O,space,,,,,,,,,,
,,,,,R_4li9cD7fBSAM9RP,001,2025-09-15_19h59.32.025,continuous_performance_test,2024.2.4,MacIntel,119.047619,940987d6-eeed-46db-b3ac-3c40dd254c09,5,45.4585,47.4562,space,1,0.4523,,0,20,20,8,1,I,space,,,,,,,,,,
,,,,,R_4li9cD7fBSAM9RP,001,2025-09-15_19h59.32.025,continuous_performance_test,2024.2.4,MacIntel,119.047619,940987d6-eeed-46db-b3ac-3c40dd254c09,5,47.4592,49.4555,space,1,0.4216,,0,21,21,11,1,L,space,,,,,,,,,,
,,,,,R_4li9cD7fBSAM9RP,001,2025-09-15_19h59.32.025,continuous_performance_test,2024.2.4,MacIntel,119.047619,940987d6-eeed-46db-b3ac-3c40dd254c09,5,49.4581,51.3552,,1,,,0,22,22,29,1,X,,,,,,,,,,,
,,,,,R_4li9cD7fBSAM9RP,001,2025-09-15_19h59.32.025,continuous_performance_test,2024.2.4,MacIntel,119.047619,940987d6-eeed-46db-b3ac-3c40dd254c09,5,51.356,53.2061,,1,,,0,23,23,27,1,X,,,,,,,,,,,
,,,,,R_4li9cD7fBSAM9RP,001,2025-09-15_19h59.32.025,continuous_performance_test,2024.2.4,MacIntel,119.047619,940987d6-eeed-46db-b3ac-3c40dd254c09,5,53.2091,54.8562,space,1,0.3736,,0,24,24,16,1,Q,space,,,,,,,,,,
,,,,,R_4li9cD7fBSAM9RP,001,2025-09-15_19h59.32.025,continuous_performance_test,2024.2.4,MacIntel,119.047619,940987d6-eeed-46db-b3ac-3c40dd254c09,5,54.8589,56.7059,space,1,0.3519,,0,25,25,7,1,H,space,,,,,,,,,,
,,,,,R_4li9cD7fBSAM9RP,001,2025-09-15_19h59.32.025,continuous_performance_test,2024.2.4,MacIntel,119.047619,940987d6-eeed-46db-b3ac-3c40dd254c09,5,56.7068,58.3564,space,1,0.3628,,0,26,26,4,1,E,space,,,,,,,,,,
,,,,,R_4li9cD7fBSAM9RP,001,2025-09-15_19h59.32.025,continuous_performance_test,2024.2.4,MacIntel,119.047619,940987d6-eeed-46db-b3ac-3c40dd254c09,5,58.3591,59.9559,space,1,0.4445,,0,27,27,0,1,A,space,,,,,,,,,,
,,,,,R_4li9cD7fBSAM9RP,001,2025-09-15_19h59.32.025,continuous_performance_test,2024.2.4,MacIntel,119.047619,940987d6-eeed-46db-b3ac-3c40dd254c09,5,59.957,61.9059,space,1,0.3127,,0,28,28,15,1,P,space,,,,,,,,,,
,,,,,R_4li9cD7fBSAM9RP,001,2025-09-15_19h59.32.025,continuous_performance_test,2024.2.4,MacIntel,119.047619,940987d6-eeed-46db-b3ac-3c40dd254c09,5,61.9071,63.5078,space,1,0.3423,,0,29,29,22,1,W,space,,,,,,,,,,
,,,,,R_4li9cD7fBSAM9RP,001,2025-09-15_19h59.32.025,continuous_performance_test,2024.2.4,MacIntel,119.047619,940987d6-eeed-46db-b3ac-3c40dd254c09,5,72.1698,74.1189,space,0,0.2716,,0,0,0,26,1,X,,63.5088,72.1647,space,8.6464,,,,,,
,,,,,R_4li9cD7fBSAM9RP,001,2025-09-15_19h59.32.025,continuous_performance_test,2024.2.4,MacIntel,119.047619,940987d6-eeed-46db-b3ac-3c40dd254c09,5,74.1212,76.0175,space,1,0.2944,,0,1,1,2,1,C,space,,,,,,,,,,
,,,,,R_4li9cD7fBSAM9RP,001,2025-09-15_19h59.32.025,continuous_performance_test,2024.2.4,MacIntel,119.047619,940987d6-eeed-46db-b3ac-3c40dd254c09,5,76.0183,77.9189,space,1,0.299,,0,2,2,14,1,O,space,,,,,,,,,,
,,,,,R_4li9cD7fBSAM9RP,001,2025-09-15_19h59.32.025,continuous_performance_test,2024.2.4,MacIntel,119.047619,940987d6-eeed-46db-b3ac-3c40dd254c09,5,77.921,79.9189,space,1,0.3582,,0,3,3,24,1,Z,space,,,,,,,,,,
,,,,,R_4li9cD7fBSAM9RP,001,2025-09-15_19h59.32.025,continuous_performance_test,2024.2.4,MacIntel,119.047619,940987d6-eeed-46db-b3ac-3c40dd254c09,5,79.9213,81.7684,space,1,0.3245,,0,4,4,23,1,Y,space,,,,,,,,,,
,,,,,R_4li9cD7fBSAM9RP,001,2025-09-15_19h59.32.025,continuous_performance_test,2024.2.4,MacIntel,119.047619,940987d6-eeed-46db-b3ac-3c40dd254c09,5,81.7702,83.6189,space,1,0.3403,,0,5,5,8,1,I,space,,,,,,,,,,
,,,,,R_4li9cD7fBSAM9RP,001,2025-09-15_19h59.32.025,continuous_performance_test,2024.2.4,MacIntel,119.047619,940987d6-eeed-46db-b3ac-3c40dd254c09,5,83.6213,85.469,space,1,0.3113,,0,6,6,20,1,U,space,,,,,,,,,,
,,,,,R_4li9cD7fBSAM9RP,001,2025-09-15_19h59.32.025,continuous_performance_test,2024.2.4,MacIntel,119.047619,940987d6-eeed-46db-b3ac-3c40dd254c09,5,85.4712,87.369,space,1,0.3865,,0,7,7,0,1,A,space,,,,,,,,,,
,,,,,R_4li9cD7fBSAM9RP,001,2025-09-15_19h59.32.025,continuous_performance_test,2024.2.4,MacIntel,119.047619,940987d6-eeed-46db-b3ac-3c40dd254c09,5,87.3712,89.1681,space,1,0.2993,,0,8,8,7,1,H,space,,,,,,,,,,
,,,,,R_4li9cD7fBSAM9RP,001,2025-09-15_19h59.32.025,continuous_performance_test,2024.2.4,MacIntel,119.047619,940987d6-eeed-46db-b3ac-3c40dd254c09,5,89.1693,91.1695,space,1,0.3825,,0,9,9,12,1,M,space,,,,,,,,,,
,,,,,R_4li9cD7fBSAM9RP,001,2025-09-15_19h59.32.025,continuous_performance_test,2024.2.4,MacIntel,119.047619,940987d6-eeed-46db-b3ac-3c40dd254c09,5,91.1709,93.0686,space,1,0.3307,,0,10,10,16,1,Q,space,,,,,,,,,,
,,,,,R_4li9cD7fBSAM9RP,001,2025-09-15_19h59.32.025,continuous_performance_test,2024.2.4,MacIntel,119.047619,940987d6-eeed-46db-b3ac-3c40dd254c09,5,93.0697,94.6187,space,1,0.3141,,0,11,11,4,1,E,space,,,,,,,,,,
,,,,,R_4li9cD7fBSAM9RP,001,2025-09-15_19h59.32.025,continuous_performance_test,2024.2.4,MacIntel,119.047619,940987d6-eeed-46db-b3ac-3c40dd254c09,5,94.6209,96.4686,,1,,,0,12,12,28,1,X,,,,,,,,,,,
,,,,,R_4li9cD7fBSAM9RP,001,2025-09-15_19h59.32.025,continuous_performance_test,2024.2.4,MacIntel,119.047619,940987d6-eeed-46db-b3ac-3c40dd254c09,5,96.4695,98.3688,space,0,0.3085,,0,13,13,25,1,X,,,,,,,,,,,
,,,,,R_4li9cD7fBSAM9RP,001,2025-09-15_19h59.32.025,continuous_performance_test,2024.2.4,MacIntel,119.047619,940987d6-eeed-46db-b3ac-3c40dd254c09,5,98.3709,100.2691,space,1,0.3607,,0,14,14,1,1,B,space,,,,,,,,,,
,,,,,R_4li9cD7fBSAM9RP,001,2025-09-15_19h59.32.025,continuous_performance_test,2024.2.4,MacIntel,119.047619,940987d6-eeed-46db-b3ac-3c40dd254c09,5,100.2713,102.0142,space,1,0.3451,,0,15,15,13,1,N,space,,,,,,,,,,
,,,,,R_4li9cD7fBSAM9RP,001,2025-09-15_19h59.32.025,continuous_performance_test,2024.2.4,MacIntel,119.047619,940987d6-eeed-46db-b3ac-3c40dd254c09,5,102.0152,103.8148,,1,,,0,16,16,27,1,X,,,,,,,,,,,
,,,,,R_4li9cD7fBSAM9RP,001,2025-09-15_19h59.32.025,continuous_performance_test,2024.2.4,MacIntel,119.047619,940987d6-eeed-46db-b3ac-3c40dd254c09,5,103.8171,105.7647,,1,,,0,17,17,29,1,X,,,,,,,,,,,
,,,,,R_4li9cD7fBSAM9RP,001,2025-09-15_19h59.32.025,continuous_performance_test,2024.2.4,MacIntel,119.047619,940987d6-eeed-46db-b3ac-3c40dd254c09,5,105.7668,107.6636,space,1,0.3944,,0,18,18,19,1,T,space,,,,,,,,,,
,,,,,R_4li9cD7fBSAM9RP,001,2025-09-15_19h59.32.025,continuous_performance_test,2024.2.4,MacIntel,119.047619,940987d6-eeed-46db-b3ac-3c40dd254c09,5,107.666,109.4137,space,1,0.5076,,0,19,19,10,1,K,space,,,,,,,,,,
,,,,,R_4li9cD7fBSAM9RP,001,2025-09-15_19h59.32.025,continuous_performance_test,2024.2.4,MacIntel,119.047619,940987d6-eeed-46db-b3ac-3c40dd254c09,5,109.4147,111.0102,space,1,0.3826,,0,20,20,11,1,L,space,,,,,,,,,,
,,,,,R_4li9cD7fBSAM9RP,001,2025-09-15_19h59.32.025,continuous_performance_test,2024.2.4,MacIntel,119.047619,940987d6-eeed-46db-b3ac-3c40dd254c09,5,111.0122,112.8601,space,1,0.3611,,0,21,21,18,1,S,space,,,,,,,,,,
,,,,,R_4li9cD7fBSAM9RP,001,2025-09-15_19h59.32.025,continuous_performance_test,2024.2.4,MacIntel,119.047619,940987d6-eeed-46db-b3ac-3c40dd254c09,5,112.861,114.8606,space,1,0.2891,,0,22,22,15,1,P,space,,,,,,,,,,
,,,,,R_4li9cD7fBSAM9RP,001,2025-09-15_19h59.32.025,continuous_performance_test,2024.2.4,MacIntel,119.047619,940987d6-eeed-46db-b3ac-3c40dd254c09,5,114.8624,116.5107,space,1,0.5124,,0,23,23,5,1,F,space,,,,,,,,,,
,,,,,R_4li9cD7fBSAM9RP,001,2025-09-15_19h59.32.025,continuous_performance_test,2024.2.4,MacIntel,119.047619,940987d6-eeed-46db-b3ac-3c40dd254c09,5,116.5127,118.2101,space,1,0.3312,,0,24,24,3,1,D,space,,,,,,,,,,
,,,,,R_4li9cD7fBSAM9RP,001,2025-09-15_19h59.32.025,continuous_performance_test,2024.2.4,MacIntel,119.047619,940987d6-eeed-46db-b3ac-3c40dd254c09,5,118.2107,120.1107,space,1,0.359,,0,25,25,9,1,J,space,,,,,,,,,,
,,,,,R_4li9cD7fBSAM9RP,001,2025-09-15_19h59.32.025,continuous_performance_test,2024.2.4,MacIntel,119.047619,940987d6-eeed-46db-b3ac-3c40dd254c09,5,120.1133,122.0102,space,1,0.384,,0,26,26,17,1,R,space,,,,,,,,,,
,,,,,R_4li9cD7fBSAM9RP,001,2025-09-15_19h59.32.025,continuous_performance_test,2024.2.4,MacIntel,119.047619,940987d6-eeed-46db-b3ac-3c40dd254c09,5,122.0113,123.5601,space,1,0.3966,,0,27,27,6,1,G,space,,,,,,,,,,
,,,,,R_4li9cD7fBSAM9RP,001,2025-09-15_19h59.32.025,continuous_performance_test,2024.2.4,MacIntel,119.047619,940987d6-eeed-46db-b3ac-3c40dd254c09,5,123.5612,125.1595,space,1,0.3458,,0,28,28,22,1,W,space,,,,,,,,,,
,,,,,R_4li9cD7fBSAM9RP,001,2025-09-15_19h59.32.025,continuous_performance_test,2024.2.4,MacIntel,119.047619,940987d6-eeed-46db-b3ac-3c40dd254c09,5,125.1606,126.9106,space,1,0.4392,,0,29,29,21,1,V,space,,,,,,,,,,
,,,,,R_4li9cD7fBSAM9RP,001,2025-09-15_19h59.32.025,continuous_performance_test,2024.2.4,MacIntel,119.047619,940987d6-eeed-46db-b3ac-3c40dd254c09,5,141.3347,143.1319,space,1,0.3359,,0,0,0,15,1,P,space,126.9126,141.3307,space,14.4055,,,,,,
,,,,,R_4li9cD7fBSAM9RP,001,2025-09-15_19h59.32.025,continuous_performance_test,2024.2.4,MacIntel,119.047619,940987d6-eeed-46db-b3ac-3c40dd254c09,5,143.134,144.9809,space,1,0.5133,,0,1,1,19,1,T,space,,,,,,,,,,
,,,,,R_4li9cD7fBSAM9RP,001,2025-09-15_19h59.32.025,continuous_performance_test,2024.2.4,MacIntel,119.047619,940987d6-eeed-46db-b3ac-3c40dd254c09,5,144.9828,146.6315,space,1,0.3363,,0,2,2,23,1,Y,space,,,,,,,,,,
,,,,,R_4li9cD7fBSAM9RP,001,2025-09-15_19h59.32.025,continuous_performance_test,2024.2.4,MacIntel,119.047619,940987d6-eeed-46db-b3ac-3c40dd254c09,5,146.6336,148.1806,space,1,0.3242,,0,3,3,3,1,D,space,,,,,,,,,,
,,,,,R_4li9cD7fBSAM9RP,001,2025-09-15_19h59.32.025,continuous_performance_test,2024.2.4,MacIntel,119.047619,940987d6-eeed-46db-b3ac-3c40dd254c09,5,148.1827,150.1268,space,0,0.2827,,0,4,4,29,1,X,,,,,,,,,,,
,,,,,R_4li9cD7fBSAM9RP,001,2025-09-15_19h59.32.025,continuous_performance_test,2024.2.4,MacIntel,119.047619,940987d6-eeed-46db-b3ac-3c40dd254c09,5,150.1291,151.7273,space,1,0.3486,,0,5,5,20,1,U,space,,,,,,,,,,
,,,,,R_4li9cD7fBSAM9RP,001,2025-09-15_19h59.32.025,continuous_performance_test,2024.2.4,MacIntel,119.047619,940987d6-eeed-46db-b3ac-3c40dd254c09,5,151.7288,153.673,space,1,0.3265,,0,6,6,18,1,S,space,,,,,,,,,,
,,,,,R_4li9cD7fBSAM9RP,001,2025-09-15_19h59.32.025,continuous_performance_test,2024.2.4,MacIntel,119.047619,940987d6-eeed-46db-b3ac-3c40dd254c09,5,153.675,155.3223,space,1,0.3361,,0,7,7,7,1,H,space,,,,,,,,,,
,,,,,R_4li9cD7fBSAM9RP,001,2025-09-15_19h59.32.025,continuous_performance_test,2024.2.4,MacIntel,119.047619,940987d6-eeed-46db-b3ac-3c40dd254c09,5,155.3249,156.8717,space,1,0.2953,,0,8,8,14,1,O,space,,,,,,,,,,
,,,,,R_4li9cD7fBSAM9RP,001,2025-09-15_19h59.32.025,continuous_performance_test,2024.2.4,MacIntel,119.047619,940987d6-eeed-46db-b3ac-3c40dd254c09,5,156.8727,158.4225,space,1,0.2368,,0,9,9,8,1,I,space,,,,,,,,,,
,,,,,R_4li9cD7fBSAM9RP,001,2025-09-15_19h59.32.025,continuous_performance_test,2024.2.4,MacIntel,119.047619,940987d6-eeed-46db-b3ac-3c40dd254c09,5,158.4235,160.0731,space,1,0.287,,0,10,10,5,1,F,space,,,,,,,,,,
,,,,,R_4li9cD7fBSAM9RP,001,2025-09-15_19h59.32.025,continuous_performance_test,2024.2.4,MacIntel,119.047619,940987d6-eeed-46db-b3ac-3c40dd254c09,5,160.0752,162.068,space,1,0.301,,0,11,11,2,1,C,space,,,,,,,,,,
,,,,,R_4li9cD7fBSAM9RP,001,2025-09-15_19h59.32.025,continuous_performance_test,2024.2.4,MacIntel,119.047619,940987d6-eeed-46db-b3ac-3c40dd254c09,5,162.0703,163.9686,space,1,0.306,,0,12,12,0,1,A,space,,,,,,,,,,
,,,,,R_4li9cD7fBSAM9RP,001,2025-09-15_19h59.32.025,continuous_performance_test,2024.2.4,MacIntel,119.047619,940987d6-eeed-46db-b3ac-3c40dd254c09,5,163.9708,165.7196,,1,,,0,13,13,27,1,X,,,,,,,,,,,
,,,,,R_4li9cD7fBSAM9RP,001,2025-09-15_19h59.32.025,continuous_performance_test,2024.2.4,MacIntel,119.047619,940987d6-eeed-46db-b3ac-3c40dd254c09,5,165.7216,167.319,space,1,0.338,,0,14,14,4,1,E,space,,,,,,,,,,
,,,,,R_4li9cD7fBSAM9RP,001,2025-09-15_19h59.32.025,continuous_performance_test,2024.2.4,MacIntel,119.047619,940987d6-eeed-46db-b3ac-3c40dd254c09,5,167.3215,168.9186,space,1,0.3116,,0,15,15,17,1,R,space,,,,,,,,,,
,,,,,R_4li9cD7fBSAM9RP,001,2025-09-15_19h59.32.025,continuous_performance_test,2024.2.4,MacIntel,119.047619,940987d6-eeed-46db-b3ac-3c40dd254c09,5,168.9195,170.6685,space,1,0.2964,,0,16,16,12,1,M,space,,,,,,,,,,
,,,,,R_4li9cD7fBSAM9RP,001,2025-09-15_19h59.32.025,continuous_performance_test,2024.2.4,MacIntel,119.047619,940987d6-eeed-46db-b3ac-3c40dd254c09,5,170.6694,172.4687,space,0,0.2977,,0,17,17,25,1,X,,,,,,,,,,,
,,,,,R_4li9cD7fBSAM9RP,001,2025-09-15_19h59.32.025,continuous_performance_test,2024.2.4,MacIntel,119.047619,940987d6-eeed-46db-b3ac-3c40dd254c09,5,172.4713,174.2186,space,1,0.3105,,0,18,18,6,1,G,space,,,,,,,,,,
,,,,,R_4li9cD7fBSAM9RP,001,2025-09-15_19h59.32.025,continuous_performance_test,2024.2.4,MacIntel,119.047619,940987d6-eeed-46db-b3ac-3c40dd254c09,5,174.2197,176.1692,space,1,0.3659,,0,19,19,9,1,J,space,,,,,,,,,,
,,,,,R_4li9cD7fBSAM9RP,001,2025-09-15_19h59.32.025,continuous_performance_test,2024.2.4,MacIntel,119.047619,940987d6-eeed-46db-b3ac-3c40dd254c09,5,176.1716,177.7693,space,1,0.4129,,0,20,20,10,1,K,space,,,,,,,,,,
,,,,,R_4li9cD7fBSAM9RP,001,2025-09-15_19h59.32.025,continuous_performance_test,2024.2.4,MacIntel,119.047619,940987d6-eeed-46db-b3ac-3c40dd254c09,5,177.7712,179.369,space,1,0.7574,,0,21,21,24,1,Z,space,,,,,,,,,,
,,,,,R_4li9cD7fBSAM9RP,001,2025-09-15_19h59.32.025,continuous_performance_test,2024.2.4,MacIntel,119.047619,940987d6-eeed-46db-b3ac-3c40dd254c09,5,179.3711,181.0189,space,1,0.36,,0,22,22,21,1,V,space,,,,,,,,,,
,,,,,R_4li9cD7fBSAM9RP,001,2025-09-15_19h59.32.025,continuous_performance_test,2024.2.4,MacIntel,119.047619,940987d6-eeed-46db-b3ac-3c40dd254c09,5,181.0217,182.92,space,1,0.4309,,0,23,23,11,1,L,space,,,,,,,,,,
,,,,,R_4li9cD7fBSAM9RP,001,2025-09-15_19h59.32.025,continuous_performance_test,2024.2.4,MacIntel,119.047619,940987d6-eeed-46db-b3ac-3c40dd254c09,5,182.9215,184.8686,space,1,0.3315,,0,24,24,1,1,B,space,,,,,,,,,,
,,,,,R_4li9cD7fBSAM9RP,001,2025-09-15_19h59.32.025,continuous_performance_test,2024.2.4,MacIntel,119.047619,940987d6-eeed-46db-b3ac-3c40dd254c09,5,184.8708,186.7187,space,1,0.4537,,0,25,25,16,1,Q,space,,,,,,,,,,
,,,,,R_4li9cD7fBSAM9RP,001,2025-09-15_19h59.32.025,continuous_performance_test,2024.2.4,MacIntel,119.047619,940987d6-eeed-46db-b3ac-3c40dd254c09,5,186.7199,188.5682,space,1,0.3109,,0,26,26,22,1,W,space,,,,,,,,,,
,,,,,R_4li9cD7fBSAM9RP,001,2025-09-15_19h59.32.025,continuous_performance_test,2024.2.4,MacIntel,119.047619,940987d6-eeed-46db-b3ac-3c40dd254c09,5,188.5693,190.2684,space,1,0.3976,,0,27,27,13,1,N,space,,,,,,,,,,
,,,,,R_4li9cD7fBSAM9RP,001,2025-09-15_19h59.32.025,continuous_performance_test,2024.2.4,MacIntel,119.047619,940987d6-eeed-46db-b3ac-3c40dd254c09,5,190.2695,192.1689,,1,,,0,28,28,28,1,X,,,,,,,,,,,
,,,,,R_4li9cD7fBSAM9RP,001,2025-09-15_19h59.32.025,continuous_performance_test,2024.2.4,MacIntel,119.047619,940987d6-eeed-46db-b3ac-3c40dd254c09,5,192.1703,194.0678,,1,,,0,29,29,26,1,X,,,,,,,,,,,
,,,,,R_4li9cD7fBSAM9RP,001,2025-09-15_19h59.32.025,continuous_performance_test,2024.2.4,MacIntel,119.047619,940987d6-eeed-46db-b3ac-3c40dd254c09,5,208.3705,209.9146,space,1,0.5107,,0,0,0,8,1,I,space,194.0687,208.3649,space,14.2842,,,,,,
,,,,,R_4li9cD7fBSAM9RP,001,2025-09-15_19h59.32.025,continuous_performance_test,2024.2.4,MacIntel,119.047619,940987d6-eeed-46db-b3ac-3c40dd254c09,5,209.9157,211.7657,space,0,0.3138,,0,1,1,29,1,X,,,,,,,,,,,
,,,,,R_4li9cD7fBSAM9RP,001,2025-09-15_19h59.32.025,continuous_performance_test,2024.2.4,MacIntel,119.047619,940987d6-eeed-46db-b3ac-3c40dd254c09,5,211.7683,213.5647,space,1,0.3159,,0,2,2,5,1,F,space,,,,,,,,,,
,,,,,R_4li9cD7fBSAM9RP,001,2025-09-15_19h59.32.025,continuous_performance_test,2024.2.4,MacIntel,119.047619,940987d6-eeed-46db-b3ac-3c40dd254c09,5,213.5661,215.116,space,1,0.3684,,0,3,3,22,1,W,space,,,,,,,,,,
,,,,,R_4li9cD7fBSAM9RP,001,2025-09-15_19h59.32.025,continuous_performance_test,2024.2.4,MacIntel,119.047619,940987d6-eeed-46db-b3ac-3c40dd254c09,5,215.118,216.9651,space,1,0.3456,,0,4,4,6,1,G,space,,,,,,,,,,
,,,,,R_4li9cD7fBSAM9RP,001,2025-09-15_19h59.32.025,continuous_performance_test,2024.2.4,MacIntel,119.047619,940987d6-eeed-46db-b3ac-3c40dd254c09,5,216.9671,218.6151,space,1,0.3349,,0,5,5,1,1,B,space,,,,,,,,,,
,,,,,R_4li9cD7fBSAM9RP,001,2025-09-15_19h59.32.025,continuous_performance_test,2024.2.4,MacIntel,119.047619,940987d6-eeed-46db-b3ac-3c40dd254c09,5,218.617,220.6146,space,0,0.351,,0,6,6,25,1,X,,,,,,,,,,,
,,,,,R_4li9cD7fBSAM9RP,001,2025-09-15_19h59.32.025,continuous_performance_test,2024.2.4,MacIntel,119.047619,940987d6-eeed-46db-b3ac-3c40dd254c09,5,220.6154,222.3151,space,0,0.2946,,0,7,7,26,1,X,,,,,,,,,,,
,,,,,R_4li9cD7fBSAM9RP,001,2025-09-15_19h59.32.025,continuous_performance_test,2024.2.4,MacIntel,119.047619,940987d6-eeed-46db-b3ac-3c40dd254c09,5,222.3172,224.0149,space,1,0.3769,,0,8,8,21,1,V,space,,,,,,,,,,
,,,,,R_4li9cD7fBSAM9RP,001,2025-09-15_19h59.32.025,continuous_performance_test,2024.2.4,MacIntel,119.047619,940987d6-eeed-46db-b3ac-3c40dd254c09,5,224.0171,225.9645,space,1,0.441,,0,9,9,19,1,T,space,,,,,,,,,,
,,,,,R_4li9cD7fBSAM9RP,001,2025-09-15_19h59.32.025,continuous_performance_test,2024.2.4,MacIntel,119.047619,940987d6-eeed-46db-b3ac-3c40dd254c09,5,225.9658,227.5144,space,1,0.5232,,0,10,10,10,1,K,space,,,,,,,,,,
,,,,,R_4li9cD7fBSAM9RP,001,2025-09-15_19h59.32.025,continuous_performance_test,2024.2.4,MacIntel,119.047619,940987d6-eeed-46db-b3ac-3c40dd254c09,5,227.5158,229.1146,space,0,0.3626,,0,11,11,27,1,X,,,,,,,,,,,
,,,,,R_4li9cD7fBSAM9RP,001,2025-09-15_19h59.32.025,continuous_performance_test,2024.2.4,MacIntel,119.047619,940987d6-eeed-46db-b3ac-3c40dd254c09,5,229.1156,230.7144,space,1,0.439,,0,12,12,17,1,R,space,,,,,,,,,,
,,,,,R_4li9cD7fBSAM9RP,001,2025-09-15_19h59.32.025,continuous_performance_test,2024.2.4,MacIntel,119.047619,940987d6-eeed-46db-b3ac-3c40dd254c09,5,230.7151,232.3153,space,1,0.5871,,0,13,13,13,1,N,space,,,,,,,,,,
,,,,,R_4li9cD7fBSAM9RP,001,2025-09-15_19h59.32.025,continuous_performance_test,2024.2.4,MacIntel,119.047619,940987d6-eeed-46db-b3ac-3c40dd254c09,5,232.3173,234.1643,space,1,0.3956,,0,14,14,3,1,D,space,,,,,,,,,,
,,,,,R_4li9cD7fBSAM9RP,001,2025-09-15_19h59.32.025,continuous_performance_test,2024.2.4,MacIntel,119.047619,940987d6-eeed-46db-b3ac-3c40dd254c09,5,234.1664,236.165,space,1,0.3272,,0,15,15,18,1,S,space,,,,,,,,,,
,,,,,R_4li9cD7fBSAM9RP,001,2025-09-15_19h59.32.025,continuous_performance_test,2024.2.4,MacIntel,119.047619,940987d6-eeed-46db-b3ac-3c40dd254c09,5,236.1671,237.8612,space,1,0.5473,,0,16,16,23,1,Y,space,,,,,,,,,,
,,,,,R_4li9cD7fBSAM9RP,001,2025-09-15_19h59.32.025,continuous_performance_test,2024.2.4,MacIntel,119.047619,940987d6-eeed-46db-b3ac-3c40dd254c09,5,237.8634,239.7105,space,1,0.361,,0,17,17,9,1,J,space,,,,,,,,,,
,,,,,R_4li9cD7fBSAM9RP,001,2025-09-15_19h59.32.025,continuous_performance_test,2024.2.4,MacIntel,119.047619,940987d6-eeed-46db-b3ac-3c40dd254c09,5,239.7122,241.2608,space,1,0.4773,,0,18,18,4,1,E,space,,,,,,,,,,
,,,,,R_4li9cD7fBSAM9RP,001,2025-09-15_19h59.32.025,continuous_performance_test,2024.2.4,MacIntel,119.047619,940987d6-eeed-46db-b3ac-3c40dd254c09,5,241.2619,243.1109,space,1,0.3695,,0,19,19,15,1,P,space,,,,,,,,,,
,,,,,R_4li9cD7fBSAM9RP,001,2025-09-15_19h59.32.025,continuous_performance_test,2024.2.4,MacIntel,119.047619,940987d6-eeed-46db-b3ac-3c40dd254c09,5,243.1125,244.7612,space,1,0.3896,,0,20,20,11,1,L,space,,,,,,,,,,
,,,,,R_4li9cD7fBSAM9RP,001,2025-09-15_19h59.32.025,continuous_performance_test,2024.2.4,MacIntel,119.047619,940987d6-eeed-46db-b3ac-3c40dd254c09,5,244.7632,246.3108,space,1,0.4663,,0,21,21,0,1,A,space,,,,,,,,,,
,,,,,R_4li9cD7fBSAM9RP,001,2025-09-15_19h59.32.025,continuous_performance_test,2024.2.4,MacIntel,119.047619,940987d6-eeed-46db-b3ac-3c40dd254c09,5,246.3128,248.1109,space,1,0.3665,,0,22,22,2,1,C,space,,,,,,,,,,
,,,,,R_4li9cD7fBSAM9RP,001,2025-09-15_19h59.32.025,continuous_performance_test,2024.2.4,MacIntel,119.047619,940987d6-eeed-46db-b3ac-3c40dd254c09,5,248.1132,250.1109,,1,,,0,23,23,28,1,X,,,,,,,,,,,
,,,,,R_4li9cD7fBSAM9RP,001,2025-09-15_19h59.32.025,continuous_performance_test,2024.2.4,MacIntel,119.047619,940987d6-eeed-46db-b3ac-3c40dd254c09,5,250.114,251.761,space,1,0.3382,,0,24,24,7,1,H,space,,,,,,,,,,
,,,,,R_4li9cD7fBSAM9RP,001,2025-09-15_19h59.32.025,continuous_performance_test,2024.2.4,MacIntel,119.047619,940987d6-eeed-46db-b3ac-3c40dd254c09,5,251.7635,253.3114,space,1,0.3525,,0,25,25,14,1,O,space,,,,,,,,,,
,,,,,R_4li9cD7fBSAM9RP,001,2025-09-15_19h59.32.025,continuous_performance_test,2024.2.4,MacIntel,119.047619,940987d6-eeed-46db-b3ac-3c40dd254c09,5,253.314,255.211,space,1,0.3699,,0,26,26,20,1,U,space,,,,,,,,,,
,,,,,R_4li9cD7fBSAM9RP,001,2025-09-15_19h59.32.025,continuous_performance_test,2024.2.4,MacIntel,119.047619,940987d6-eeed-46db-b3ac-3c40dd254c09,5,255.2126,256.8612,space,1,0.495,,0,27,27,16,1,Q,space,,,,,,,,,,
,,,,,R_4li9cD7fBSAM9RP,001,2025-09-15_19h59.32.025,continuous_performance_test,2024.2.4,MacIntel,119.047619,940987d6-eeed-46db-b3ac-3c40dd254c09,5,256.8637,258.511,space,1,0.5444,,0,28,28,24,1,Z,space,,,,,,,,,,
,,,,,R_4li9cD7fBSAM9RP,001,2025-09-15_19h59.32.025,continuous_performance_test,2024.2.4,MacIntel,119.047619,940987d6-eeed-46db-b3ac-3c40dd254c09,5,258.5128,260.461,,0,,,0,29,29,12,1,M,space,,,,,,,,,,
,,,,,R_4li9cD7fBSAM9RP,001,2025-09-15_19h59.32.025,continuous_performance_test,2024.2.4,MacIntel,119.047619,940987d6-eeed-46db-b3ac-3c40dd254c09,5,260.6558,262.552,,1,,,0,0,0,29,1,X,,260.4623,260.6521,space,0.179,,,,,,
,,,,,R_4li9cD7fBSAM9RP,001,2025-09-15_19h59.32.025,continuous_performance_test,2024.2.4,MacIntel,119.047619,940987d6-eeed-46db-b3ac-3c40dd254c09,5,262.553,264.1525,space,1,0.35,,0,1,1,11,1,L,space,,,,,,,,,,
,,,,,R_4li9cD7fBSAM9RP,001,2025-09-15_19h59.32.025,continuous_performance_test,2024.2.4,MacIntel,119.047619,940987d6-eeed-46db-b3ac-3c40dd254c09,5,264.1541,266.0526,space,1,0.3957,,0,2,2,3,1,D,space,,,,,,,,,,
,,,,,R_4li9cD7fBSAM9RP,001,2025-09-15_19h59.32.025,continuous_performance_test,2024.2.4,MacIntel,119.047619,940987d6-eeed-46db-b3ac-3c40dd254c09,5,266.0547,267.8522,space,1,0.3643,,0,3,3,12,1,M,space,,,,,,,,,,
,,,,,R_4li9cD7fBSAM9RP,001,2025-09-15_19h59.32.025,continuous_performance_test,2024.2.4,MacIntel,119.047619,940987d6-eeed-46db-b3ac-3c40dd254c09,5,267.8539,269.4017,space,1,0.3828,,0,4,4,8,1,I,space,,,,,,,,,,
,,,,,R_4li9cD7fBSAM9RP,001,2025-09-15_19h59.32.025,continuous_performance_test,2024.2.4,MacIntel,119.047619,940987d6-eeed-46db-b3ac-3c40dd254c09,5,269.4033,271.302,space,1,0.9106,,0,5,5,24,1,Z,space,,,,,,,,,,
,,,,,R_4li9cD7fBSAM9RP,001,2025-09-15_19h59.32.025,continuous_performance_test,2024.2.4,MacIntel,119.047619,940987d6-eeed-46db-b3ac-3c40dd254c09,5,271.3031,272.9023,space,1,0.3653,,0,6,6,2,1,C,space,,,,,,,,,,
,,,,,R_4li9cD7fBSAM9RP,001,2025-09-15_19h59.32.025,continuous_performance_test,2024.2.4,MacIntel,119.047619,940987d6-eeed-46db-b3ac-3c40dd254c09,5,272.9043,274.6516,space,1,0.3157,,0,7,7,13,1,N,space,,,,,,,,,,
,,,,,R_4li9cD7fBSAM9RP,001,2025-09-15_19h59.32.025,continuous_performance_test,2024.2.4,MacIntel,119.047619,940987d6-eeed-46db-b3ac-3c40dd254c09,5,274.6541,276.453,space,0,0.2952,,0,8,8,27,1,X,,,,,,,,,,,
,,,,,R_4li9cD7fBSAM9RP,001,2025-09-15_19h59.32.025,continuous_performance_test,2024.2.4,MacIntel,119.047619,940987d6-eeed-46db-b3ac-3c40dd254c09,5,276.4555,278.3522,space,1,0.3305,,0,9,9,1,1,B,space,,,,,,,,,,
,,,,,R_4li9cD7fBSAM9RP,001,2025-09-15_19h59.32.025,continuous_performance_test,2024.2.4,MacIntel,119.047619,940987d6-eeed-46db-b3ac-3c40dd254c09,5,278.354,279.952,space,1,0.4482,,0,10,10,10,1,K,space,,,,,,,,,,
,,,,,R_4li9cD7fBSAM9RP,001,2025-09-15_19h59.32.025,continuous_performance_test,2024.2.4,MacIntel,119.047619,940987d6-eeed-46db-b3ac-3c40dd254c09,5,279.9533,281.952,space,1,0.3958,,0,11,11,23,1,Y,space,,,,,,,,,,
,,,,,R_4li9cD7fBSAM9RP,001,2025-09-15_19h59.32.025,continuous_performance_test,2024.2.4,MacIntel,119.047619,940987d6-eeed-46db-b3ac-3c40dd254c09,5,281.9533,283.8017,space,1,0.3926,,0,12,12,19,1,T,space,,,,,,,,,,
,,,,,R_4li9cD7fBSAM9RP,001,2025-09-15_19h59.32.025,continuous_performance_test,2024.2.4,MacIntel,119.047619,940987d6-eeed-46db-b3ac-3c40dd254c09,5,283.8032,285.7028,,1,,,0,13,13,28,1,X,,,,,,,,,,,
,,,,,R_4li9cD7fBSAM9RP,001,2025-09-15_19h59.32.025,continuous_performance_test,2024.2.4,MacIntel,119.047619,940987d6-eeed-46db-b3ac-3c40dd254c09,5,285.7046,287.2529,,1,,,0,14,14,25,1,X,,,,,,,,,,,
,,,,,R_4li9cD7fBSAM9RP,001,2025-09-15_19h59.32.025,continuous_performance_test,2024.2.4,MacIntel,119.047619,940987d6-eeed-46db-b3ac-3c40dd254c09,5,287.255,289.1526,space,1,0.411,,0,15,15,5,1,F,space,,,,,,,,,,
,,,,,R_4li9cD7fBSAM9RP,001,2025-09-15_19h59.32.025,continuous_performance_test,2024.2.4,MacIntel,119.047619,940987d6-eeed-46db-b3ac-3c40dd254c09,5,289.1547,291.1025,space,1,0.3609,,0,16,16,0,1,A,space,,,,,,,,,,
,,,,,R_4li9cD7fBSAM9RP,001,2025-09-15_19h59.32.025,continuous_performance_test,2024.2.4,MacIntel,119.047619,940987d6-eeed-46db-b3ac-3c40dd254c09,5,291.1044,292.6529,space,1,0.3734,,0,17,17,6,1,G,space,,,,,,,,,,
,,,,,R_4li9cD7fBSAM9RP,001,2025-09-15_19h59.32.025,continuous_performance_test,2024.2.4,MacIntel,119.047619,940987d6-eeed-46db-b3ac-3c40dd254c09,5,292.6551,294.403,space,1,0.387,,0,18,18,16,1,Q,space,,,,,,,,,,
,,,,,R_4li9cD7fBSAM9RP,001,2025-09-15_19h59.32.025,continuous_performance_test,2024.2.4,MacIntel,119.047619,940987d6-eeed-46db-b3ac-3c40dd254c09,5,294.4051,296.3021,space,1,0.6021,,0,19,19,14,1,O,space,,,,,,,,,,
,,,,,R_4li9cD7fBSAM9RP,001,2025-09-15_19h59.32.025,continuous_performance_test,2024.2.4,MacIntel,119.047619,940987d6-eeed-46db-b3ac-3c40dd254c09,5,296.3029,297.8526,space,1,0.3916,,0,20,20,9,1,J,space,,,,,,,,,,
,,,,,R_4li9cD7fBSAM9RP,001,2025-09-15_19h59.32.025,continuous_performance_test,2024.2.4,MacIntel,119.047619,940987d6-eeed-46db-b3ac-3c40dd254c09,5,297.855,299.7027,space,1,0.4331,,0,21,21,20,1,U,space,,,,,,,,,,
,,,,,R_4li9cD7fBSAM9RP,001,2025-09-15_19h59.32.025,continuous_performance_test,2024.2.4,MacIntel,119.047619,940987d6-eeed-46db-b3ac-3c40dd254c09,5,299.7048,301.553,space,1,0.3197,,0,22,22,17,1,R,space,,,,,,,,,,
,,,,,R_4li9cD7fBSAM9RP,001,2025-09-15_19h59.32.025,continuous_performance_test,2024.2.4,MacIntel,119.047619,940987d6-eeed-46db-b3ac-3c40dd254c09,5,301.555,303.4025,space,1,0.323,,0,23,23,21,1,V,space,,,,,,,,,,
,,,,,R_4li9cD7fBSAM9RP,001,2025-09-15_19h59.32.025,continuous_performance_test,2024.2.4,MacIntel,119.047619,940987d6-eeed-46db-b3ac-3c40dd254c09,5,303.4049,305.3021,space,1,0.3738,,0,24,24,18,1,S,space,,,,,,,,,,
,,,,,R_4li9cD7fBSAM9RP,001,2025-09-15_19h59.32.025,continuous_performance_test,2024.2.4,MacIntel,119.047619,940987d6-eeed-46db-b3ac-3c40dd254c09,5,305.3032,307.0037,space,1,0.3481,,0,25,25,7,1,H,space,,,,,,,,,,
,,,,,R_4li9cD7fBSAM9RP,001,2025-09-15_19h59.32.025,continuous_performance_test,2024.2.4,MacIntel,119.047619,940987d6-eeed-46db-b3ac-3c40dd254c09,5,307.0048,309.0021,space,1,0.3639,,0,26,26,15,1,P,space,,,,,,,,,,
,,,,,R_4li9cD7fBSAM9RP,001,2025-09-15_19h59.32.025,continuous_performance_test,2024.2.4,MacIntel,119.047619,940987d6-eeed-46db-b3ac-3c40dd254c09,5,309.0031,310.8527,space,1,0.3454,,0,27,27,4,1,E,space,,,,,,,,,,
,,,,,R_4li9cD7fBSAM9RP,001,2025-09-15_19h59.32.025,continuous_performance_test,2024.2.4,MacIntel,119.047619,940987d6-eeed-46db-b3ac-3c40dd254c09,5,310.8544,312.5518,space,1,0.3676,,0,28,28,22,1,W,space,,,,,,,,,,
,,,,,R_4li9cD7fBSAM9RP,001,2025-09-15_19h59.32.025,continuous_performance_test,2024.2.4,MacIntel,119.047619,940987d6-eeed-46db-b3ac-3c40dd254c09,5,312.5542,314.4025,,1,,,0,29,29,26,1,X,,,,,,,,,,,
,,,,,R_4li9cD7fBSAM9RP,001,2025-09-15_19h59.32.025,continuous_performance_test,2024.2.4,MacIntel,119.047619,940987d6-eeed-46db-b3ac-3c40dd254c09,5,323.5748,325.1186,space,1,0.4222,,0,0,0,0,1,A,space,314.4043,323.5704,space,9.1559,,,,,,
,,,,,R_4li9cD7fBSAM9RP,001,2025-09-15_19h59.32.025,continuous_performance_test,2024.2.4,MacIntel,119.047619,940987d6-eeed-46db-b3ac-3c40dd254c09,5,325.1197,326.7197,,1,,,0,1,1,26,1,X,,,,,,,,,,,
,,,,,R_4li9cD7fBSAM9RP,001,2025-09-15_19h59.32.025,continuous_performance_test,2024.2.4,MacIntel,119.047619,940987d6-eeed-46db-b3ac-3c40dd254c09,5,326.7217,328.4198,space,1,0.3288,,0,2,2,14,1,O,space,,,,,,,,,,
,,,,,R_4li9cD7fBSAM9RP,001,2025-09-15_19h59.32.025,continuous_performance_test,2024.2.4,MacIntel,119.047619,940987d6-eeed-46db-b3ac-3c40dd254c09,5,328.4226,329.9646,space,1,0.3736,,0,3,3,9,1,J,space,,,,,,,,,,
,,,,,R_4li9cD7fBSAM9RP,001,2025-09-15_19h59.32.025,continuous_performance_test,2024.2.4,MacIntel,119.047619,940987d6-eeed-46db-b3ac-3c40dd254c09,5,329.9656,331.5654,,1,,,0,4,4,29,1,X,,,,,,,,,,,
,,,,,R_4li9cD7fBSAM9RP,001,2025-09-15_19h59.32.025,continuous_performance_test,2024.2.4,MacIntel,119.047619,940987d6-eeed-46db-b3ac-3c40dd254c09,5,331.5674,333.4137,space,1,0.3,,0,5,5,4,1,E,space,,,,,,,,,,
,,,,,R_4li9cD7fBSAM9RP,001,2025-09-15_19h59.32.025,continuous_performance_test,2024.2.4,MacIntel,119.047619,940987d6-eeed-46db-b3ac-3c40dd254c09,5,333.4146,335.2152,space,1,0.3849,,0,6,6,2,1,C,space,,,,,,,,,,
,,,,,R_4li9cD7fBSAM9RP,001,2025-09-15_19h59.32.025,continuous_performance_test,2024.2.4,MacIntel,119.047619,940987d6-eeed-46db-b3ac-3c40dd254c09,5,335.2174,336.9143,space,1,0.3704,,0,7,7,13,1,N,space,,,,,,,,,,
,,,,,R_4li9cD7fBSAM9RP,001,2025-09-15_19h59.32.025,continuous_performance_test,2024.2.4,MacIntel,119.047619,940987d6-eeed-46db-b3ac-3c40dd254c09,5,336.916,338.7638,space,1,0.3793,,0,8,8,18,1,S,space,,,,,,,,,,
,,,,,R_4li9cD7fBSAM9RP,001,2025-09-15_19h59.32.025,continuous_performance_test,2024.2.4,MacIntel,119.047619,940987d6-eeed-46db-b3ac-3c40dd254c09,5,338.7649,340.565,space,1,0.3616,,0,9,9,20,1,U,space,,,,,,,,,,
,,,,,R_4li9cD7fBSAM9RP,001,2025-09-15_19h59.32.025,continuous_performance_test,2024.2.4,MacIntel,119.047619,940987d6-eeed-46db-b3ac-3c40dd254c09,5,340.5671,342.1646,space,1,0.3623,,0,10,10,8,1,I,space,,,,,,,,,,
,,,,,R_4li9cD7fBSAM9RP,001,2025-09-15_19h59.32.025,continuous_performance_test,2024.2.4,MacIntel,119.047619,940987d6-eeed-46db-b3ac-3c40dd254c09,5,342.1665,344.0647,space,1,0.3243,,0,11,11,23,1,Y,space,,,,,,,,,,
,,,,,R_4li9cD7fBSAM9RP,001,2025-09-15_19h59.32.025,continuous_performance_test,2024.2.4,MacIntel,119.047619,940987d6-eeed-46db-b3ac-3c40dd254c09,5,344.0657,345.9146,space,1,0.2781,,0,12,12,10,1,K,space,,,,,,,,,,
,,,,,R_4li9cD7fBSAM9RP,001,2025-09-15_19h59.32.025,continuous_performance_test,2024.2.4,MacIntel,119.047619,940987d6-eeed-46db-b3ac-3c40dd254c09,5,345.9153,347.565,space,1,0.4803,,0,13,13,16,1,Q,space,,,,,,,,,,
,,,,,R_4li9cD7fBSAM9RP,001,2025-09-15_19h59.32.025,continuous_performance_test,2024.2.4,MacIntel,119.047619,940987d6-eeed-46db-b3ac-3c40dd254c09,5,347.5667,349.3154,space,1,0.3108,,0,14,14,19,1,T,space,,,,,,,,,,
,,,,,R_4li9cD7fBSAM9RP,001,2025-09-15_19h59.32.025,continuous_performance_test,2024.2.4,MacIntel,119.047619,940987d6-eeed-46db-b3ac-3c40dd254c09,5,349.3176,351.3153,space,1,0.3063,,0,15,15,3,1,D,space,,,,,,,,,,
,,,,,R_4li9cD7fBSAM9RP,001,2025-09-15_19h59.32.025,continuous_performance_test,2024.2.4,MacIntel,119.047619,940987d6-eeed-46db-b3ac-3c40dd254c09,5,351.3173,353.3139,space,1,0.2919,,0,16,16,22,1,W,space,,,,,,,,,,
,,,,,R_4li9cD7fBSAM9RP,001,2025-09-15_19h59.32.025,continuous_performance_test,2024.2.4,MacIntel,119.047619,940987d6-eeed-46db-b3ac-3c40dd254c09,5,353.3152,355.0654,space,1,0.3744,,0,17,17,6,1,G,space,,,,,,,,,,
,,,,,R_4li9cD7fBSAM9RP,001,2025-09-15_19h59.32.025,continuous_performance_test,2024.2.4,MacIntel,119.047619,940987d6-eeed-46db-b3ac-3c40dd254c09,5,355.0676,356.7152,space,1,0.3779,,0,18,18,17,1,R,space,,,,,,,,,,
,,,,,R_4li9cD7fBSAM9RP,001,2025-09-15_19h59.32.025,continuous_performance_test,2024.2.4,MacIntel,119.047619,940987d6-eeed-46db-b3ac-3c40dd254c09,5,356.7174,358.7147,space,1,0.388,,0,19,19,1,1,B,space,,,,,,,,,,
,,,,,R_4li9cD7fBSAM9RP,001,2025-09-15_19h59.32.025,continuous_performance_test,2024.2.4,MacIntel,119.047619,940987d6-eeed-46db-b3ac-3c40dd254c09,5,358.7158,360.6147,,1,,,0,20,20,25,1,X,,,,,,,,,,,
,,,,,R_4li9cD7fBSAM9RP,001,2025-09-15_19h59.32.025,continuous_performance_test,2024.2.4,MacIntel,119.047619,940987d6-eeed-46db-b3ac-3c40dd254c09,5,360.6156,362.3151,space,1,0.2955,,0,21,21,7,1,H,space,,,,,,,,,,
,,,,,R_4li9cD7fBSAM9RP,001,2025-09-15_19h59.32.025,continuous_performance_test,2024.2.4,MacIntel,119.047619,940987d6-eeed-46db-b3ac-3c40dd254c09,5,362.3168,364.1642,space,1,0.3188,,0,22,22,15,1,P,space,,,,,,,,,,
,,,,,R_4li9cD7fBSAM9RP,001,2025-09-15_19h59.32.025,continuous_performance_test,2024.2.4,MacIntel,119.047619,940987d6-eeed-46db-b3ac-3c40dd254c09,5,364.1657,366.0142,space,1,0.32,,0,23,23,24,1,Z,space,,,,,,,,,,
,,,,,R_4li9cD7fBSAM9RP,001,2025-09-15_19h59.32.025,continuous_performance_test,2024.2.4,MacIntel,119.047619,940987d6-eeed-46db-b3ac-3c40dd254c09,5,366.0151,367.5643,space,1,0.4319,,0,24,24,12,1,M,space,,,,,,,,,,
,,,,,R_4li9cD7fBSAM9RP,001,2025-09-15_19h59.32.025,continuous_performance_test,2024.2.4,MacIntel,119.047619,940987d6-eeed-46db-b3ac-3c40dd254c09,5,367.5664,369.5148,space,1,0.3686,,0,25,25,5,1,F,space,,,,,,,,,,
,,,,,R_4li9cD7fBSAM9RP,001,2025-09-15_19h59.32.025,continuous_performance_test,2024.2.4,MacIntel,119.047619,940987d6-eeed-46db-b3ac-3c40dd254c09,5,369.5159,371.2153,space,0,0.3031,,0,26,26,27,1,X,,,,,,,,,,,
,,,,,R_4li9cD7fBSAM9RP,001,2025-09-15_19h59.32.025,continuous_performance_test,2024.2.4,MacIntel,119.047619,940987d6-eeed-46db-b3ac-3c40dd254c09,5,371.2167,372.8151,,1,,,0,27,27,28,1,X,,,,,,,,,,,
,,,,,R_4li9cD7fBSAM9RP,001,2025-09-15_19h59.32.025,continuous_performance_test,2024.2.4,MacIntel,119.047619,940987d6-eeed-46db-b3ac-3c40dd254c09,5,372.8168,374.4153,space,1,0.4181,,0,28,28,21,1,V,space,,,,,,,,,,
,,,,,R_4li9cD7fBSAM9RP,001,2025-09-15_19h59.32.025,continuous_performance_test,2024.2.4,MacIntel,119.047619,940987d6-eeed-46db-b3ac-3c40dd254c09,5,374.4169,376.1646,space,1,0.4092,,0,29,29,11,1,L,space,,,,,,,,,,
,,,,,R_4li9cD7fBSAM9RP,001,2025-09-15_19h59.32.025,continuous_performance_test,2024.2.4,MacIntel,119.047619,940987d6-eeed-46db-b3ac-3c40dd254c09,5,391.1712,392.8653,space,1,0.505,,0,0,0,13,1,N,space,376.1654,391.1648,,,,,,,,
,,,,,R_4li9cD7fBSAM9RP,001,2025-09-15_19h59.32.025,continuous_performance_test,2024.2.4,MacIntel,119.047619,940987d6-eeed-46db-b3ac-3c40dd254c09,5,392.8669,394.7153,space,1,0.3757,,0,1,1,21,1,V,space,,,,,,,,,,
,,,,,R_4li9cD7fBSAM9RP,001,2025-09-15_19h59.32.025,continuous_performance_test,2024.2.4,MacIntel,119.047619,940987d6-eeed-46db-b3ac-3c40dd254c09,5,394.7174,396.3647,space,1,0.3617,,0,2,2,19,1,T,space,,,,,,,,,,
,,,,,R_4li9cD7fBSAM9RP,001,2025-09-15_19h59.32.025,continuous_performance_test,2024.2.4,MacIntel,119.047619,940987d6-eeed-46db-b3ac-3c40dd254c09,5,396.3657,398.3657,space,1,0.3406,,0,3,3,5,1,F,space,,,,,,,,,,
,,,,,R_4li9cD7fBSAM9RP,001,2025-09-15_19h59.32.025,continuous_performance_test,2024.2.4,MacIntel,119.047619,940987d6-eeed-46db-b3ac-3c40dd254c09,5,398.3673,400.1654,space,1,0.3758,,0,4,4,6,1,G,space,,,,,,,,,,
,,,,,R_4li9cD7fBSAM9RP,001,2025-09-15_19h59.32.025,continuous_performance_test,2024.2.4,MacIntel,119.047619,940987d6-eeed-46db-b3ac-3c40dd254c09,5,400.1669,402.1153,space,1,0.3699,,0,5,5,9,1,J,space,,,,,,,,,,
,,,,,R_4li9cD7fBSAM9RP,001,2025-09-15_19h59.32.025,continuous_performance_test,2024.2.4,MacIntel,119.047619,940987d6-eeed-46db-b3ac-3c40dd254c09,5,402.1168,403.7161,,1,,,0,6,6,29,1,X,,,,,,,,,,,
,,,,,R_4li9cD7fBSAM9RP,001,2025-09-15_19h59.32.025,continuous_performance_test,2024.2.4,MacIntel,119.047619,940987d6-eeed-46db-b3ac-3c40dd254c09,5,403.718,405.6145,space,1,0.3281,,0,7,7,2,1,C,space,,,,,,,,,,
,,,,,R_4li9cD7fBSAM9RP,001,2025-09-15_19h59.32.025,continuous_performance_test,2024.2.4,MacIntel,119.047619,940987d6-eeed-46db-b3ac-3c40dd254c09,5,405.6161,407.5156,space,1,0.3533,,0,8,8,23,1,Y,space,,,,,,,,,,
,,,,,R_4li9cD7fBSAM9RP,001,2025-09-15_19h59.32.025,continuous_performance_test,2024.2.4,MacIntel,119.047619,940987d6-eeed-46db-b3ac-3c40dd254c09,5,407.5179,409.4153,,1,,,0,9,9,28,1,X,,,,,,,,,,,
,,,,,R_4li9cD7fBSAM9RP,001,2025-09-15_19h59.32.025,continuous_performance_test,2024.2.4,MacIntel,119.047619,940987d6-eeed-46db-b3ac-3c40dd254c09,5,409.4168,411.0654,space,1,0.3441,,0,10,10,0,1,A,space,,,,,,,,,,
,,,,,R_4li9cD7fBSAM9RP,001,2025-09-15_19h59.32.025,continuous_performance_test,2024.2.4,MacIntel,119.047619,940987d6-eeed-46db-b3ac-3c40dd254c09,5,411.0675,412.6147,space,1,0.5998,,0,11,11,10,1,K,space,,,,,,,,,,
,,,,,R_4li9cD7fBSAM9RP,001,2025-09-15_19h59.32.025,continuous_performance_test,2024.2.4,MacIntel,119.047619,940987d6-eeed-46db-b3ac-3c40dd254c09,5,412.6157,414.2146,space,1,0.3521,,0,12,12,7,1,H,space,,,,,,,,,,
,,,,,R_4li9cD7fBSAM9RP,001,2025-09-15_19h59.32.025,continuous_performance_test,2024.2.4,MacIntel,119.047619,940987d6-eeed-46db-b3ac-3c40dd254c09,5,414.2154,415.7647,space,1,0.4962,,0,13,13,22,1,W,space,,,,,,,,,,
,,,,,R_4li9cD7fBSAM9RP,001,2025-09-15_19h59.32.025,continuous_performance_test,2024.2.4,MacIntel,119.047619,940987d6-eeed-46db-b3ac-3c40dd254c09,5,415.7658,417.4139,space,1,0.5268,,0,14,14,12,1,M,space,,,,,,,,,,
,,,,,R_4li9cD7fBSAM9RP,001,2025-09-15_19h59.32.025,continuous_performance_test,2024.2.4,MacIntel,119.047619,940987d6-eeed-46db-b3ac-3c40dd254c09,5,417.4152,419.1649,,1,,,0,15,15,26,1,X,,,,,,,,,,,
,,,,,R_4li9cD7fBSAM9RP,001,2025-09-15_19h59.32.025,continuous_performance_test,2024.2.4,MacIntel,119.047619,940987d6-eeed-46db-b3ac-3c40dd254c09,5,419.1669,421.0646,space,1,0.3022,,0,16,16,4,1,E,space,,,,,,,,,,
,,,,,R_4li9cD7fBSAM9RP,001,2025-09-15_19h59.32.025,continuous_performance_test,2024.2.4,MacIntel,119.047619,940987d6-eeed-46db-b3ac-3c40dd254c09,5,421.0668,422.6647,space,1,0.4391,,0,17,17,20,1,U,space,,,,,,,,,,
,,,,,R_4li9cD7fBSAM9RP,001,2025-09-15_19h59.32.025,continuous_performance_test,2024.2.4,MacIntel,119.047619,940987d6-eeed-46db-b3ac-3c40dd254c09,5,422.6656,424.2156,space,1,0.5248,,0,18,18,18,1,S,space,,,,,,,,,,
,,,,,R_4li9cD7fBSAM9RP,001,2025-09-15_19h59.32.025,continuous_performance_test,2024.2.4,MacIntel,119.047619,940987d6-eeed-46db-b3ac-3c40dd254c09,5,424.2175,426.1151,space,1,0.4498,,0,19,19,11,1,L,space,,,,,,,,,,
,,,,,R_4li9cD7fBSAM9RP,001,2025-09-15_19h59.32.025,continuous_performance_test,2024.2.4,MacIntel,119.047619,940987d6-eeed-46db-b3ac-3c40dd254c09,5,426.1172,427.7151,,1,,,0,20,20,27,1,X,,,,,,,,,,,
,,,,,R_4li9cD7fBSAM9RP,001,2025-09-15_19h59.32.025,continuous_performance_test,2024.2.4,MacIntel,119.047619,940987d6-eeed-46db-b3ac-3c40dd254c09,5,427.7166,429.6651,space,1,0.2724,,0,21,21,8,1,I,space,,,,,,,,,,
,,,,,R_4li9cD7fBSAM9RP,001,2025-09-15_19h59.32.025,continuous_performance_test,2024.2.4,MacIntel,119.047619,940987d6-eeed-46db-b3ac-3c40dd254c09,5,429.6665,431.5653,space,1,0.37,,0,22,22,3,1,D,space,,,,,,,,,,
,,,,,R_4li9cD7fBSAM9RP,001,2025-09-15_19h59.32.025,continuous_performance_test,2024.2.4,MacIntel,119.047619,940987d6-eeed-46db-b3ac-3c40dd254c09,5,431.5672,433.3155,space,1,0.3523,,0,23,23,14,1,O,space,,,,,,,,,,
,,,,,R_4li9cD7fBSAM9RP,001,2025-09-15_19h59.32.025,continuous_performance_test,2024.2.4,MacIntel,119.047619,940987d6-eeed-46db-b3ac-3c40dd254c09,5,433.3177,435.1142,space,1,0.2918,,0,24,24,16,1,Q,space,,,,,,,,,,
,,,,,R_4li9cD7fBSAM9RP,001,2025-09-15_19h59.32.025,continuous_performance_test,2024.2.4,MacIntel,119.047619,940987d6-eeed-46db-b3ac-3c40dd254c09,5,435.1152,437.1148,space,0,0.2998,,0,25,25,25,1,X,,,,,,,,,,,
,,,,,R_4li9cD7fBSAM9RP,001,2025-09-15_19h59.32.025,continuous_performance_test,2024.2.4,MacIntel,119.047619,940987d6-eeed-46db-b3ac-3c40dd254c09,5,437.1165,439.1157,space,1,0.3636,,0,26,26,15,1,P,space,,,,,,,,,,
,,,,,R_4li9cD7fBSAM9RP,001,2025-09-15_19h59.32.025,continuous_performance_test,2024.2.4,MacIntel,119.047619,940987d6-eeed-46db-b3ac-3c40dd254c09,5,439.1179,440.6648,space,1,0.4099,,0,27,27,1,1,B,space,,,,,,,,,,
,,,,,R_4li9cD7fBSAM9RP,001,2025-09-15_19h59.32.025,continuous_performance_test,2024.2.4,MacIntel,119.047619,940987d6-eeed-46db-b3ac-3c40dd254c09,5,440.6656,442.2152,space,1,0.4311,,0,28,28,17,1,R,space,,,,,,,,,,
,,,,,R_4li9cD7fBSAM9RP,001,2025-09-15_19h59.32.025,continuous_performance_test,2024.2.4,MacIntel,119.047619,940987d6-eeed-46db-b3ac-3c40dd254c09,5,442.2166,444.2149,space,1,0.3136,,0,29,29,24,1,Z,space,,,,,,,,,,
,,,,,R_4li9cD7fBSAM9RP,001,2025-09-15_19h59.32.025,continuous_performance_test,2024.2.4,MacIntel,119.047619,940987d6-eeed-46db-b3ac-3c40dd254c09,5,450.6679,452.5695,space,1,0.3935,,0,0,0,5,1,F,space,444.2159,450.6609,space,6.4314,,,,,,
,,,,,R_4li9cD7fBSAM9RP,001,2025-09-15_19h59.32.025,continuous_performance_test,2024.2.4,MacIntel,119.047619,940987d6-eeed-46db-b3ac-3c40dd254c09,5,452.5714,454.5701,space,1,0.2922,,0,1,1,10,1,K,space,,,,,,,,,,
,,,,,R_4li9cD7fBSAM9RP,001,2025-09-15_19h59.32.025,continuous_performance_test,2024.2.4,MacIntel,119.047619,940987d6-eeed-46db-b3ac-3c40dd254c09,5,454.5718,456.5196,space,1,0.3281,,0,2,2,3,1,D,space,,,,,,,,,,
,,,,,R_4li9cD7fBSAM9RP,001,2025-09-15_19h59.32.025,continuous_performance_test,2024.2.4,MacIntel,119.047619,940987d6-eeed-46db-b3ac-3c40dd254c09,5,456.5217,458.4194,space,1,0.4136,,0,3,3,8,1,I,space,,,,,,,,,,
,,,,,R_4li9cD7fBSAM9RP,001,2025-09-15_19h59.32.025,continuous_performance_test,2024.2.4,MacIntel,119.047619,940987d6-eeed-46db-b3ac-3c40dd254c09,5,458.4211,460.1689,space,0,0.3509,,0,4,4,29,1,X,,,,,,,,,,,
,,,,,R_4li9cD7fBSAM9RP,001,2025-09-15_19h59.32.025,continuous_performance_test,2024.2.4,MacIntel,119.047619,940987d6-eeed-46db-b3ac-3c40dd254c09,5,460.1699,462.1696,space,1,0.3933,,0,5,5,11,1,L,space,,,,,,,,,,
,,,,,R_4li9cD7fBSAM9RP,001,2025-09-15_19h59.32.025,continuous_performance_test,2024.2.4,MacIntel,119.047619,940987d6-eeed-46db-b3ac-3c40dd254c09,5,462.1717,464.1689,,1,,,0,6,6,26,1,X,,,,,,,,,,,
,,,,,R_4li9cD7fBSAM9RP,001,2025-09-15_19h59.32.025,continuous_performance_test,2024.2.4,MacIntel,119.047619,940987d6-eeed-46db-b3ac-3c40dd254c09,5,464.1698,466.1687,space,1,0.3035,,0,7,7,6,1,G,space,,,,,,,,,,
,,,,,R_4li9cD7fBSAM9RP,001,2025-09-15_19h59.32.025,continuous_performance_test,2024.2.4,MacIntel,119.047619,940987d6-eeed-46db-b3ac-3c40dd254c09,5,466.1697,467.9193,space,1,0.511,,0,8,8,23,1,Y,space,,,,,,,,,,
,,,,,R_4li9cD7fBSAM9RP,001,2025-09-15_19h59.32.025,continuous_performance_test,2024.2.4,MacIntel,119.047619,940987d6-eeed-46db-b3ac-3c40dd254c09,5,467.9213,469.7687,space,0,0.3277,,0,9,9,25,1,X,,,,,,,,,,,
,,,,,R_4li9cD7fBSAM9RP,001,2025-09-15_19h59.32.025,continuous_performance_test,2024.2.4,MacIntel,119.047619,940987d6-eeed-46db-b3ac-3c40dd254c09,5,469.7693,471.4685,space,1,0.3497,,0,10,10,22,1,W,space,,,,,,,,,,
,,,,,R_4li9cD7fBSAM9RP,001,2025-09-15_19h59.32.025,continuous_performance_test,2024.2.4,MacIntel,119.047619,940987d6-eeed-46db-b3ac-3c40dd254c09,5,471.4695,473.2698,space,1,0.3997,,0,11,11,13,1,N,space,,,,,,,,,,
,,,,,R_4li9cD7fBSAM9RP,001,2025-09-15_19h59.32.025,continuous_performance_test,2024.2.4,MacIntel,119.047619,940987d6-eeed-46db-b3ac-3c40dd254c09,5,473.2712,474.9697,space,1,0.3921,,0,12,12,19,1,T,space,,,,,,,,,,
,,,,,R_4li9cD7fBSAM9RP,001,2025-09-15_19h59.32.025,continuous_performance_test,2024.2.4,MacIntel,119.047619,940987d6-eeed-46db-b3ac-3c40dd254c09,5,474.9709,476.6691,space,1,0.4032,,0,13,13,1,1,B,space,,,,,,,,,,
,,,,,R_4li9cD7fBSAM9RP,001,2025-09-15_19h59.32.025,continuous_performance_test,2024.2.4,MacIntel,119.047619,940987d6-eeed-46db-b3ac-3c40dd254c09,5,476.6702,478.6698,,1,,,0,14,14,27,1,X,,,,,,,,,,,
,,,,,R_4li9cD7fBSAM9RP,001,2025-09-15_19h59.32.025,continuous_performance_test,2024.2.4,MacIntel,119.047619,940987d6-eeed-46db-b3ac-3c40dd254c09,5,478.6718,480.669,,1,,,0,15,15,28,1,X,,,,,,,,,,,
,,,,,R_4li9cD7fBSAM9RP,001,2025-09-15_19h59.32.025,continuous_performance_test,2024.2.4,MacIntel,119.047619,940987d6-eeed-46db-b3ac-3c40dd254c09,5,480.6699,482.2689,space,1,0.3902,,0,16,16,14,1,O,space,,,,,,,,,,
,,,,,R_4li9cD7fBSAM9RP,001,2025-09-15_19h59.32.025,continuous_performance_test,2024.2.4,MacIntel,119.047619,940987d6-eeed-46db-b3ac-3c40dd254c09,5,482.2698,484.1189,space,1,0.3737,,0,17,17,0,1,A,space,,,,,,,,,,
,,,,,R_4li9cD7fBSAM9RP,001,2025-09-15_19h59.32.025,continuous_performance_test,2024.2.4,MacIntel,119.047619,940987d6-eeed-46db-b3ac-3c40dd254c09,5,484.1203,485.9196,space,1,0.3781,,0,18,18,9,1,J,space,,,,,,,,,,
,,,,,R_4li9cD7fBSAM9RP,001,2025-09-15_19h59.32.025,continuous_performance_test,2024.2.4,MacIntel,119.047619,940987d6-eeed-46db-b3ac-3c40dd254c09,5,485.9212,487.7193,space,1,0.4536,,0,19,19,18,1,S,space,,,,,,,,,,
,,,,,R_4li9cD7fBSAM9RP,001,2025-09-15_19h59.32.025,continuous_performance_test,2024.2.4,MacIntel,119.047619,940987d6-eeed-46db-b3ac-3c40dd254c09,5,487.722,489.4188,space,1,0.37,,0,20,20,4,1,E,space,,,,,,,,,,
,,,,,R_4li9cD7fBSAM9RP,001,2025-09-15_19h59.32.025,continuous_performance_test,2024.2.4,MacIntel,119.047619,940987d6-eeed-46db-b3ac-3c40dd254c09,5,489.4204,491.0188,space,1,0.3824,,0,21,21,17,1,R,space,,,,,,,,,,
,,,,,R_4li9cD7fBSAM9RP,001,2025-09-15_19h59.32.025,continuous_performance_test,2024.2.4,MacIntel,119.047619,940987d6-eeed-46db-b3ac-3c40dd254c09,5,491.0194,493.0193,space,1,0.3678,,0,22,22,15,1,P,space,,,,,,,,,,
,,,,,R_4li9cD7fBSAM9RP,001,2025-09-15_19h59.32.025,continuous_performance_test,2024.2.4,MacIntel,119.047619,940987d6-eeed-46db-b3ac-3c40dd254c09,5,493.0212,495.0194,space,1,0.5678,,0,23,23,16,1,Q,space,,,,,,,,,,
,,,,,R_4li9cD7fBSAM9RP,001,2025-09-15_19h59.32.025,continuous_performance_test,2024.2.4,MacIntel,119.047619,940987d6-eeed-46db-b3ac-3c40dd254c09,5,495.0214,496.5696,space,1,0.5018,,0,24,24,24,1,Z,space,,,,,,,,,,
,,,,,R_4li9cD7fBSAM9RP,001,2025-09-15_19h59.32.025,continuous_performance_test,2024.2.4,MacIntel,119.047619,940987d6-eeed-46db-b3ac-3c40dd254c09,5,496.5713,498.1695,space,1,0.4333,,0,25,25,21,1,V,space,,,,,,,,,,
,,,,,R_4li9cD7fBSAM9RP,001,2025-09-15_19h59.32.025,continuous_performance_test,2024.2.4,MacIntel,119.047619,940987d6-eeed-46db-b3ac-3c40dd254c09,5,498.171,499.9694,space,1,0.3771,,0,26,26,2,1,C,space,,,,,,,,,,
,,,,,R_4li9cD7fBSAM9RP,001,2025-09-15_19h59.32.025,continuous_performance_test,2024.2.4,MacIntel,119.047619,940987d6-eeed-46db-b3ac-3c40dd254c09,5,499.971,501.5189,space,1,0.3814,,0,27,27,7,1,H,space,,,,,,,,,,
,,,,,R_4li9cD7fBSAM9RP,001,2025-09-15_19h59.32.025,continuous_performance_test,2024.2.4,MacIntel,119.047619,940987d6-eeed-46db-b3ac-3c40dd254c09,5,501.5193,503.2188,space,1,0.408,,0,28,28,12,1,M,space,,,,,,,,,,
,,,,,R_4li9cD7fBSAM9RP,001,2025-09-15_19h59.32.025,continuous_performance_test,2024.2.4,MacIntel,119.047619,940987d6-eeed-46db-b3ac-3c40dd254c09,5,503.2191,505.2192,space,1,0.3575,,0,29,29,20,1,U,space,,,,,,,,,,
,,,,,R_4li9cD7fBSAM9RP,001,2025-09-15_19h59.32.025,continuous_performance_test,2024.2.4,MacIntel,119.047619,940987d6-eeed-46db-b3ac-3c40dd254c09,5,510.2905,511.8365,space,1,0.4705,,0,0,0,4,1,E,space,505.2202,510.2859,space,5.0521,,,,,,
,,,,,R_4li9cD7fBSAM9RP,001,2025-09-15_19h59.32.025,continuous_performance_test,2024.2.4,MacIntel,119.047619,940987d6-eeed-46db-b3ac-3c40dd254c09,5,511.8385,513.3857,space,1,0.3771,,0,1,1,23,1,Y,space,,,,,,,,,,
,,,,,R_4li9cD7fBSAM9RP,001,2025-09-15_19h59.32.025,continuous_performance_test,2024.2.4,MacIntel,119.047619,940987d6-eeed-46db-b3ac-3c40dd254c09,5,513.3867,515.0357,,1,,,0,2,2,25,1,X,,,,,,,,,,,
,,,,,R_4li9cD7fBSAM9RP,001,2025-09-15_19h59.32.025,continuous_performance_test,2024.2.4,MacIntel,119.047619,940987d6-eeed-46db-b3ac-3c40dd254c09,5,515.0368,516.5864,space,1,0.4143,,0,3,3,8,1,I,space,,,,,,,,,,
,,,,,R_4li9cD7fBSAM9RP,001,2025-09-15_19h59.32.025,continuous_performance_test,2024.2.4,MacIntel,119.047619,940987d6-eeed-46db-b3ac-3c40dd254c09,5,516.5888,518.2365,space,1,0.3807,,0,4,4,19,1,T,space,,,,,,,,,,
,,,,,R_4li9cD7fBSAM9RP,001,2025-09-15_19h59.32.025,continuous_performance_test,2024.2.4,MacIntel,119.047619,940987d6-eeed-46db-b3ac-3c40dd254c09,5,518.2385,520.2362,space,1,0.528,,0,5,5,21,1,V,space,,,,,,,,,,
,,,,,R_4li9cD7fBSAM9RP,001,2025-09-15_19h59.32.025,continuous_performance_test,2024.2.4,MacIntel,119.047619,940987d6-eeed-46db-b3ac-3c40dd254c09,5,520.2376,521.8365,space,1,0.6265,,0,6,6,24,1,Z,space,,,,,,,,,,
,,,,,R_4li9cD7fBSAM9RP,001,2025-09-15_19h59.32.025,continuous_performance_test,2024.2.4,MacIntel,119.047619,940987d6-eeed-46db-b3ac-3c40dd254c09,5,521.8386,523.4855,space,1,0.4367,,0,7,7,20,1,U,space,,,,,,,,,,
,,,,,R_4li9cD7fBSAM9RP,001,2025-09-15_19h59.32.025,continuous_performance_test,2024.2.4,MacIntel,119.047619,940987d6-eeed-46db-b3ac-3c40dd254c09,5,523.4877,525.3852,space,1,0.3649,,0,8,8,1,1,B,space,,,,,,,,,,
,,,,,R_4li9cD7fBSAM9RP,001,2025-09-15_19h59.32.025,continuous_performance_test,2024.2.4,MacIntel,119.047619,940987d6-eeed-46db-b3ac-3c40dd254c09,5,525.3874,527.0864,,1,,,0,9,9,27,1,X,,,,,,,,,,,
,,,,,R_4li9cD7fBSAM9RP,001,2025-09-15_19h59.32.025,continuous_performance_test,2024.2.4,MacIntel,119.047619,940987d6-eeed-46db-b3ac-3c40dd254c09,5,527.0889,528.936,space,1,0.3297,,0,10,10,6,1,G,space,,,,,,,,,,
,,,,,R_4li9cD7fBSAM9RP,001,2025-09-15_19h59.32.025,continuous_performance_test,2024.2.4,MacIntel,119.047619,940987d6-eeed-46db-b3ac-3c40dd254c09,5,528.9377,530.8864,,1,,,0,11,11,29,1,X,,,,,,,,,,,
,,,,,R_4li9cD7fBSAM9RP,001,2025-09-15_19h59.32.025,continuous_performance_test,2024.2.4,MacIntel,119.047619,940987d6-eeed-46db-b3ac-3c40dd254c09,5,530.8883,532.7356,space,1,0.3483,,0,12,12,22,1,W,space,,,,,,,,,,
,,,,,R_4li9cD7fBSAM9RP,001,2025-09-15_19h59.32.025,continuous_performance_test,2024.2.4,MacIntel,119.047619,940987d6-eeed-46db-b3ac-3c40dd254c09,5,532.7362,534.4364,space,1,0.3841,,0,13,13,16,1,Q,space,,,,,,,,,,
,,,,,R_4li9cD7fBSAM9RP,001,2025-09-15_19h59.32.025,continuous_performance_test,2024.2.4,MacIntel,119.047619,940987d6-eeed-46db-b3ac-3c40dd254c09,5,534.4387,536.3857,space,1,0.3702,,0,14,14,18,1,S,space,,,,,,,,,,
,,,,,R_4li9cD7fBSAM9RP,001,2025-09-15_19h59.32.025,continuous_performance_test,2024.2.4,MacIntel,119.047619,940987d6-eeed-46db-b3ac-3c40dd254c09,5,536.3872,538.2364,space,1,0.3608,,0,15,15,13,1,N,space,,,,,,,,,,
,,,,,R_4li9cD7fBSAM9RP,001,2025-09-15_19h59.32.025,continuous_performance_test,2024.2.4,MacIntel,119.047619,940987d6-eeed-46db-b3ac-3c40dd254c09,5,538.2386,539.9855,space,1,0.3395,,0,16,16,14,1,O,space,,,,,,,,,,
,,,,,R_4li9cD7fBSAM9RP,001,2025-09-15_19h59.32.025,continuous_performance_test,2024.2.4,MacIntel,119.047619,940987d6-eeed-46db-b3ac-3c40dd254c09,5,539.9861,541.836,space,1,0.3292,,0,17,17,15,1,P,space,,,,,,,,,,
,,,,,R_4li9cD7fBSAM9RP,001,2025-09-15_19h59.32.025,continuous_performance_test,2024.2.4,MacIntel,119.047619,940987d6-eeed-46db-b3ac-3c40dd254c09,5,541.838,543.3857,space,0,0.3588,,0,18,18,26,1,X,,,,,,,,,,,
,,,,,R_4li9cD7fBSAM9RP,001,2025-09-15_19h59.32.025,continuous_performance_test,2024.2.4,MacIntel,119.047619,940987d6-eeed-46db-b3ac-3c40dd254c09,5,543.3865,545.2359,space,1,0.4034,,0,19,19,2,1,C,space,,,,,,,,,,
,,,,,R_4li9cD7fBSAM9RP,001,2025-09-15_19h59.32.025,continuous_performance_test,2024.2.4,MacIntel,119.047619,940987d6-eeed-46db-b3ac-3c40dd254c09,5,545.2373,546.7857,space,1,0.335,,0,20,20,10,1,K,space,,,,,,,,,,
,,,,,R_4li9cD7fBSAM9RP,001,2025-09-15_19h59.32.025,continuous_performance_test,2024.2.4,MacIntel,119.047619,940987d6-eeed-46db-b3ac-3c40dd254c09,5,546.7868,548.4865,space,1,0.3516,,0,21,21,12,1,M,space,,,,,,,,,,
,,,,,R_4li9cD7fBSAM9RP,001,2025-09-15_19h59.32.025,continuous_performance_test,2024.2.4,MacIntel,119.047619,940987d6-eeed-46db-b3ac-3c40dd254c09,5,548.489,550.4857,space,1,0.4946,,0,22,22,0,1,A,space,,,,,,,,,,
,,,,,R_4li9cD7fBSAM9RP,001,2025-09-15_19h59.32.025,continuous_performance_test,2024.2.4,MacIntel,119.047619,940987d6-eeed-46db-b3ac-3c40dd254c09,5,550.4871,552.0363,space,1,0.3889,,0,23,23,5,1,F,space,,,,,,,,,,
,,,,,R_4li9cD7fBSAM9RP,001,2025-09-15_19h59.32.025,continuous_performance_test,2024.2.4,MacIntel,119.047619,940987d6-eeed-46db-b3ac-3c40dd254c09,5,552.0384,553.7871,space,1,0.3596,,0,24,24,11,1,L,space,,,,,,,,,,
,,,,,R_4li9cD7fBSAM9RP,001,2025-09-15_19h59.32.025,continuous_performance_test,2024.2.4,MacIntel,119.047619,940987d6-eeed-46db-b3ac-3c40dd254c09,5,553.7894,555.4367,space,0,0.3029,,0,25,25,28,1,X,,,,,,,,,,,
,,,,,R_4li9cD7fBSAM9RP,001,2025-09-15_19h59.32.025,continuous_performance_test,2024.2.4,MacIntel,119.047619,940987d6-eeed-46db-b3ac-3c40dd254c09,5,555.4384,556.9901,space,1,0.4359,,0,26,26,17,1,R,space,,,,,,,,,,
,,,,,R_4li9cD7fBSAM9RP,001,2025-09-15_19h59.32.025,continuous_performance_test,2024.2.4,MacIntel,119.047619,940987d6-eeed-46db-b3ac-3c40dd254c09,5,556.9924,558.9908,space,1,0.3223,,0,27,27,3,1,D,space,,,,,,,,,,
,,,,,R_4li9cD7fBSAM9RP,001,2025-09-15_19h59.32.025,continuous_performance_test,2024.2.4,MacIntel,119.047619,940987d6-eeed-46db-b3ac-3c40dd254c09,5,558.9934,560.5898,space,1,0.4073,,0,28,28,7,1,H,space,,,,,,,,,,
,,,,,R_4li9cD7fBSAM9RP,001,2025-09-15_19h59.32.025,continuous_performance_test,2024.2.4,MacIntel,119.047619,940987d6-eeed-46db-b3ac-3c40dd254c09,5,560.5907,562.1905,space,1,0.3528,,0,29,29,9,1,J,space,,,,,,,,,,
,,,,,R_4li9cD7fBSAM9RP,001,2025-09-15_19h59.32.025,continuous_performance_test,2024.2.4,MacIntel,119.047619,940987d6-eeed-46db-b3ac-3c40dd254c09,5,565.6442,567.4404,,1,,,0,0,0,25,1,X,,562.1921,565.6399,space,3.4362,,,,,,
,,,,,R_4li9cD7fBSAM9RP,001,2025-09-15_19h59.32.025,continuous_performance_test,2024.2.4,MacIntel,119.047619,940987d6-eeed-46db-b3ac-3c40dd254c09,5,567.4424,569.4404,space,1,0.2987,,0,1,1,11,1,L,space,,,,,,,,,,
,,,,,R_4li9cD7fBSAM9RP,001,2025-09-15_19h59.32.025,continuous_performance_test,2024.2.4,MacIntel,119.047619,940987d6-eeed-46db-b3ac-3c40dd254c09,5,569.4424,570.9907,space,1,0.3356,,0,2,2,21,1,V,space,,,,,,,,,,
,,,,,R_4li9cD7fBSAM9RP,001,2025-09-15_19h59.32.025,continuous_performance_test,2024.2.4,MacIntel,119.047619,940987d6-eeed-46db-b3ac-3c40dd254c09,5,570.993,572.8407,space,1,0.3183,,0,3,3,10,1,K,space,,,,,,,,,,
,,,,,R_4li9cD7fBSAM9RP,001,2025-09-15_19h59.32.025,continuous_performance_test,2024.2.4,MacIntel,119.047619,940987d6-eeed-46db-b3ac-3c40dd254c09,5,572.8427,574.4903,space,1,0.3779,,0,4,4,15,1,P,space,,,,,,,,,,
,,,,,R_4li9cD7fBSAM9RP,001,2025-09-15_19h59.32.025,continuous_performance_test,2024.2.4,MacIntel,119.047619,940987d6-eeed-46db-b3ac-3c40dd254c09,5,574.4925,576.2407,space,1,0.3861,,0,5,5,13,1,N,space,,,,,,,,,,
,,,,,R_4li9cD7fBSAM9RP,001,2025-09-15_19h59.32.025,continuous_performance_test,2024.2.4,MacIntel,119.047619,940987d6-eeed-46db-b3ac-3c40dd254c09,5,576.2423,578.1906,space,1,0.4113,,0,6,6,23,1,Y,space,,,,,,,,,,
,,,,,R_4li9cD7fBSAM9RP,001,2025-09-15_19h59.32.025,continuous_performance_test,2024.2.4,MacIntel,119.047619,940987d6-eeed-46db-b3ac-3c40dd254c09,5,578.1923,579.7396,,1,,,0,7,7,26,1,X,,,,,,,,,,,
,,,,,R_4li9cD7fBSAM9RP,001,2025-09-15_19h59.32.025,continuous_performance_test,2024.2.4,MacIntel,119.047619,940987d6-eeed-46db-b3ac-3c40dd254c09,5,579.7406,581.5891,space,0,0.3335,,0,8,8,29,1,X,,,,,,,,,,,
,,,,,R_4li9cD7fBSAM9RP,001,2025-09-15_19h59.32.025,continuous_performance_test,2024.2.4,MacIntel,119.047619,940987d6-eeed-46db-b3ac-3c40dd254c09,5,581.5903,583.2405,space,1,0.3866,,0,9,9,2,1,C,space,,,,,,,,,,
,,,,,R_4li9cD7fBSAM9RP,001,2025-09-15_19h59.32.025,continuous_performance_test,2024.2.4,MacIntel,119.047619,940987d6-eeed-46db-b3ac-3c40dd254c09,5,583.2426,585.2402,,1,,,0,10,10,28,1,X,,,,,,,,,,,
,,,,,R_4li9cD7fBSAM9RP,001,2025-09-15_19h59.32.025,continuous_performance_test,2024.2.4,MacIntel,119.047619,940987d6-eeed-46db-b3ac-3c40dd254c09,5,585.2422,586.9902,space,1,0.4356,,0,11,11,5,1,F,space,,,,,,,,,,
,,,,,R_4li9cD7fBSAM9RP,001,2025-09-15_19h59.32.025,continuous_performance_test,2024.2.4,MacIntel,119.047619,940987d6-eeed-46db-b3ac-3c40dd254c09,5,586.9918,588.8906,space,1,0.4644,,0,12,12,6,1,G,space,,,,,,,,,,
,,,,,R_4li9cD7fBSAM9RP,001,2025-09-15_19h59.32.025,continuous_performance_test,2024.2.4,MacIntel,119.047619,940987d6-eeed-46db-b3ac-3c40dd254c09,5,588.8927,590.4403,space,1,0.4303,,0,13,13,3,1,D,space,,,,,,,,,,
,,,,,R_4li9cD7fBSAM9RP,001,2025-09-15_19h59.32.025,continuous_performance_test,2024.2.4,MacIntel,119.047619,940987d6-eeed-46db-b3ac-3c40dd254c09,5,590.4413,592.3906,space,1,0.3649,,0,14,14,20,1,U,space,,,,,,,,,,
,,,,,R_4li9cD7fBSAM9RP,001,2025-09-15_19h59.32.025,continuous_performance_test,2024.2.4,MacIntel,119.047619,940987d6-eeed-46db-b3ac-3c40dd254c09,5,592.3927,594.039,space,1,0.4604,,0,15,15,4,1,E,space,,,,,,,,,,
,,,,,R_4li9cD7fBSAM9RP,001,2025-09-15_19h59.32.025,continuous_performance_test,2024.2.4,MacIntel,119.047619,940987d6-eeed-46db-b3ac-3c40dd254c09,5,594.0399,595.691,space,1,0.4019,,0,16,16,12,1,M,space,,,,,,,,,,
,,,,,R_4li9cD7fBSAM9RP,001,2025-09-15_19h59.32.025,continuous_performance_test,2024.2.4,MacIntel,119.047619,940987d6-eeed-46db-b3ac-3c40dd254c09,5,595.6932,597.5395,space,1,0.4359,,0,17,17,9,1,J,space,,,,,,,,,,
,,,,,R_4li9cD7fBSAM9RP,001,2025-09-15_19h59.32.025,continuous_performance_test,2024.2.4,MacIntel,119.047619,940987d6-eeed-46db-b3ac-3c40dd254c09,5,597.5404,599.1403,space,1,0.4526,,0,18,18,8,1,I,space,,,,,,,,,,
,,,,,R_4li9cD7fBSAM9RP,001,2025-09-15_19h59.32.025,continuous_performance_test,2024.2.4,MacIntel,119.047619,940987d6-eeed-46db-b3ac-3c40dd254c09,5,599.142,601.1399,space,1,0.4108,,0,19,19,24,1,Z,space,,,,,,,,,,
,,,,,R_4li9cD7fBSAM9RP,001,2025-09-15_19h59.32.025,continuous_performance_test,2024.2.4,MacIntel,119.047619,940987d6-eeed-46db-b3ac-3c40dd254c09,5,601.1419,602.7408,,1,,,0,20,20,27,1,X,,,,,,,,,,,
,,,,,R_4li9cD7fBSAM9RP,001,2025-09-15_19h59.32.025,continuous_performance_test,2024.2.4,MacIntel,119.047619,940987d6-eeed-46db-b3ac-3c40dd254c09,5,602.7424,604.2892,space,1,0.3793,,0,21,21,1,1,B,space,,,,,,,,,,
,,,,,R_4li9cD7fBSAM9RP,001,2025-09-15_19h59.32.025,continuous_performance_test,2024.2.4,MacIntel,119.047619,940987d6-eeed-46db-b3ac-3c40dd254c09,5,604.2902,606.0906,space,1,0.3621,,0,22,22,19,1,T,space,,,,,,,,,,
,,,,,R_4li9cD7fBSAM9RP,001,2025-09-15_19h59.32.025,continuous_performance_test,2024.2.4,MacIntel,119.047619,940987d6-eeed-46db-b3ac-3c40dd254c09,5,606.0927,607.74,space,1,0.3685,,0,23,23,16,1,Q,space,,,,,,,,,,
,,,,,R_4li9cD7fBSAM9RP,001,2025-09-15_19h59.32.025,continuous_performance_test,2024.2.4,MacIntel,119.047619,940987d6-eeed-46db-b3ac-3c40dd254c09,5,607.7411,609.5901,space,1,0.386,,0,24,24,22,1,W,space,,,,,,,,,,
,,,,,R_4li9cD7fBSAM9RP,001,2025-09-15_19h59.32.025,continuous_performance_test,2024.2.4,MacIntel,119.047619,940987d6-eeed-46db-b3ac-3c40dd254c09,5,609.592,611.4907,space,1,0.4154,,0,25,25,7,1,H,space,,,,,,,,,,
,,,,,R_4li9cD7fBSAM9RP,001,2025-09-15_19h59.32.025,continuous_performance_test,2024.2.4,MacIntel,119.047619,940987d6-eeed-46db-b3ac-3c40dd254c09,5,611.4927,613.29,space,1,0.4228,,0,26,26,14,1,O,space,,,,,,,,,,
,,,,,R_4li9cD7fBSAM9RP,001,2025-09-15_19h59.32.025,continuous_performance_test,2024.2.4,MacIntel,119.047619,940987d6-eeed-46db-b3ac-3c40dd254c09,5,613.2923,614.8408,space,1,0.537,,0,27,27,18,1,S,space,,,,,,,,,,
,,,,,R_4li9cD7fBSAM9RP,001,2025-09-15_19h59.32.025,continuous_performance_test,2024.2.4,MacIntel,119.047619,940987d6-eeed-46db-b3ac-3c40dd254c09,5,614.8429,616.5903,space,1,0.5882,,0,28,28,0,1,A,space,,,,,,,,,,
,,,,,R_4li9cD7fBSAM9RP,001,2025-09-15_19h59.32.025,continuous_performance_test,2024.2.4,MacIntel,119.047619,940987d6-eeed-46db-b3ac-3c40dd254c09,5,616.5919,618.3905,space,1,0.336,,0,29,29,17,1,R,space,,,,,,,,,,
,,,,,R_4li9cD7fBSAM9RP,001,2025-09-15_19h59.32.025,continuous_performance_test,2024.2.4,MacIntel,119.047619,940987d6-eeed-46db-b3ac-3c40dd254c09,5,,,,,,,,,,,,,,618.3916,618.3933,,,,618.3939,653.7528,space,35.3409,
