Instructions.started,Instructions.stopped,key_resp.keys,key_resp.rt,key_resp.duration,participant,session,date,expName,psychopyVersion,OS,frameRate,Trial_noX.started,Trial_noX.stopped,response.keys,response.corr,trials_noX.thisRepN,trials_noX.thisTrialN,trials_noX.thisN,trials_noX.thisIndex,trials_noX.ran,letter,corrAns,response.rt,response.duration,BlockBreak.started,BlockBreak.stopped,key_instruct.keys,key_instruct.rt,key_instruct.duration,End_NoX.started,End_NoX.stopped,key_resp_end_noX.keys,key_resp_end_noX.rt,key_resp_end_noX.duration
0.0001,16.8603,space,16.8494,,R_4LnkfUWrKdZKSEl,001,2025-08-25_09h38.24.873,continuous_performance_test,2024.2.4,Win32,60.60606061,,,,,,,,,,,,,,,,,,,,,,,
,,,,,R_4LnkfUWrKdZKSEl,001,2025-08-25_09h38.24.873,continuous_performance_test,2024.2.4,Win32,60.60606061,16.8816,18.587,,0,0,0,0,8,1,I,space,,,,,,,,,,,,
,,,,,R_4LnkfUWrKdZKSEl,001,2025-08-25_09h38.24.873,continuous_performance_test,2024.2.4,Win32,60.60606061,18.5908,20.2404,space,1,0,1,1,7,1,H,space,0.4063,,,,,,,,,,,
,,,,,R_4LnkfUWrKdZKSEl,001,2025-08-25_09h38.24.873,continuous_performance_test,2024.2.4,Win32,60.60606061,20.2429,22.0359,space,0,0,2,2,29,1,X,,0.4215,,,,,,,,,,,
,,,,,R_4LnkfUWrKdZKSEl,001,2025-08-25_09h38.24.873,continuous_performance_test,2024.2.4,Win32,60.60606061,22.0409,23.7857,space,1,0,3,3,10,1,K,space,0.4536,,,,,,,,,,,
,,,,,R_4LnkfUWrKdZKSEl,001,2025-08-25_09h38.24.873,continuous_performance_test,2024.2.4,Win32,60.60606061,23.7903,25.7351,space,1,0,4,4,5,1,F,space,0.4674,,,,,,,,,,,
,,,,,R_4LnkfUWrKdZKSEl,001,2025-08-25_09h38.24.873,continuous_performance_test,2024.2.4,Win32,60.60606061,25.7378,27.5898,space,1,0,5,5,9,1,J,space,0.4069,,,,,,,,,,,
,,,,,R_4LnkfUWrKdZKSEl,001,2025-08-25_09h38.24.873,continuous_performance_test,2024.2.4,Win32,60.60606061,27.5917,29.4898,space,1,0,6,6,12,1,M,space,0.4092,,,,,,,,,,,
,,,,,R_4LnkfUWrKdZKSEl,001,2025-08-25_09h38.24.873,continuous_performance_test,2024.2.4,Win32,60.60606061,29.4917,31.139,space,1,0,7,7,20,1,U,space,0.4249,,,,,,,,,,,
,,,,,R_4LnkfUWrKdZKSEl,001,2025-08-25_09h38.24.873,continuous_performance_test,2024.2.4,Win32,60.60606061,31.1413,32.8392,,1,0,8,8,26,1,X,,,,,,,,,,,,,
,,,,,R_4LnkfUWrKdZKSEl,001,2025-08-25_09h38.24.873,continuous_performance_test,2024.2.4,Win32,60.60606061,32.8419,34.586,space,1,0,9,9,4,1,E,space,0.3579,,,,,,,,,,,
,,,,,R_4LnkfUWrKdZKSEl,001,2025-08-25_09h38.24.873,continuous_performance_test,2024.2.4,Win32,60.60606061,34.5894,36.5905,space,1,0,10,10,0,1,A,space,0.4001,,,,,,,,,,,
,,,,,R_4LnkfUWrKdZKSEl,001,2025-08-25_09h38.24.873,continuous_performance_test,2024.2.4,Win32,60.60606061,36.5928,38.3862,space,1,0,11,11,22,1,W,space,0.3291,,,,,,,,,,,
,,,,,R_4LnkfUWrKdZKSEl,001,2025-08-25_09h38.24.873,continuous_performance_test,2024.2.4,Win32,60.60606061,38.3886,40.3358,,1,0,12,12,25,1,X,,,,,,,,,,,,,
,,,,,R_4LnkfUWrKdZKSEl,001,2025-08-25_09h38.24.873,continuous_performance_test,2024.2.4,Win32,60.60606061,40.34,42.2358,space,1,0,13,13,23,1,Y,space,0.4058,,,,,,,,,,,
,,,,,R_4LnkfUWrKdZKSEl,001,2025-08-25_09h38.24.873,continuous_performance_test,2024.2.4,Win32,60.60606061,42.2392,43.9365,space,1,0,14,14,1,1,B,space,0.3562,,,,,,,,,,,
,,,,,R_4LnkfUWrKdZKSEl,001,2025-08-25_09h38.24.873,continuous_performance_test,2024.2.4,Win32,60.60606061,43.9401,45.8861,space,1,0,15,15,3,1,D,space,0.3883,,,,,,,,,,,
,,,,,R_4LnkfUWrKdZKSEl,001,2025-08-25_09h38.24.873,continuous_performance_test,2024.2.4,Win32,60.60606061,45.8883,47.6887,,1,0,16,16,27,1,X,,,,,,,,,,,,,
,,,,,R_4LnkfUWrKdZKSEl,001,2025-08-25_09h38.24.873,continuous_performance_test,2024.2.4,Win32,60.60606061,47.6911,49.5892,space,1,0,17,17,11,1,L,space,0.376,,,,,,,,,,,
,,,,,R_4LnkfUWrKdZKSEl,001,2025-08-25_09h38.24.873,continuous_performance_test,2024.2.4,Win32,60.60606061,49.5916,51.5853,space,1,0,18,18,14,1,O,space,0.4147,,,,,,,,,,,
,,,,,R_4LnkfUWrKdZKSEl,001,2025-08-25_09h38.24.873,continuous_performance_test,2024.2.4,Win32,60.60606061,51.5886,53.4904,space,1,0,19,19,19,1,T,space,0.3906,,,,,,,,,,,
,,,,,R_4LnkfUWrKdZKSEl,001,2025-08-25_09h38.24.873,continuous_performance_test,2024.2.4,Win32,60.60606061,53.4936,55.0356,space,1,0,20,20,16,1,Q,space,0.5573,,,,,,,,,,,
,,,,,R_4LnkfUWrKdZKSEl,001,2025-08-25_09h38.24.873,continuous_performance_test,2024.2.4,Win32,60.60606061,55.0384,56.9358,space,1,0,21,21,17,1,R,space,0.4693,,,,,,,,,,,
,,,,,R_4LnkfUWrKdZKSEl,001,2025-08-25_09h38.24.873,continuous_performance_test,2024.2.4,Win32,60.60606061,56.9388,58.589,space,1,0,22,22,18,1,S,space,0.3677,,,,,,,,,,,
,,,,,R_4LnkfUWrKdZKSEl,001,2025-08-25_09h38.24.873,continuous_performance_test,2024.2.4,Win32,60.60606061,58.5905,60.2358,space,1,0,23,23,24,1,Z,space,0.4011,,,,,,,,,,,
,,,,,R_4LnkfUWrKdZKSEl,001,2025-08-25_09h38.24.873,continuous_performance_test,2024.2.4,Win32,60.60606061,60.2396,62.0357,space,1,0,24,24,13,1,N,space,0.4339,,,,,,,,,,,
,,,,,R_4LnkfUWrKdZKSEl,001,2025-08-25_09h38.24.873,continuous_performance_test,2024.2.4,Win32,60.60606061,62.0397,63.8356,space,1,0,25,25,21,1,V,space,0.3734,,,,,,,,,,,
,,,,,R_4LnkfUWrKdZKSEl,001,2025-08-25_09h38.24.873,continuous_performance_test,2024.2.4,Win32,60.60606061,63.839,65.4856,space,1,0,26,26,15,1,P,space,0.3891,,,,,,,,,,,
,,,,,R_4LnkfUWrKdZKSEl,001,2025-08-25_09h38.24.873,continuous_performance_test,2024.2.4,Win32,60.60606061,65.4895,67.0402,space,1,0,27,27,6,1,G,space,0.3575,,,,,,,,,,,
,,,,,R_4LnkfUWrKdZKSEl,001,2025-08-25_09h38.24.873,continuous_performance_test,2024.2.4,Win32,60.60606061,67.0423,68.9388,space,1,0,28,28,2,1,C,space,0.3394,,,,,,,,,,,
,,,,,R_4LnkfUWrKdZKSEl,001,2025-08-25_09h38.24.873,continuous_performance_test,2024.2.4,Win32,60.60606061,68.9407,70.8856,,1,0,29,29,28,1,X,,,,,,,,,,,,,
,,,,,R_4LnkfUWrKdZKSEl,001,2025-08-25_09h38.24.873,continuous_performance_test,2024.2.4,Win32,60.60606061,75.8675,77.7689,space,1,0,0,0,3,1,D,space,0.3763,,70.8868,75.853,space,4.9357,,,,,,
,,,,,R_4LnkfUWrKdZKSEl,001,2025-08-25_09h38.24.873,continuous_performance_test,2024.2.4,Win32,60.60606061,77.7719,79.4687,space,1,0,1,1,15,1,P,space,0.3564,,,,,,,,,,,
,,,,,R_4LnkfUWrKdZKSEl,001,2025-08-25_09h38.24.873,continuous_performance_test,2024.2.4,Win32,60.60606061,79.4714,81.1723,space,1,0,2,2,5,1,F,space,0.3277,,,,,,,,,,,
,,,,,R_4LnkfUWrKdZKSEl,001,2025-08-25_09h38.24.873,continuous_performance_test,2024.2.4,Win32,60.60606061,81.1739,82.7236,space,1,0,3,3,8,1,I,space,0.3381,,,,,,,,,,,
,,,,,R_4LnkfUWrKdZKSEl,001,2025-08-25_09h38.24.873,continuous_performance_test,2024.2.4,Win32,60.60606061,82.7257,84.4193,space,1,0,4,4,2,1,C,space,0.269,,,,,,,,,,,
,,,,,R_4LnkfUWrKdZKSEl,001,2025-08-25_09h38.24.873,continuous_performance_test,2024.2.4,Win32,60.60606061,84.4217,86.1194,space,1,0,5,5,17,1,R,space,0.3375,,,,,,,,,,,
,,,,,R_4LnkfUWrKdZKSEl,001,2025-08-25_09h38.24.873,continuous_performance_test,2024.2.4,Win32,60.60606061,86.1212,87.6686,space,1,0,6,6,16,1,Q,space,0.4004,,,,,,,,,,,
,,,,,R_4LnkfUWrKdZKSEl,001,2025-08-25_09h38.24.873,continuous_performance_test,2024.2.4,Win32,60.60606061,87.6703,89.5691,space,1,0,7,7,6,1,G,space,0.3037,,,,,,,,,,,
,,,,,R_4LnkfUWrKdZKSEl,001,2025-08-25_09h38.24.873,continuous_performance_test,2024.2.4,Win32,60.60606061,89.5725,91.3691,space,1,0,8,8,24,1,Z,space,0.3234,,,,,,,,,,,
,,,,,R_4LnkfUWrKdZKSEl,001,2025-08-25_09h38.24.873,continuous_performance_test,2024.2.4,Win32,60.60606061,91.3719,93.1189,space,1,0,9,9,14,1,O,space,0.346,,,,,,,,,,,
,,,,,R_4LnkfUWrKdZKSEl,001,2025-08-25_09h38.24.873,continuous_performance_test,2024.2.4,Win32,60.60606061,93.1212,95.0189,space,1,0,10,10,0,1,A,space,0.3598,,,,,,,,,,,
,,,,,R_4LnkfUWrKdZKSEl,001,2025-08-25_09h38.24.873,continuous_performance_test,2024.2.4,Win32,60.60606061,95.0219,97.0235,space,1,0,11,11,12,1,M,space,0.316,,,,,,,,,,,
,,,,,R_4LnkfUWrKdZKSEl,001,2025-08-25_09h38.24.873,continuous_performance_test,2024.2.4,Win32,60.60606061,97.0252,98.7234,space,1,0,12,12,9,1,J,space,0.3694,,,,,,,,,,,
,,,,,R_4LnkfUWrKdZKSEl,001,2025-08-25_09h38.24.873,continuous_performance_test,2024.2.4,Win32,60.60606061,98.7251,100.4694,,1,0,13,13,25,1,X,,,,,,,,,,,,,
,,,,,R_4LnkfUWrKdZKSEl,001,2025-08-25_09h38.24.873,continuous_performance_test,2024.2.4,Win32,60.60606061,100.4721,102.2736,space,1,0,14,14,10,1,K,space,0.366,,,,,,,,,,,
,,,,,R_4LnkfUWrKdZKSEl,001,2025-08-25_09h38.24.873,continuous_performance_test,2024.2.4,Win32,60.60606061,102.2751,103.9236,space,0,0,15,15,29,1,X,,0.2904,,,,,,,,,,,
,,,,,R_4LnkfUWrKdZKSEl,001,2025-08-25_09h38.24.873,continuous_performance_test,2024.2.4,Win32,60.60606061,103.9253,105.469,space,1,0,16,16,4,1,E,space,0.4276,,,,,,,,,,,
,,,,,R_4LnkfUWrKdZKSEl,001,2025-08-25_09h38.24.873,continuous_performance_test,2024.2.4,Win32,60.60606061,105.4723,107.2188,space,1,0,17,17,11,1,L,space,0.39,,,,,,,,,,,
,,,,,R_4LnkfUWrKdZKSEl,001,2025-08-25_09h38.24.873,continuous_performance_test,2024.2.4,Win32,60.60606061,107.2213,109.2216,space,1,0,18,18,1,1,B,space,0.3356,,,,,,,,,,,
,,,,,R_4LnkfUWrKdZKSEl,001,2025-08-25_09h38.24.873,continuous_performance_test,2024.2.4,Win32,60.60606061,109.2231,111.119,space,1,0,19,19,7,1,H,space,0.3552,,,,,,,,,,,
,,,,,R_4LnkfUWrKdZKSEl,001,2025-08-25_09h38.24.873,continuous_performance_test,2024.2.4,Win32,60.60606061,111.1217,112.9226,space,1,0,20,20,21,1,V,space,0.3664,,,,,,,,,,,
,,,,,R_4LnkfUWrKdZKSEl,001,2025-08-25_09h38.24.873,continuous_performance_test,2024.2.4,Win32,60.60606061,112.9234,114.4683,,1,0,21,21,27,1,X,,,,,,,,,,,,,
,,,,,R_4LnkfUWrKdZKSEl,001,2025-08-25_09h38.24.873,continuous_performance_test,2024.2.4,Win32,60.60606061,114.4714,116.1728,space,1,0,22,22,19,1,T,space,0.344,,,,,,,,,,,
,,,,,R_4LnkfUWrKdZKSEl,001,2025-08-25_09h38.24.873,continuous_performance_test,2024.2.4,Win32,60.60606061,116.1743,117.719,,1,0,23,23,26,1,X,,,,,,,,,,,,,
,,,,,R_4LnkfUWrKdZKSEl,001,2025-08-25_09h38.24.873,continuous_performance_test,2024.2.4,Win32,60.60606061,117.7216,119.368,space,1,0,24,24,20,1,U,space,0.3528,,,,,,,,,,,
,,,,,R_4LnkfUWrKdZKSEl,001,2025-08-25_09h38.24.873,continuous_performance_test,2024.2.4,Win32,60.60606061,119.3699,121.1734,,1,0,25,25,28,1,X,,,,,,,,,,,,,
,,,,,R_4LnkfUWrKdZKSEl,001,2025-08-25_09h38.24.873,continuous_performance_test,2024.2.4,Win32,60.60606061,121.1754,123.1241,space,1,0,26,26,13,1,N,space,0.4578,,,,,,,,,,,
,,,,,R_4LnkfUWrKdZKSEl,001,2025-08-25_09h38.24.873,continuous_performance_test,2024.2.4,Win32,60.60606061,123.1266,124.7185,space,1,0,27,27,23,1,Y,space,0.3993,,,,,,,,,,,
,,,,,R_4LnkfUWrKdZKSEl,001,2025-08-25_09h38.24.873,continuous_performance_test,2024.2.4,Win32,60.60606061,124.7206,126.6188,space,1,0,28,28,18,1,S,space,0.5575,,,,,,,,,,,
,,,,,R_4LnkfUWrKdZKSEl,001,2025-08-25_09h38.24.873,continuous_performance_test,2024.2.4,Win32,60.60606061,126.6217,128.4232,space,1,0,29,29,22,1,W,space,0.4828,,,,,,,,,,,
,,,,,R_4LnkfUWrKdZKSEl,001,2025-08-25_09h38.24.873,continuous_performance_test,2024.2.4,Win32,60.60606061,132.195,134.0844,space,1,0,0,0,17,1,R,space,0.4543,,128.4247,132.1861,space,3.7388,,,,,,
,,,,,R_4LnkfUWrKdZKSEl,001,2025-08-25_09h38.24.873,continuous_performance_test,2024.2.4,Win32,60.60606061,134.0865,135.8351,space,1,0,1,1,15,1,P,space,0.3868,,,,,,,,,,,
,,,,,R_4LnkfUWrKdZKSEl,001,2025-08-25_09h38.24.873,continuous_performance_test,2024.2.4,Win32,60.60606061,135.8387,137.5357,space,1,0,2,2,18,1,S,space,0.3337,,,,,,,,,,,
,,,,,R_4LnkfUWrKdZKSEl,001,2025-08-25_09h38.24.873,continuous_performance_test,2024.2.4,Win32,60.60606061,137.539,139.5347,space,0,0,3,3,29,1,X,,0.2861,,,,,,,,,,,
,,,,,R_4LnkfUWrKdZKSEl,001,2025-08-25_09h38.24.873,continuous_performance_test,2024.2.4,Win32,60.60606061,139.5365,141.235,,1,0,4,4,25,1,X,,,,,,,,,,,,,
,,,,,R_4LnkfUWrKdZKSEl,001,2025-08-25_09h38.24.873,continuous_performance_test,2024.2.4,Win32,60.60606061,141.2377,143.2358,space,1,0,5,5,0,1,A,space,0.3267,,,,,,,,,,,
,,,,,R_4LnkfUWrKdZKSEl,001,2025-08-25_09h38.24.873,continuous_performance_test,2024.2.4,Win32,60.60606061,143.2378,145.1398,,1,0,6,6,27,1,X,,,,,,,,,,,,,
,,,,,R_4LnkfUWrKdZKSEl,001,2025-08-25_09h38.24.873,continuous_performance_test,2024.2.4,Win32,60.60606061,145.1415,146.7851,space,1,0,7,7,14,1,O,space,0.3352,,,,,,,,,,,
,,,,,R_4LnkfUWrKdZKSEl,001,2025-08-25_09h38.24.873,continuous_performance_test,2024.2.4,Win32,60.60606061,146.787,148.6399,space,1,0,8,8,6,1,G,space,0.3837,,,,,,,,,,,
,,,,,R_4LnkfUWrKdZKSEl,001,2025-08-25_09h38.24.873,continuous_performance_test,2024.2.4,Win32,60.60606061,148.641,150.3896,space,1,0,9,9,7,1,H,space,0.3581,,,,,,,,,,,
,,,,,R_4LnkfUWrKdZKSEl,001,2025-08-25_09h38.24.873,continuous_performance_test,2024.2.4,Win32,60.60606061,150.3913,152.1361,space,1,0,10,10,20,1,U,space,0.3734,,,,,,,,,,,
,,,,,R_4LnkfUWrKdZKSEl,001,2025-08-25_09h38.24.873,continuous_performance_test,2024.2.4,Win32,60.60606061,152.1383,154.1405,space,1,0,11,11,11,1,L,space,0.341,,,,,,,,,,,
,,,,,R_4LnkfUWrKdZKSEl,001,2025-08-25_09h38.24.873,continuous_performance_test,2024.2.4,Win32,60.60606061,154.1426,155.6855,space,1,0,12,12,2,1,C,space,0.3067,,,,,,,,,,,
,,,,,R_4LnkfUWrKdZKSEl,001,2025-08-25_09h38.24.873,continuous_performance_test,2024.2.4,Win32,60.60606061,155.6884,157.4851,space,1,0,13,13,12,1,M,space,0.3386,,,,,,,,,,,
,,,,,R_4LnkfUWrKdZKSEl,001,2025-08-25_09h38.24.873,continuous_performance_test,2024.2.4,Win32,60.60606061,157.4874,159.1349,,1,0,14,14,28,1,X,,,,,,,,,,,,,
,,,,,R_4LnkfUWrKdZKSEl,001,2025-08-25_09h38.24.873,continuous_performance_test,2024.2.4,Win32,60.60606061,159.1377,160.7887,space,1,0,15,15,5,1,F,space,0.3271,,,,,,,,,,,
,,,,,R_4LnkfUWrKdZKSEl,001,2025-08-25_09h38.24.873,continuous_performance_test,2024.2.4,Win32,60.60606061,160.7905,162.6858,space,1,0,16,16,24,1,Z,space,0.4826,,,,,,,,,,,
,,,,,R_4LnkfUWrKdZKSEl,001,2025-08-25_09h38.24.873,continuous_performance_test,2024.2.4,Win32,60.60606061,162.6882,164.2862,space,1,0,17,17,9,1,J,space,0.3671,,,,,,,,,,,
,,,,,R_4LnkfUWrKdZKSEl,001,2025-08-25_09h38.24.873,continuous_performance_test,2024.2.4,Win32,60.60606061,164.2885,166.0385,space,1,0,18,18,8,1,I,space,0.4032,,,,,,,,,,,
,,,,,R_4LnkfUWrKdZKSEl,001,2025-08-25_09h38.24.873,continuous_performance_test,2024.2.4,Win32,60.60606061,166.0406,167.7353,space,1,0,19,19,19,1,T,space,0.3566,,,,,,,,,,,
,,,,,R_4LnkfUWrKdZKSEl,001,2025-08-25_09h38.24.873,continuous_performance_test,2024.2.4,Win32,60.60606061,167.7374,169.3345,,1,0,20,20,26,1,X,,,,,,,,,,,,,
,,,,,R_4LnkfUWrKdZKSEl,001,2025-08-25_09h38.24.873,continuous_performance_test,2024.2.4,Win32,60.60606061,169.3362,171.1902,space,1,0,21,21,21,1,V,space,0.3847,,,,,,,,,,,
,,,,,R_4LnkfUWrKdZKSEl,001,2025-08-25_09h38.24.873,continuous_performance_test,2024.2.4,Win32,60.60606061,171.1933,173.035,space,1,0,22,22,1,1,B,space,0.3583,,,,,,,,,,,
,,,,,R_4LnkfUWrKdZKSEl,001,2025-08-25_09h38.24.873,continuous_performance_test,2024.2.4,Win32,60.60606061,173.038,175.0343,space,1,0,23,23,16,1,Q,space,0.3846,,,,,,,,,,,
,,,,,R_4LnkfUWrKdZKSEl,001,2025-08-25_09h38.24.873,continuous_performance_test,2024.2.4,Win32,60.60606061,175.0365,176.5855,space,1,0,24,24,22,1,W,space,0.3837,,,,,,,,,,,
,,,,,R_4LnkfUWrKdZKSEl,001,2025-08-25_09h38.24.873,continuous_performance_test,2024.2.4,Win32,60.60606061,176.5882,178.5852,space,1,0,25,25,13,1,N,space,0.3591,,,,,,,,,,,
,,,,,R_4LnkfUWrKdZKSEl,001,2025-08-25_09h38.24.873,continuous_performance_test,2024.2.4,Win32,60.60606061,178.5879,180.3376,space,1,0,26,26,3,1,D,space,0.3937,,,,,,,,,,,
,,,,,R_4LnkfUWrKdZKSEl,001,2025-08-25_09h38.24.873,continuous_performance_test,2024.2.4,Win32,60.60606061,180.3383,182.2897,space,1,0,27,27,23,1,Y,space,0.3239,,,,,,,,,,,
,,,,,R_4LnkfUWrKdZKSEl,001,2025-08-25_09h38.24.873,continuous_performance_test,2024.2.4,Win32,60.60606061,182.2916,183.8354,space,1,0,28,28,4,1,E,space,0.4333,,,,,,,,,,,
,,,,,R_4LnkfUWrKdZKSEl,001,2025-08-25_09h38.24.873,continuous_performance_test,2024.2.4,Win32,60.60606061,183.8375,185.5356,space,1,0,29,29,10,1,K,space,0.4702,,,,,,,,,,,
,,,,,R_4LnkfUWrKdZKSEl,001,2025-08-25_09h38.24.873,continuous_performance_test,2024.2.4,Win32,60.60606061,188.4822,190.1402,space,1,0,0,0,4,1,E,space,0.442,,185.5385,188.4741,space,2.9171,,,,,,
,,,,,R_4LnkfUWrKdZKSEl,001,2025-08-25_09h38.24.873,continuous_performance_test,2024.2.4,Win32,60.60606061,190.1418,192.141,space,0,0,1,1,27,1,X,,0.3672,,,,,,,,,,,
,,,,,R_4LnkfUWrKdZKSEl,001,2025-08-25_09h38.24.873,continuous_performance_test,2024.2.4,Win32,60.60606061,192.1426,193.9857,space,1,0,2,2,0,1,A,space,0.2897,,,,,,,,,,,
,,,,,R_4LnkfUWrKdZKSEl,001,2025-08-25_09h38.24.873,continuous_performance_test,2024.2.4,Win32,60.60606061,193.9884,195.8846,space,1,0,3,3,6,1,G,space,0.3338,,,,,,,,,,,
,,,,,R_4LnkfUWrKdZKSEl,001,2025-08-25_09h38.24.873,continuous_performance_test,2024.2.4,Win32,60.60606061,195.8866,197.4353,space,1,0,4,4,3,1,D,space,0.3732,,,,,,,,,,,
,,,,,R_4LnkfUWrKdZKSEl,001,2025-08-25_09h38.24.873,continuous_performance_test,2024.2.4,Win32,60.60606061,197.4379,199.1854,space,1,0,5,5,24,1,Z,space,0.3112,,,,,,,,,,,
,,,,,R_4LnkfUWrKdZKSEl,001,2025-08-25_09h38.24.873,continuous_performance_test,2024.2.4,Win32,60.60606061,199.1877,201.0847,space,1,0,6,6,13,1,N,space,0.3387,,,,,,,,,,,
,,,,,R_4LnkfUWrKdZKSEl,001,2025-08-25_09h38.24.873,continuous_performance_test,2024.2.4,Win32,60.60606061,201.0882,202.7358,space,0,0,7,7,25,1,X,,0.3058,,,,,,,,,,,
,,,,,R_4LnkfUWrKdZKSEl,001,2025-08-25_09h38.24.873,continuous_performance_test,2024.2.4,Win32,60.60606061,202.7385,204.2849,space,1,0,8,8,8,1,I,space,0.3524,,,,,,,,,,,
,,,,,R_4LnkfUWrKdZKSEl,001,2025-08-25_09h38.24.873,continuous_performance_test,2024.2.4,Win32,60.60606061,204.2876,205.8847,space,1,0,9,9,9,1,J,space,0.4003,,,,,,,,,,,
,,,,,R_4LnkfUWrKdZKSEl,001,2025-08-25_09h38.24.873,continuous_performance_test,2024.2.4,Win32,60.60606061,205.8866,207.5889,space,1,0,10,10,18,1,S,space,0.3582,,,,,,,,,,,
,,,,,R_4LnkfUWrKdZKSEl,001,2025-08-25_09h38.24.873,continuous_performance_test,2024.2.4,Win32,60.60606061,207.5899,209.3354,space,1,0,11,11,2,1,C,space,0.3768,,,,,,,,,,,
,,,,,R_4LnkfUWrKdZKSEl,001,2025-08-25_09h38.24.873,continuous_performance_test,2024.2.4,Win32,60.60606061,209.3385,211.3391,space,1,0,12,12,11,1,L,space,0.3399,,,,,,,,,,,
,,,,,R_4LnkfUWrKdZKSEl,001,2025-08-25_09h38.24.873,continuous_performance_test,2024.2.4,Win32,60.60606061,211.3404,213.2893,space,1,0,13,13,1,1,B,space,0.3558,,,,,,,,,,,
,,,,,R_4LnkfUWrKdZKSEl,001,2025-08-25_09h38.24.873,continuous_performance_test,2024.2.4,Win32,60.60606061,213.2911,215.1855,space,1,0,14,14,12,1,M,space,0.4313,,,,,,,,,,,
,,,,,R_4LnkfUWrKdZKSEl,001,2025-08-25_09h38.24.873,continuous_performance_test,2024.2.4,Win32,60.60606061,215.1875,216.8849,space,1,0,15,15,17,1,R,space,0.417,,,,,,,,,,,
,,,,,R_4LnkfUWrKdZKSEl,001,2025-08-25_09h38.24.873,continuous_performance_test,2024.2.4,Win32,60.60606061,216.8875,218.7348,space,1,0,16,16,10,1,K,space,0.442,,,,,,,,,,,
,,,,,R_4LnkfUWrKdZKSEl,001,2025-08-25_09h38.24.873,continuous_performance_test,2024.2.4,Win32,60.60606061,218.7376,220.6234,,1,0,17,17,26,1,X,,,,,,,,,,,,,
,,,,,R_4LnkfUWrKdZKSEl,001,2025-08-25_09h38.24.873,continuous_performance_test,2024.2.4,Win32,60.60606061,220.6249,222.3683,space,1,0,18,18,7,1,H,space,0.3082,,,,,,,,,,,
,,,,,R_4LnkfUWrKdZKSEl,001,2025-08-25_09h38.24.873,continuous_performance_test,2024.2.4,Win32,60.60606061,222.3711,224.3217,,1,0,19,19,28,1,X,,,,,,,,,,,,,
,,,,,R_4LnkfUWrKdZKSEl,001,2025-08-25_09h38.24.873,continuous_performance_test,2024.2.4,Win32,60.60606061,224.3234,226.3189,space,1,0,20,20,22,1,W,space,0.554,,,,,,,,,,,
,,,,,R_4LnkfUWrKdZKSEl,001,2025-08-25_09h38.24.873,continuous_performance_test,2024.2.4,Win32,60.60606061,226.3206,228.2182,space,1,0,21,21,21,1,V,space,0.4033,,,,,,,,,,,
,,,,,R_4LnkfUWrKdZKSEl,001,2025-08-25_09h38.24.873,continuous_performance_test,2024.2.4,Win32,60.60606061,228.2204,230.0191,space,1,0,22,22,19,1,T,space,0.339,,,,,,,,,,,
,,,,,R_4LnkfUWrKdZKSEl,001,2025-08-25_09h38.24.873,continuous_performance_test,2024.2.4,Win32,60.60606061,230.0214,231.9228,space,1,0,23,23,5,1,F,space,0.378,,,,,,,,,,,
,,,,,R_4LnkfUWrKdZKSEl,001,2025-08-25_09h38.24.873,continuous_performance_test,2024.2.4,Win32,60.60606061,231.9243,233.9183,,1,0,24,24,29,1,X,,,,,,,,,,,,,
,,,,,R_4LnkfUWrKdZKSEl,001,2025-08-25_09h38.24.873,continuous_performance_test,2024.2.4,Win32,60.60606061,233.9209,235.8183,space,1,0,25,25,20,1,U,space,0.3535,,,,,,,,,,,
,,,,,R_4LnkfUWrKdZKSEl,001,2025-08-25_09h38.24.873,continuous_performance_test,2024.2.4,Win32,60.60606061,235.8216,237.8182,space,1,0,26,26,15,1,P,space,0.3365,,,,,,,,,,,
,,,,,R_4LnkfUWrKdZKSEl,001,2025-08-25_09h38.24.873,continuous_performance_test,2024.2.4,Win32,60.60606061,237.8197,239.3682,space,1,0,27,27,14,1,O,space,0.4581,,,,,,,,,,,
,,,,,R_4LnkfUWrKdZKSEl,001,2025-08-25_09h38.24.873,continuous_performance_test,2024.2.4,Win32,60.60606061,239.3704,241.1186,space,1,0,28,28,23,1,Y,space,0.354,,,,,,,,,,,
,,,,,R_4LnkfUWrKdZKSEl,001,2025-08-25_09h38.24.873,continuous_performance_test,2024.2.4,Win32,60.60606061,241.1222,242.8678,space,1,0,29,29,16,1,Q,space,0.4018,,,,,,,,,,,
,,,,,R_4LnkfUWrKdZKSEl,001,2025-08-25_09h38.24.873,continuous_performance_test,2024.2.4,Win32,60.60606061,244.6613,246.506,space,1,0,0,0,1,1,B,space,0.3499,,242.8695,244.6516,space,1.7553,,,,,,
,,,,,R_4LnkfUWrKdZKSEl,001,2025-08-25_09h38.24.873,continuous_performance_test,2024.2.4,Win32,60.60606061,246.5077,248.1022,space,1,0,1,1,17,1,R,space,0.442,,,,,,,,,,,
,,,,,R_4LnkfUWrKdZKSEl,001,2025-08-25_09h38.24.873,continuous_performance_test,2024.2.4,Win32,60.60606061,248.1043,249.9512,,1,0,2,2,26,1,X,,,,,,,,,,,,,
,,,,,R_4LnkfUWrKdZKSEl,001,2025-08-25_09h38.24.873,continuous_performance_test,2024.2.4,Win32,60.60606061,249.9552,251.7019,space,1,0,3,3,8,1,I,space,0.4073,,,,,,,,,,,
,,,,,R_4LnkfUWrKdZKSEl,001,2025-08-25_09h38.24.873,continuous_performance_test,2024.2.4,Win32,60.60606061,251.7043,253.3514,,1,0,4,4,29,1,X,,,,,,,,,,,,,
,,,,,R_4LnkfUWrKdZKSEl,001,2025-08-25_09h38.24.873,continuous_performance_test,2024.2.4,Win32,60.60606061,253.3541,255.3514,space,1,0,5,5,2,1,C,space,0.3235,,,,,,,,,,,
,,,,,R_4LnkfUWrKdZKSEl,001,2025-08-25_09h38.24.873,continuous_performance_test,2024.2.4,Win32,60.60606061,255.3543,257.056,space,1,0,6,6,3,1,D,space,0.3813,,,,,,,,,,,
,,,,,R_4LnkfUWrKdZKSEl,001,2025-08-25_09h38.24.873,continuous_performance_test,2024.2.4,Win32,60.60606061,257.0566,258.951,space,1,0,7,7,20,1,U,space,0.3989,,,,,,,,,,,
,,,,,R_4LnkfUWrKdZKSEl,001,2025-08-25_09h38.24.873,continuous_performance_test,2024.2.4,Win32,60.60606061,258.9546,260.8064,space,1,0,8,8,9,1,J,space,0.353,,,,,,,,,,,
,,,,,R_4LnkfUWrKdZKSEl,001,2025-08-25_09h38.24.873,continuous_performance_test,2024.2.4,Win32,60.60606061,260.8082,262.4011,space,1,0,9,9,7,1,H,space,0.3759,,,,,,,,,,,
,,,,,R_4LnkfUWrKdZKSEl,001,2025-08-25_09h38.24.873,continuous_performance_test,2024.2.4,Win32,60.60606061,262.4029,264.0511,space,1,0,10,10,18,1,S,space,0.366,,,,,,,,,,,
,,,,,R_4LnkfUWrKdZKSEl,001,2025-08-25_09h38.24.873,continuous_performance_test,2024.2.4,Win32,60.60606061,264.0529,265.5898,space,1,0,11,11,6,1,G,space,0.2952,,,,,,,,,,,
,,,,,R_4LnkfUWrKdZKSEl,001,2025-08-25_09h38.24.873,continuous_performance_test,2024.2.4,Win32,60.60606061,265.5914,267.2874,space,1,0,12,12,19,1,T,space,0.2991,,,,,,,,,,,
,,,,,R_4LnkfUWrKdZKSEl,001,2025-08-25_09h38.24.873,continuous_performance_test,2024.2.4,Win32,60.60606061,267.2882,269.1357,space,1,0,13,13,10,1,K,space,0.3046,,,,,,,,,,,
,,,,,R_4LnkfUWrKdZKSEl,001,2025-08-25_09h38.24.873,continuous_performance_test,2024.2.4,Win32,60.60606061,269.1372,270.8348,space,1,0,14,14,13,1,N,space,0.2862,,,,,,,,,,,
,,,,,R_4LnkfUWrKdZKSEl,001,2025-08-25_09h38.24.873,continuous_performance_test,2024.2.4,Win32,60.60606061,270.8377,272.3858,,1,0,15,15,27,1,X,,,,,,,,,,,,,
,,,,,R_4LnkfUWrKdZKSEl,001,2025-08-25_09h38.24.873,continuous_performance_test,2024.2.4,Win32,60.60606061,272.3878,274.0853,space,1,0,16,16,11,1,L,space,0.3694,,,,,,,,,,,
,,,,,R_4LnkfUWrKdZKSEl,001,2025-08-25_09h38.24.873,continuous_performance_test,2024.2.4,Win32,60.60606061,274.088,275.7846,space,1,0,17,17,23,1,Y,space,0.4889,,,,,,,,,,,
,,,,,R_4LnkfUWrKdZKSEl,001,2025-08-25_09h38.24.873,continuous_performance_test,2024.2.4,Win32,60.60606061,275.7867,277.6345,,1,0,18,18,28,1,X,,,,,,,,,,,,,
,,,,,R_4LnkfUWrKdZKSEl,001,2025-08-25_09h38.24.873,continuous_performance_test,2024.2.4,Win32,60.60606061,277.6366,279.4893,space,1,0,19,19,5,1,F,space,0.3865,,,,,,,,,,,
,,,,,R_4LnkfUWrKdZKSEl,001,2025-08-25_09h38.24.873,continuous_performance_test,2024.2.4,Win32,60.60606061,279.4908,281.1352,space,1,0,20,20,22,1,W,space,0.4664,,,,,,,,,,,
,,,,,R_4LnkfUWrKdZKSEl,001,2025-08-25_09h38.24.873,continuous_performance_test,2024.2.4,Win32,60.60606061,281.1378,283.1373,space,1,0,21,21,0,1,A,space,0.3011,,,,,,,,,,,
,,,,,R_4LnkfUWrKdZKSEl,001,2025-08-25_09h38.24.873,continuous_performance_test,2024.2.4,Win32,60.60606061,283.1385,284.9345,space,1,0,22,22,21,1,V,space,0.3081,,,,,,,,,,,
,,,,,R_4LnkfUWrKdZKSEl,001,2025-08-25_09h38.24.873,continuous_performance_test,2024.2.4,Win32,60.60606061,284.9373,286.8846,space,1,0,23,23,4,1,E,space,0.3235,,,,,,,,,,,
,,,,,R_4LnkfUWrKdZKSEl,001,2025-08-25_09h38.24.873,continuous_performance_test,2024.2.4,Win32,60.60606061,286.8877,288.5853,space,1,0,24,24,15,1,P,space,0.3266,,,,,,,,,,,
,,,,,R_4LnkfUWrKdZKSEl,001,2025-08-25_09h38.24.873,continuous_performance_test,2024.2.4,Win32,60.60606061,288.5876,290.5348,space,1,0,25,25,24,1,Z,space,0.3235,,,,,,,,,,,
,,,,,R_4LnkfUWrKdZKSEl,001,2025-08-25_09h38.24.873,continuous_performance_test,2024.2.4,Win32,60.60606061,290.537,292.2847,space,1,0,26,26,12,1,M,space,0.3988,,,,,,,,,,,
,,,,,R_4LnkfUWrKdZKSEl,001,2025-08-25_09h38.24.873,continuous_performance_test,2024.2.4,Win32,60.60606061,292.2874,294.039,space,1,0,27,27,14,1,O,space,0.384,,,,,,,,,,,
,,,,,R_4LnkfUWrKdZKSEl,001,2025-08-25_09h38.24.873,continuous_performance_test,2024.2.4,Win32,60.60606061,294.0408,295.8345,space,1,0,28,28,16,1,Q,space,0.4622,,,,,,,,,,,
,,,,,R_4LnkfUWrKdZKSEl,001,2025-08-25_09h38.24.873,continuous_performance_test,2024.2.4,Win32,60.60606061,295.8373,297.6846,,1,0,29,29,25,1,X,,,,,,,,,,,,,
,,,,,R_4LnkfUWrKdZKSEl,001,2025-08-25_09h38.24.873,continuous_performance_test,2024.2.4,Win32,60.60606061,300.6088,302.2006,space,1,0,0,0,4,1,E,space,0.3508,,297.6874,300.6008,space,2.8874,,,,,,
,,,,,R_4LnkfUWrKdZKSEl,001,2025-08-25_09h38.24.873,continuous_performance_test,2024.2.4,Win32,60.60606061,302.2034,303.7512,space,0,0,1,1,26,1,X,,0.3279,,,,,,,,,,,
,,,,,R_4LnkfUWrKdZKSEl,001,2025-08-25_09h38.24.873,continuous_performance_test,2024.2.4,Win32,60.60606061,303.7533,305.6012,space,1,0,2,2,9,1,J,space,0.4135,,,,,,,,,,,
,,,,,R_4LnkfUWrKdZKSEl,001,2025-08-25_09h38.24.873,continuous_performance_test,2024.2.4,Win32,60.60606061,305.6034,307.5507,space,1,0,3,3,3,1,D,space,0.3657,,,,,,,,,,,
,,,,,R_4LnkfUWrKdZKSEl,001,2025-08-25_09h38.24.873,continuous_performance_test,2024.2.4,Win32,60.60606061,307.5524,309.2561,space,1,0,4,4,22,1,W,space,0.3311,,,,,,,,,,,
,,,,,R_4LnkfUWrKdZKSEl,001,2025-08-25_09h38.24.873,continuous_performance_test,2024.2.4,Win32,60.60606061,309.2575,310.8014,space,1,0,5,5,1,1,B,space,0.3593,,,,,,,,,,,
,,,,,R_4LnkfUWrKdZKSEl,001,2025-08-25_09h38.24.873,continuous_performance_test,2024.2.4,Win32,60.60606061,310.8046,312.6558,space,1,0,6,6,18,1,S,space,0.3332,,,,,,,,,,,
,,,,,R_4LnkfUWrKdZKSEl,001,2025-08-25_09h38.24.873,continuous_performance_test,2024.2.4,Win32,60.60606061,312.6574,314.2541,space,1,0,7,7,10,1,K,space,0.4282,,,,,,,,,,,
,,,,,R_4LnkfUWrKdZKSEl,001,2025-08-25_09h38.24.873,continuous_performance_test,2024.2.4,Win32,60.60606061,314.2554,315.8011,space,1,0,8,8,12,1,M,space,0.3757,,,,,,,,,,,
,,,,,R_4LnkfUWrKdZKSEl,001,2025-08-25_09h38.24.873,continuous_performance_test,2024.2.4,Win32,60.60606061,315.8042,317.7005,space,1,0,9,9,8,1,I,space,0.4826,,,,,,,,,,,
,,,,,R_4LnkfUWrKdZKSEl,001,2025-08-25_09h38.24.873,continuous_performance_test,2024.2.4,Win32,60.60606061,317.7025,319.6548,space,1,0,10,10,23,1,Y,space,0.4761,,,,,,,,,,,
,,,,,R_4LnkfUWrKdZKSEl,001,2025-08-25_09h38.24.873,continuous_performance_test,2024.2.4,Win32,60.60606061,319.6566,321.304,space,1,0,11,11,2,1,C,space,0.3838,,,,,,,,,,,
,,,,,R_4LnkfUWrKdZKSEl,001,2025-08-25_09h38.24.873,continuous_performance_test,2024.2.4,Win32,60.60606061,321.3054,322.9022,space,1,0,12,12,7,1,H,space,0.3358,,,,,,,,,,,
,,,,,R_4LnkfUWrKdZKSEl,001,2025-08-25_09h38.24.873,continuous_performance_test,2024.2.4,Win32,60.60606061,322.905,324.7508,space,1,0,13,13,6,1,G,space,0.3436,,,,,,,,,,,
,,,,,R_4LnkfUWrKdZKSEl,001,2025-08-25_09h38.24.873,continuous_performance_test,2024.2.4,Win32,60.60606061,324.7542,326.6507,space,1,0,14,14,17,1,R,space,0.3706,,,,,,,,,,,
,,,,,R_4LnkfUWrKdZKSEl,001,2025-08-25_09h38.24.873,continuous_performance_test,2024.2.4,Win32,60.60606061,326.6525,328.4505,space,1,0,15,15,16,1,Q,space,0.3508,,,,,,,,,,,
,,,,,R_4LnkfUWrKdZKSEl,001,2025-08-25_09h38.24.873,continuous_performance_test,2024.2.4,Win32,60.60606061,328.4529,330.051,,1,0,16,16,27,1,X,,,,,,,,,,,,,
,,,,,R_4LnkfUWrKdZKSEl,001,2025-08-25_09h38.24.873,continuous_performance_test,2024.2.4,Win32,60.60606061,330.0529,332.0512,space,1,0,17,17,20,1,U,space,0.5251,,,,,,,,,,,
,,,,,R_4LnkfUWrKdZKSEl,001,2025-08-25_09h38.24.873,continuous_performance_test,2024.2.4,Win32,60.60606061,332.0535,333.6014,space,1,0,18,18,0,1,A,space,0.3391,,,,,,,,,,,
,,,,,R_4LnkfUWrKdZKSEl,001,2025-08-25_09h38.24.873,continuous_performance_test,2024.2.4,Win32,60.60606061,333.6043,335.501,space,0,0,19,19,25,1,X,,0.3699,,,,,,,,,,,
,,,,,R_4LnkfUWrKdZKSEl,001,2025-08-25_09h38.24.873,continuous_performance_test,2024.2.4,Win32,60.60606061,335.5033,337.4006,space,1,0,20,20,14,1,O,space,0.3423,,,,,,,,,,,
,,,,,R_4LnkfUWrKdZKSEl,001,2025-08-25_09h38.24.873,continuous_performance_test,2024.2.4,Win32,60.60606061,337.4023,339.1014,,1,0,21,21,29,1,X,,,,,,,,,,,,,
,,,,,R_4LnkfUWrKdZKSEl,001,2025-08-25_09h38.24.873,continuous_performance_test,2024.2.4,Win32,60.60606061,339.1045,340.9511,space,1,0,22,22,19,1,T,space,0.411,,,,,,,,,,,
,,,,,R_4LnkfUWrKdZKSEl,001,2025-08-25_09h38.24.873,continuous_performance_test,2024.2.4,Win32,60.60606061,340.9536,342.5012,space,1,0,23,23,13,1,N,space,0.4155,,,,,,,,,,,
,,,,,R_4LnkfUWrKdZKSEl,001,2025-08-25_09h38.24.873,continuous_performance_test,2024.2.4,Win32,60.60606061,342.5041,344.101,space,1,0,24,24,15,1,P,space,0.401,,,,,,,,,,,
,,,,,R_4LnkfUWrKdZKSEl,001,2025-08-25_09h38.24.873,continuous_performance_test,2024.2.4,Win32,60.60606061,344.1035,345.851,space,1,0,25,25,24,1,Z,space,0.7244,,,,,,,,,,,
,,,,,R_4LnkfUWrKdZKSEl,001,2025-08-25_09h38.24.873,continuous_performance_test,2024.2.4,Win32,60.60606061,345.8533,347.5512,space,1,0,26,26,5,1,F,space,0.3649,,,,,,,,,,,
,,,,,R_4LnkfUWrKdZKSEl,001,2025-08-25_09h38.24.873,continuous_performance_test,2024.2.4,Win32,60.60606061,347.5533,349.4009,space,1,0,27,27,11,1,L,space,0.4157,,,,,,,,,,,
,,,,,R_4LnkfUWrKdZKSEl,001,2025-08-25_09h38.24.873,continuous_performance_test,2024.2.4,Win32,60.60606061,349.4037,351.1508,,1,0,28,28,28,1,X,,,,,,,,,,,,,
,,,,,R_4LnkfUWrKdZKSEl,001,2025-08-25_09h38.24.873,continuous_performance_test,2024.2.4,Win32,60.60606061,351.1534,352.8503,space,1,0,29,29,21,1,V,space,0.4746,,,,,,,,,,,
,,,,,R_4LnkfUWrKdZKSEl,001,2025-08-25_09h38.24.873,continuous_performance_test,2024.2.4,Win32,60.60606061,354.0428,355.9847,space,1,0,0,0,10,1,K,space,0.3082,,352.8519,354.0343,space,1.1633,,,,,,
,,,,,R_4LnkfUWrKdZKSEl,001,2025-08-25_09h38.24.873,continuous_performance_test,2024.2.4,Win32,60.60606061,355.9875,357.9842,space,1,0,1,1,17,1,R,space,0.4489,,,,,,,,,,,
,,,,,R_4LnkfUWrKdZKSEl,001,2025-08-25_09h38.24.873,continuous_performance_test,2024.2.4,Win32,60.60606061,357.9869,359.7335,space,1,0,2,2,20,1,U,space,0.32,,,,,,,,,,,
,,,,,R_4LnkfUWrKdZKSEl,001,2025-08-25_09h38.24.873,continuous_performance_test,2024.2.4,Win32,60.60606061,359.7341,361.5849,space,1,0,3,3,1,1,B,space,0.4934,,,,,,,,,,,
,,,,,R_4LnkfUWrKdZKSEl,001,2025-08-25_09h38.24.873,continuous_performance_test,2024.2.4,Win32,60.60606061,361.5867,363.5841,space,0,0,4,4,25,1,X,,0.3161,,,,,,,,,,,
,,,,,R_4LnkfUWrKdZKSEl,001,2025-08-25_09h38.24.873,continuous_performance_test,2024.2.4,Win32,60.60606061,363.5871,365.2339,space,1,0,5,5,22,1,W,space,0.2814,,,,,,,,,,,
,,,,,R_4LnkfUWrKdZKSEl,001,2025-08-25_09h38.24.873,continuous_performance_test,2024.2.4,Win32,60.60606061,365.2347,366.9837,space,1,0,6,6,18,1,S,space,0.3479,,,,,,,,,,,
,,,,,R_4LnkfUWrKdZKSEl,001,2025-08-25_09h38.24.873,continuous_performance_test,2024.2.4,Win32,60.60606061,366.9852,368.7341,space,1,0,7,7,2,1,C,space,0.3509,,,,,,,,,,,
,,,,,R_4LnkfUWrKdZKSEl,001,2025-08-25_09h38.24.873,continuous_performance_test,2024.2.4,Win32,60.60606061,368.7357,370.5835,space,1,0,8,8,16,1,Q,space,0.3633,,,,,,,,,,,
,,,,,R_4LnkfUWrKdZKSEl,001,2025-08-25_09h38.24.873,continuous_performance_test,2024.2.4,Win32,60.60606061,370.5844,372.5841,space,1,0,9,9,14,1,O,space,0.3654,,,,,,,,,,,
,,,,,R_4LnkfUWrKdZKSEl,001,2025-08-25_09h38.24.873,continuous_performance_test,2024.2.4,Win32,60.60606061,372.5866,374.5857,space,1,0,10,10,15,1,P,space,0.3327,,,,,,,,,,,
,,,,,R_4LnkfUWrKdZKSEl,001,2025-08-25_09h38.24.873,continuous_performance_test,2024.2.4,Win32,60.60606061,374.5875,376.5349,space,1,0,11,11,0,1,A,space,0.3819,,,,,,,,,,,
,,,,,R_4LnkfUWrKdZKSEl,001,2025-08-25_09h38.24.873,continuous_performance_test,2024.2.4,Win32,60.60606061,376.5367,378.284,space,1,0,12,12,12,1,M,space,0.4001,,,,,,,,,,,
,,,,,R_4LnkfUWrKdZKSEl,001,2025-08-25_09h38.24.873,continuous_performance_test,2024.2.4,Win32,60.60606061,378.2871,379.9835,,1,0,13,13,26,1,X,,,,,,,,,,,,,
,,,,,R_4LnkfUWrKdZKSEl,001,2025-08-25_09h38.24.873,continuous_performance_test,2024.2.4,Win32,60.60606061,379.9846,381.784,,1,0,14,14,27,1,X,,,,,,,,,,,,,
,,,,,R_4LnkfUWrKdZKSEl,001,2025-08-25_09h38.24.873,continuous_performance_test,2024.2.4,Win32,60.60606061,381.7862,383.7347,space,1,0,15,15,13,1,N,space,0.4141,,,,,,,,,,,
,,,,,R_4LnkfUWrKdZKSEl,001,2025-08-25_09h38.24.873,continuous_performance_test,2024.2.4,Win32,60.60606061,383.7371,385.4341,space,1,0,16,16,7,1,H,space,0.347,,,,,,,,,,,
,,,,,R_4LnkfUWrKdZKSEl,001,2025-08-25_09h38.24.873,continuous_performance_test,2024.2.4,Win32,60.60606061,385.437,387.4334,space,1,0,17,17,19,1,T,space,0.4512,,,,,,,,,,,
,,,,,R_4LnkfUWrKdZKSEl,001,2025-08-25_09h38.24.873,continuous_performance_test,2024.2.4,Win32,60.60606061,387.4341,389.034,space,1,0,18,18,24,1,Z,space,0.4354,,,,,,,,,,,
,,,,,R_4LnkfUWrKdZKSEl,001,2025-08-25_09h38.24.873,continuous_performance_test,2024.2.4,Win32,60.60606061,389.0365,390.9836,space,1,0,19,19,6,1,G,space,0.4065,,,,,,,,,,,
,,,,,R_4LnkfUWrKdZKSEl,001,2025-08-25_09h38.24.873,continuous_performance_test,2024.2.4,Win32,60.60606061,390.9854,392.8344,space,1,0,20,20,11,1,L,space,0.3943,,,,,,,,,,,
,,,,,R_4LnkfUWrKdZKSEl,001,2025-08-25_09h38.24.873,continuous_performance_test,2024.2.4,Win32,60.60606061,392.8366,394.6343,space,1,0,21,21,4,1,E,space,0.4018,,,,,,,,,,,
,,,,,R_4LnkfUWrKdZKSEl,001,2025-08-25_09h38.24.873,continuous_performance_test,2024.2.4,Win32,60.60606061,394.6365,396.3343,space,1,0,22,22,21,1,V,space,0.3915,,,,,,,,,,,
,,,,,R_4LnkfUWrKdZKSEl,001,2025-08-25_09h38.24.873,continuous_performance_test,2024.2.4,Win32,60.60606061,396.3366,397.9838,,1,0,23,23,29,1,X,,,,,,,,,,,,,
,,,,,R_4LnkfUWrKdZKSEl,001,2025-08-25_09h38.24.873,continuous_performance_test,2024.2.4,Win32,60.60606061,397.9867,399.984,space,1,0,24,24,3,1,D,space,0.3981,,,,,,,,,,,
,,,,,R_4LnkfUWrKdZKSEl,001,2025-08-25_09h38.24.873,continuous_performance_test,2024.2.4,Win32,60.60606061,399.9863,401.584,space,1,0,25,25,9,1,J,space,0.3324,,,,,,,,,,,
,,,,,R_4LnkfUWrKdZKSEl,001,2025-08-25_09h38.24.873,continuous_performance_test,2024.2.4,Win32,60.60606061,401.5869,403.3336,space,0,0,26,26,28,1,X,,0.3498,,,,,,,,,,,
,,,,,R_4LnkfUWrKdZKSEl,001,2025-08-25_09h38.24.873,continuous_performance_test,2024.2.4,Win32,60.60606061,403.3353,405.135,space,1,0,27,27,8,1,I,space,0.3012,,,,,,,,,,,
,,,,,R_4LnkfUWrKdZKSEl,001,2025-08-25_09h38.24.873,continuous_performance_test,2024.2.4,Win32,60.60606061,405.1372,406.8839,space,1,0,28,28,5,1,F,space,0.3682,,,,,,,,,,,
,,,,,R_4LnkfUWrKdZKSEl,001,2025-08-25_09h38.24.873,continuous_performance_test,2024.2.4,Win32,60.60606061,406.8861,408.4836,space,1,0,29,29,23,1,Y,space,0.3845,,,,,,,,,,,
,,,,,R_4LnkfUWrKdZKSEl,001,2025-08-25_09h38.24.873,continuous_performance_test,2024.2.4,Win32,60.60606061,412.5431,414.4337,,1,0,0,0,28,1,X,,,,408.4859,412.5355,space,4.0293,,,,,,
,,,,,R_4LnkfUWrKdZKSEl,001,2025-08-25_09h38.24.873,continuous_performance_test,2024.2.4,Win32,60.60606061,414.4353,416.384,space,1,0,1,1,7,1,H,space,0.3847,,,,,,,,,,,
,,,,,R_4LnkfUWrKdZKSEl,001,2025-08-25_09h38.24.873,continuous_performance_test,2024.2.4,Win32,60.60606061,416.386,418.384,space,1,0,2,2,1,1,B,space,0.3333,,,,,,,,,,,
,,,,,R_4LnkfUWrKdZKSEl,001,2025-08-25_09h38.24.873,continuous_performance_test,2024.2.4,Win32,60.60606061,418.3871,420.234,space,1,0,3,3,23,1,Y,space,0.3318,,,,,,,,,,,
,,,,,R_4LnkfUWrKdZKSEl,001,2025-08-25_09h38.24.873,continuous_performance_test,2024.2.4,Win32,60.60606061,420.2363,421.9341,space,1,0,4,4,21,1,V,space,0.3307,,,,,,,,,,,
,,,,,R_4LnkfUWrKdZKSEl,001,2025-08-25_09h38.24.873,continuous_performance_test,2024.2.4,Win32,60.60606061,421.9365,423.6838,space,1,0,5,5,5,1,F,space,0.3669,,,,,,,,,,,
,,,,,R_4LnkfUWrKdZKSEl,001,2025-08-25_09h38.24.873,continuous_performance_test,2024.2.4,Win32,60.60606061,423.6866,425.4343,space,1,0,6,6,22,1,W,space,0.3713,,,,,,,,,,,
,,,,,R_4LnkfUWrKdZKSEl,001,2025-08-25_09h38.24.873,continuous_performance_test,2024.2.4,Win32,60.60606061,425.437,427.284,space,1,0,7,7,11,1,L,space,0.3379,,,,,,,,,,,
,,,,,R_4LnkfUWrKdZKSEl,001,2025-08-25_09h38.24.873,continuous_performance_test,2024.2.4,Win32,60.60606061,427.2866,428.9834,space,1,0,8,8,4,1,E,space,0.3429,,,,,,,,,,,
,,,,,R_4LnkfUWrKdZKSEl,001,2025-08-25_09h38.24.873,continuous_performance_test,2024.2.4,Win32,60.60606061,428.9848,430.7341,space,1,0,9,9,12,1,M,space,0.3491,,,,,,,,,,,
,,,,,R_4LnkfUWrKdZKSEl,001,2025-08-25_09h38.24.873,continuous_performance_test,2024.2.4,Win32,60.60606061,430.7368,432.5841,,1,0,10,10,26,1,X,,,,,,,,,,,,,
,,,,,R_4LnkfUWrKdZKSEl,001,2025-08-25_09h38.24.873,continuous_performance_test,2024.2.4,Win32,60.60606061,432.5862,434.1339,space,1,0,11,11,24,1,Z,space,0.4377,,,,,,,,,,,
,,,,,R_4LnkfUWrKdZKSEl,001,2025-08-25_09h38.24.873,continuous_performance_test,2024.2.4,Win32,60.60606061,434.1363,436.0338,,1,0,12,12,25,1,X,,,,,,,,,,,,,
,,,,,R_4LnkfUWrKdZKSEl,001,2025-08-25_09h38.24.873,continuous_performance_test,2024.2.4,Win32,60.60606061,436.0363,437.9839,space,1,0,13,13,15,1,P,space,0.5217,,,,,,,,,,,
,,,,,R_4LnkfUWrKdZKSEl,001,2025-08-25_09h38.24.873,continuous_performance_test,2024.2.4,Win32,60.60606061,437.9867,439.5839,space,1,0,14,14,6,1,G,space,0.3503,,,,,,,,,,,
,,,,,R_4LnkfUWrKdZKSEl,001,2025-08-25_09h38.24.873,continuous_performance_test,2024.2.4,Win32,60.60606061,439.5863,441.4839,,1,0,15,15,27,1,X,,,,,,,,,,,,,
,,,,,R_4LnkfUWrKdZKSEl,001,2025-08-25_09h38.24.873,continuous_performance_test,2024.2.4,Win32,60.60606061,441.486,443.4884,space,1,0,16,16,17,1,R,space,0.4642,,,,,,,,,,,
,,,,,R_4LnkfUWrKdZKSEl,001,2025-08-25_09h38.24.873,continuous_performance_test,2024.2.4,Win32,60.60606061,443.4894,445.088,space,1,0,17,17,19,1,T,space,0.4734,,,,,,,,,,,
,,,,,R_4LnkfUWrKdZKSEl,001,2025-08-25_09h38.24.873,continuous_performance_test,2024.2.4,Win32,60.60606061,445.0885,446.986,space,1,0,18,18,8,1,I,space,0.3738,,,,,,,,,,,
,,,,,R_4LnkfUWrKdZKSEl,001,2025-08-25_09h38.24.873,continuous_performance_test,2024.2.4,Win32,60.60606061,446.9866,448.6838,space,1,0,19,19,16,1,Q,space,0.4101,,,,,,,,,,,
,,,,,R_4LnkfUWrKdZKSEl,001,2025-08-25_09h38.24.873,continuous_performance_test,2024.2.4,Win32,60.60606061,448.6862,450.2338,space,1,0,20,20,14,1,O,space,0.4173,,,,,,,,,,,
,,,,,R_4LnkfUWrKdZKSEl,001,2025-08-25_09h38.24.873,continuous_performance_test,2024.2.4,Win32,60.60606061,450.2366,451.7845,,1,0,21,21,29,1,X,,,,,,,,,,,,,
,,,,,R_4LnkfUWrKdZKSEl,001,2025-08-25_09h38.24.873,continuous_performance_test,2024.2.4,Win32,60.60606061,451.7853,453.3341,space,1,0,22,22,9,1,J,space,0.3767,,,,,,,,,,,
,,,,,R_4LnkfUWrKdZKSEl,001,2025-08-25_09h38.24.873,continuous_performance_test,2024.2.4,Win32,60.60606061,453.336,454.9844,space,1,0,23,23,10,1,K,space,0.4379,,,,,,,,,,,
,,,,,R_4LnkfUWrKdZKSEl,001,2025-08-25_09h38.24.873,continuous_performance_test,2024.2.4,Win32,60.60606061,454.986,456.9882,space,1,0,24,24,18,1,S,space,0.4801,,,,,,,,,,,
,,,,,R_4LnkfUWrKdZKSEl,001,2025-08-25_09h38.24.873,continuous_performance_test,2024.2.4,Win32,60.60606061,456.9891,458.9831,space,1,0,25,25,3,1,D,space,0.3745,,,,,,,,,,,
,,,,,R_4LnkfUWrKdZKSEl,001,2025-08-25_09h38.24.873,continuous_performance_test,2024.2.4,Win32,60.60606061,458.9849,460.584,space,1,0,26,26,13,1,N,space,0.327,,,,,,,,,,,
,,,,,R_4LnkfUWrKdZKSEl,001,2025-08-25_09h38.24.873,continuous_performance_test,2024.2.4,Win32,60.60606061,460.5854,462.5837,space,1,0,27,27,2,1,C,space,0.4846,,,,,,,,,,,
,,,,,R_4LnkfUWrKdZKSEl,001,2025-08-25_09h38.24.873,continuous_performance_test,2024.2.4,Win32,60.60606061,462.5859,464.5339,space,1,0,28,28,20,1,U,space,0.3341,,,,,,,,,,,
,,,,,R_4LnkfUWrKdZKSEl,001,2025-08-25_09h38.24.873,continuous_performance_test,2024.2.4,Win32,60.60606061,464.5361,466.3365,space,1,0,29,29,0,1,A,space,0.3166,,,,,,,,,,,
,,,,,R_4LnkfUWrKdZKSEl,001,2025-08-25_09h38.24.873,continuous_performance_test,2024.2.4,Win32,60.60606061,469.0909,471.0385,space,1,0,0,0,17,1,R,space,0.3552,,466.3377,469.0884,space,2.7331,,,,,,
,,,,,R_4LnkfUWrKdZKSEl,001,2025-08-25_09h38.24.873,continuous_performance_test,2024.2.4,Win32,60.60606061,471.0405,472.6377,space,1,0,1,1,20,1,U,space,0.3539,,,,,,,,,,,
,,,,,R_4LnkfUWrKdZKSEl,001,2025-08-25_09h38.24.873,continuous_performance_test,2024.2.4,Win32,60.60606061,472.6394,474.4349,space,1,0,2,2,7,1,H,space,0.322,,,,,,,,,,,
,,,,,R_4LnkfUWrKdZKSEl,001,2025-08-25_09h38.24.873,continuous_performance_test,2024.2.4,Win32,60.60606061,474.4374,476.3837,,1,0,3,3,28,1,X,,,,,,,,,,,,,
,,,,,R_4LnkfUWrKdZKSEl,001,2025-08-25_09h38.24.873,continuous_performance_test,2024.2.4,Win32,60.60606061,476.3867,478.1837,,1,0,4,4,27,1,X,,,,,,,,,,,,,
,,,,,R_4LnkfUWrKdZKSEl,001,2025-08-25_09h38.24.873,continuous_performance_test,2024.2.4,Win32,60.60606061,478.1866,479.7886,space,1,0,5,5,4,1,E,space,0.368,,,,,,,,,,,
,,,,,R_4LnkfUWrKdZKSEl,001,2025-08-25_09h38.24.873,continuous_performance_test,2024.2.4,Win32,60.60606061,479.7903,481.3336,space,1,0,6,6,0,1,A,space,0.5047,,,,,,,,,,,
,,,,,R_4LnkfUWrKdZKSEl,001,2025-08-25_09h38.24.873,continuous_performance_test,2024.2.4,Win32,60.60606061,481.3365,483.0343,space,1,0,7,7,3,1,D,space,0.2993,,,,,,,,,,,
,,,,,R_4LnkfUWrKdZKSEl,001,2025-08-25_09h38.24.873,continuous_performance_test,2024.2.4,Win32,60.60606061,483.037,485.0339,space,1,0,8,8,22,1,W,space,0.3565,,,,,,,,,,,
,,,,,R_4LnkfUWrKdZKSEl,001,2025-08-25_09h38.24.873,continuous_performance_test,2024.2.4,Win32,60.60606061,485.037,486.6381,space,1,0,9,9,12,1,M,space,0.3695,,,,,,,,,,,
,,,,,R_4LnkfUWrKdZKSEl,001,2025-08-25_09h38.24.873,continuous_performance_test,2024.2.4,Win32,60.60606061,486.6397,488.3835,space,1,0,10,10,6,1,G,space,0.3336,,,,,,,,,,,
,,,,,R_4LnkfUWrKdZKSEl,001,2025-08-25_09h38.24.873,continuous_performance_test,2024.2.4,Win32,60.60606061,488.3865,490.0835,space,1,0,11,11,23,1,Y,space,0.3318,,,,,,,,,,,
,,,,,R_4LnkfUWrKdZKSEl,001,2025-08-25_09h38.24.873,continuous_performance_test,2024.2.4,Win32,60.60606061,490.0858,491.7336,space,1,0,12,12,14,1,O,space,0.3323,,,,,,,,,,,
,,,,,R_4LnkfUWrKdZKSEl,001,2025-08-25_09h38.24.873,continuous_performance_test,2024.2.4,Win32,60.60606061,491.7357,493.3341,space,1,0,13,13,13,1,N,space,0.2554,,,,,,,,,,,
,,,,,R_4LnkfUWrKdZKSEl,001,2025-08-25_09h38.24.873,continuous_performance_test,2024.2.4,Win32,60.60606061,493.3358,495.0837,space,1,0,14,14,8,1,I,space,0.3004,,,,,,,,,,,
,,,,,R_4LnkfUWrKdZKSEl,001,2025-08-25_09h38.24.873,continuous_performance_test,2024.2.4,Win32,60.60606061,495.087,496.9882,space,0,0,15,15,29,1,X,,0.3031,,,,,,,,,,,
,,,,,R_4LnkfUWrKdZKSEl,001,2025-08-25_09h38.24.873,continuous_performance_test,2024.2.4,Win32,60.60606061,496.9896,498.7376,space,1,0,16,16,15,1,P,space,0.3769,,,,,,,,,,,
,,,,,R_4LnkfUWrKdZKSEl,001,2025-08-25_09h38.24.873,continuous_performance_test,2024.2.4,Win32,60.60606061,498.7395,500.3339,space,1,0,17,17,10,1,K,space,0.4254,,,,,,,,,,,
,,,,,R_4LnkfUWrKdZKSEl,001,2025-08-25_09h38.24.873,continuous_performance_test,2024.2.4,Win32,60.60606061,500.3371,502.3331,space,1,0,18,18,19,1,T,space,0.4499,,,,,,,,,,,
,,,,,R_4LnkfUWrKdZKSEl,001,2025-08-25_09h38.24.873,continuous_performance_test,2024.2.4,Win32,60.60606061,502.3352,504.2223,space,1,0,19,19,11,1,L,space,0.3516,,,,,,,,,,,
,,,,,R_4LnkfUWrKdZKSEl,001,2025-08-25_09h38.24.873,continuous_performance_test,2024.2.4,Win32,60.60606061,504.2241,505.7668,space,1,0,20,20,1,1,B,space,0.3751,,,,,,,,,,,
,,,,,R_4LnkfUWrKdZKSEl,001,2025-08-25_09h38.24.873,continuous_performance_test,2024.2.4,Win32,60.60606061,505.7691,507.5714,space,1,0,21,21,21,1,V,space,0.4335,,,,,,,,,,,
,,,,,R_4LnkfUWrKdZKSEl,001,2025-08-25_09h38.24.873,continuous_performance_test,2024.2.4,Win32,60.60606061,507.5723,509.217,,1,0,22,22,26,1,X,,,,,,,,,,,,,
,,,,,R_4LnkfUWrKdZKSEl,001,2025-08-25_09h38.24.873,continuous_performance_test,2024.2.4,Win32,60.60606061,509.219,511.167,space,1,0,23,23,16,1,Q,space,0.3676,,,,,,,,,,,
,,,,,R_4LnkfUWrKdZKSEl,001,2025-08-25_09h38.24.873,continuous_performance_test,2024.2.4,Win32,60.60606061,511.1686,512.8673,space,1,0,24,24,9,1,J,space,0.4123,,,,,,,,,,,
,,,,,R_4LnkfUWrKdZKSEl,001,2025-08-25_09h38.24.873,continuous_performance_test,2024.2.4,Win32,60.60606061,512.8703,514.42,space,1,0,25,25,24,1,Z,space,0.3225,,,,,,,,,,,
,,,,,R_4LnkfUWrKdZKSEl,001,2025-08-25_09h38.24.873,continuous_performance_test,2024.2.4,Win32,60.60606061,514.4211,516.4177,,1,0,26,26,25,1,X,,,,,,,,,,,,,
,,,,,R_4LnkfUWrKdZKSEl,001,2025-08-25_09h38.24.873,continuous_performance_test,2024.2.4,Win32,60.60606061,516.4202,518.2172,space,1,0,27,27,2,1,C,space,0.3388,,,,,,,,,,,
,,,,,R_4LnkfUWrKdZKSEl,001,2025-08-25_09h38.24.873,continuous_performance_test,2024.2.4,Win32,60.60606061,518.2199,520.2169,space,1,0,28,28,18,1,S,space,0.3508,,,,,,,,,,,
,,,,,R_4LnkfUWrKdZKSEl,001,2025-08-25_09h38.24.873,continuous_performance_test,2024.2.4,Win32,60.60606061,520.2197,521.8177,space,1,0,29,29,5,1,F,space,0.4177,,,,,,,,,,,
,,,,,R_4LnkfUWrKdZKSEl,001,2025-08-25_09h38.24.873,continuous_performance_test,2024.2.4,Win32,60.60606061,524.2139,525.8012,space,1,0,0,0,24,1,Z,space,0.5317,,521.8209,524.2053,space,2.366,,,,,,
,,,,,R_4LnkfUWrKdZKSEl,001,2025-08-25_09h38.24.873,continuous_performance_test,2024.2.4,Win32,60.60606061,525.8042,527.35,,1,0,1,1,27,1,X,,,,,,,,,,,,,
,,,,,R_4LnkfUWrKdZKSEl,001,2025-08-25_09h38.24.873,continuous_performance_test,2024.2.4,Win32,60.60606061,527.353,528.9548,space,1,0,2,2,1,1,B,space,0.3502,,,,,,,,,,,
,,,,,R_4LnkfUWrKdZKSEl,001,2025-08-25_09h38.24.873,continuous_performance_test,2024.2.4,Win32,60.60606061,528.9564,530.9001,space,1,0,3,3,21,1,V,space,0.3779,,,,,,,,,,,
,,,,,R_4LnkfUWrKdZKSEl,001,2025-08-25_09h38.24.873,continuous_performance_test,2024.2.4,Win32,60.60606061,530.9035,532.8503,space,1,0,4,4,9,1,J,space,0.4923,,,,,,,,,,,
,,,,,R_4LnkfUWrKdZKSEl,001,2025-08-25_09h38.24.873,continuous_performance_test,2024.2.4,Win32,60.60606061,532.8535,534.6507,space,1,0,5,5,3,1,D,space,0.2893,,,,,,,,,,,
,,,,,R_4LnkfUWrKdZKSEl,001,2025-08-25_09h38.24.873,continuous_performance_test,2024.2.4,Win32,60.60606061,534.6536,536.4508,space,1,0,6,6,12,1,M,space,0.3515,,,,,,,,,,,
,,,,,R_4LnkfUWrKdZKSEl,001,2025-08-25_09h38.24.873,continuous_performance_test,2024.2.4,Win32,60.60606061,536.453,538.2552,space,1,0,7,7,5,1,F,space,0.3897,,,,,,,,,,,
,,,,,R_4LnkfUWrKdZKSEl,001,2025-08-25_09h38.24.873,continuous_performance_test,2024.2.4,Win32,60.60606061,538.2568,539.8544,space,1,0,8,8,10,1,K,space,0.4073,,,,,,,,,,,
,,,,,R_4LnkfUWrKdZKSEl,001,2025-08-25_09h38.24.873,continuous_performance_test,2024.2.4,Win32,60.60606061,539.8564,541.6007,space,1,0,9,9,7,1,H,space,0.4007,,,,,,,,,,,
,,,,,R_4LnkfUWrKdZKSEl,001,2025-08-25_09h38.24.873,continuous_performance_test,2024.2.4,Win32,60.60606061,541.6031,543.3503,,1,0,10,10,25,1,X,,,,,,,,,,,,,
,,,,,R_4LnkfUWrKdZKSEl,001,2025-08-25_09h38.24.873,continuous_performance_test,2024.2.4,Win32,60.60606061,543.3539,545.0507,space,1,0,11,11,11,1,L,space,0.3827,,,,,,,,,,,
,,,,,R_4LnkfUWrKdZKSEl,001,2025-08-25_09h38.24.873,continuous_performance_test,2024.2.4,Win32,60.60606061,545.0528,547.0501,space,1,0,12,12,16,1,Q,space,0.3061,,,,,,,,,,,
,,,,,R_4LnkfUWrKdZKSEl,001,2025-08-25_09h38.24.873,continuous_performance_test,2024.2.4,Win32,60.60606061,547.0528,548.8997,space,1,0,13,13,15,1,P,space,0.3627,,,,,,,,,,,
,,,,,R_4LnkfUWrKdZKSEl,001,2025-08-25_09h38.24.873,continuous_performance_test,2024.2.4,Win32,60.60606061,548.9013,550.8497,space,1,0,14,14,22,1,W,space,0.3421,,,,,,,,,,,
,,,,,R_4LnkfUWrKdZKSEl,001,2025-08-25_09h38.24.873,continuous_performance_test,2024.2.4,Win32,60.60606061,550.8528,552.6509,space,1,0,15,15,19,1,T,space,0.3405,,,,,,,,,,,
,,,,,R_4LnkfUWrKdZKSEl,001,2025-08-25_09h38.24.873,continuous_performance_test,2024.2.4,Win32,60.60606061,552.6533,554.4006,space,1,0,16,16,23,1,Y,space,0.3347,,,,,,,,,,,
,,,,,R_4LnkfUWrKdZKSEl,001,2025-08-25_09h38.24.873,continuous_performance_test,2024.2.4,Win32,60.60606061,554.4035,556.0002,space,1,0,17,17,2,1,C,space,0.3864,,,,,,,,,,,
,,,,,R_4LnkfUWrKdZKSEl,001,2025-08-25_09h38.24.873,continuous_performance_test,2024.2.4,Win32,60.60606061,556.0032,558,space,1,0,18,18,4,1,E,space,0.389,,,,,,,,,,,
,,,,,R_4LnkfUWrKdZKSEl,001,2025-08-25_09h38.24.873,continuous_performance_test,2024.2.4,Win32,60.60606061,558.0027,559.7504,space,1,0,19,19,17,1,R,space,0.3769,,,,,,,,,,,
,,,,,R_4LnkfUWrKdZKSEl,001,2025-08-25_09h38.24.873,continuous_performance_test,2024.2.4,Win32,60.60606061,559.7532,561.3505,space,1,0,20,20,0,1,A,space,0.3438,,,,,,,,,,,
,,,,,R_4LnkfUWrKdZKSEl,001,2025-08-25_09h38.24.873,continuous_performance_test,2024.2.4,Win32,60.60606061,561.3535,563.0002,,1,0,21,21,28,1,X,,,,,,,,,,,,,
,,,,,R_4LnkfUWrKdZKSEl,001,2025-08-25_09h38.24.873,continuous_performance_test,2024.2.4,Win32,60.60606061,563.0022,564.9003,space,1,0,22,22,8,1,I,space,0.4118,,,,,,,,,,,
,,,,,R_4LnkfUWrKdZKSEl,001,2025-08-25_09h38.24.873,continuous_performance_test,2024.2.4,Win32,60.60606061,564.9029,566.7555,space,1,0,23,23,20,1,U,space,0.347,,,,,,,,,,,
,,,,,R_4LnkfUWrKdZKSEl,001,2025-08-25_09h38.24.873,continuous_performance_test,2024.2.4,Win32,60.60606061,566.7565,568.4492,space,0,0,24,24,26,1,X,,0.3516,,,,,,,,,,,
,,,,,R_4LnkfUWrKdZKSEl,001,2025-08-25_09h38.24.873,continuous_performance_test,2024.2.4,Win32,60.60606061,568.451,570.4545,space,1,0,25,25,18,1,S,space,0.2921,,,,,,,,,,,
,,,,,R_4LnkfUWrKdZKSEl,001,2025-08-25_09h38.24.873,continuous_performance_test,2024.2.4,Win32,60.60606061,570.456,572.2001,,1,0,26,26,29,1,X,,,,,,,,,,,,,
,,,,,R_4LnkfUWrKdZKSEl,001,2025-08-25_09h38.24.873,continuous_performance_test,2024.2.4,Win32,60.60606061,572.2031,574.0001,space,1,0,27,27,13,1,N,space,0.3586,,,,,,,,,,,
,,,,,R_4LnkfUWrKdZKSEl,001,2025-08-25_09h38.24.873,continuous_performance_test,2024.2.4,Win32,60.60606061,574.0027,575.6551,space,1,0,28,28,6,1,G,space,0.4074,,,,,,,,,,,
,,,,,R_4LnkfUWrKdZKSEl,001,2025-08-25_09h38.24.873,continuous_performance_test,2024.2.4,Win32,60.60606061,575.6567,577.55,space,1,0,29,29,14,1,O,space,0.4836,,,,,,,,,,,
,,,,,R_4LnkfUWrKdZKSEl,001,2025-08-25_09h38.24.873,continuous_performance_test,2024.2.4,Win32,60.60606061,,,,,,,,,,,,,,577.5522,577.5533,,,,577.5541,580.8882,space,3.315,
