Instructions.started,Instructions.stopped,key_resp.keys,key_resp.rt,key_resp.duration,participant,session,date,expName,psychopyVersion,OS,frameRate,realeye-tester-id,realeye-tester-quality_grade,Trial_noX.started,Trial_noX.stopped,response.keys,response.corr,response.rt,response.duration,trials_noX.thisRepN,trials_noX.thisTrialN,trials_noX.thisN,trials_noX.thisIndex,trials_noX.ran,letter,corrAns,BlockBreak.started,BlockBreak.stopped,key_instruct.keys,key_instruct.rt,key_instruct.duration,End_NoX.started,End_NoX.stopped,key_resp_end_noX.keys,key_resp_end_noX.rt,key_resp_end_noX.duration
0.0006,9.083,space,9.0501,,R_4NlWCy4oIukPjaw,001,2025-08-28_12h37.48.038,continuous_performance_test,2024.2.4,Win32,59.52380952,ad340343-3064-4a1f-a16e-218d8e047c8c,4,,,,,,,,,,,,,,,,,,,,,,,
,,,,,R_4NlWCy4oIukPjaw,001,2025-08-28_12h37.48.038,continuous_performance_test,2024.2.4,Win32,59.52380952,ad340343-3064-4a1f-a16e-218d8e047c8c,4,9.1105,10.8994,space,0,0.5659,,0,0,0,28,1,X,,,,,,,,,,,
,,,,,R_4NlWCy4oIukPjaw,001,2025-08-28_12h37.48.038,continuous_performance_test,2024.2.4,Win32,59.52380952,ad340343-3064-4a1f-a16e-218d8e047c8c,4,10.9019,12.8986,space,0,0.3821,,0,1,1,26,1,X,,,,,,,,,,,
,,,,,R_4NlWCy4oIukPjaw,001,2025-08-28_12h37.48.038,continuous_performance_test,2024.2.4,Win32,59.52380952,ad340343-3064-4a1f-a16e-218d8e047c8c,4,12.8994,14.8994,space,1,0.4663,,0,2,2,6,1,G,space,,,,,,,,,,
,,,,,R_4NlWCy4oIukPjaw,001,2025-08-28_12h37.48.038,continuous_performance_test,2024.2.4,Win32,59.52380952,ad340343-3064-4a1f-a16e-218d8e047c8c,4,14.9041,16.8993,space,1,0.5075,,0,3,3,13,1,N,space,,,,,,,,,,
,,,,,R_4NlWCy4oIukPjaw,001,2025-08-28_12h37.48.038,continuous_performance_test,2024.2.4,Win32,59.52380952,ad340343-3064-4a1f-a16e-218d8e047c8c,4,16.9021,18.849,space,0,0.318,,0,4,4,25,1,X,,,,,,,,,,,
,,,,,R_4NlWCy4oIukPjaw,001,2025-08-28_12h37.48.038,continuous_performance_test,2024.2.4,Win32,59.52380952,ad340343-3064-4a1f-a16e-218d8e047c8c,4,18.8506,20.7495,space,1,0.4167,,0,5,5,18,1,S,space,,,,,,,,,,
,,,,,R_4NlWCy4oIukPjaw,001,2025-08-28_12h37.48.038,continuous_performance_test,2024.2.4,Win32,59.52380952,ad340343-3064-4a1f-a16e-218d8e047c8c,4,20.7539,22.4991,space,1,0.3542,,0,6,6,3,1,D,space,,,,,,,,,,
,,,,,R_4NlWCy4oIukPjaw,001,2025-08-28_12h37.48.038,continuous_performance_test,2024.2.4,Win32,59.52380952,ad340343-3064-4a1f-a16e-218d8e047c8c,4,22.5028,24.2494,space,1,0.5562,,0,7,7,14,1,O,space,,,,,,,,,,
,,,,,R_4NlWCy4oIukPjaw,001,2025-08-28_12h37.48.038,continuous_performance_test,2024.2.4,Win32,59.52380952,ad340343-3064-4a1f-a16e-218d8e047c8c,4,24.2528,26.1492,space,1,0.4012,,0,8,8,9,1,J,space,,,,,,,,,,
,,,,,R_4NlWCy4oIukPjaw,001,2025-08-28_12h37.48.038,continuous_performance_test,2024.2.4,Win32,59.52380952,ad340343-3064-4a1f-a16e-218d8e047c8c,4,26.1518,27.8994,space,1,0.379,,0,9,9,12,1,M,space,,,,,,,,,,
,,,,,R_4NlWCy4oIukPjaw,001,2025-08-28_12h37.48.038,continuous_performance_test,2024.2.4,Win32,59.52380952,ad340343-3064-4a1f-a16e-218d8e047c8c,4,27.9024,29.4488,space,1,0.6506,,0,10,10,10,1,K,space,,,,,,,,,,
,,,,,R_4NlWCy4oIukPjaw,001,2025-08-28_12h37.48.038,continuous_performance_test,2024.2.4,Win32,59.52380952,ad340343-3064-4a1f-a16e-218d8e047c8c,4,29.4507,31.3485,space,1,0.4978,,0,11,11,0,1,A,space,,,,,,,,,,
,,,,,R_4NlWCy4oIukPjaw,001,2025-08-28_12h37.48.038,continuous_performance_test,2024.2.4,Win32,59.52380952,ad340343-3064-4a1f-a16e-218d8e047c8c,4,31.3513,33.1979,space,1,0.4321,,0,12,12,8,1,I,space,,,,,,,,,,
,,,,,R_4NlWCy4oIukPjaw,001,2025-08-28_12h37.48.038,continuous_performance_test,2024.2.4,Win32,59.52380952,ad340343-3064-4a1f-a16e-218d8e047c8c,4,33.1988,35.1984,space,1,0.5658,,0,13,13,22,1,W,space,,,,,,,,,,
,,,,,R_4NlWCy4oIukPjaw,001,2025-08-28_12h37.48.038,continuous_performance_test,2024.2.4,Win32,59.52380952,ad340343-3064-4a1f-a16e-218d8e047c8c,4,35.2014,36.7483,space,1,0.5669,,0,14,14,5,1,F,space,,,,,,,,,,
,,,,,R_4NlWCy4oIukPjaw,001,2025-08-28_12h37.48.038,continuous_performance_test,2024.2.4,Win32,59.52380952,ad340343-3064-4a1f-a16e-218d8e047c8c,4,36.7514,38.4479,space,1,0.4471,,0,15,15,11,1,L,space,,,,,,,,,,
,,,,,R_4NlWCy4oIukPjaw,001,2025-08-28_12h37.48.038,continuous_performance_test,2024.2.4,Win32,59.52380952,ad340343-3064-4a1f-a16e-218d8e047c8c,4,38.4497,40.0975,space,1,0.3857,,0,16,16,4,1,E,space,,,,,,,,,,
,,,,,R_4NlWCy4oIukPjaw,001,2025-08-28_12h37.48.038,continuous_performance_test,2024.2.4,Win32,59.52380952,ad340343-3064-4a1f-a16e-218d8e047c8c,4,40.0992,41.7482,space,1,0.3781,,0,17,17,1,1,B,space,,,,,,,,,,
,,,,,R_4NlWCy4oIukPjaw,001,2025-08-28_12h37.48.038,continuous_performance_test,2024.2.4,Win32,59.52380952,ad340343-3064-4a1f-a16e-218d8e047c8c,4,41.7516,43.2977,space,1,0.3438,,0,18,18,21,1,V,space,,,,,,,,,,
,,,,,R_4NlWCy4oIukPjaw,001,2025-08-28_12h37.48.038,continuous_performance_test,2024.2.4,Win32,59.52380952,ad340343-3064-4a1f-a16e-218d8e047c8c,4,43.3002,45.1477,space,1,0.3879,,0,19,19,23,1,Y,space,,,,,,,,,,
,,,,,R_4NlWCy4oIukPjaw,001,2025-08-28_12h37.48.038,continuous_performance_test,2024.2.4,Win32,59.52380952,ad340343-3064-4a1f-a16e-218d8e047c8c,4,45.1495,46.9977,space,1,0.4015,,0,20,20,7,1,H,space,,,,,,,,,,
,,,,,R_4NlWCy4oIukPjaw,001,2025-08-28_12h37.48.038,continuous_performance_test,2024.2.4,Win32,59.52380952,ad340343-3064-4a1f-a16e-218d8e047c8c,4,46.9995,48.6976,space,1,0.4158,,0,21,21,15,1,P,space,,,,,,,,,,
,,,,,R_4NlWCy4oIukPjaw,001,2025-08-28_12h37.48.038,continuous_performance_test,2024.2.4,Win32,59.52380952,ad340343-3064-4a1f-a16e-218d8e047c8c,4,48.699,50.4976,space,1,0.3583,,0,22,22,24,1,Z,space,,,,,,,,,,
,,,,,R_4NlWCy4oIukPjaw,001,2025-08-28_12h37.48.038,continuous_performance_test,2024.2.4,Win32,59.52380952,ad340343-3064-4a1f-a16e-218d8e047c8c,4,50.4986,52.2974,space,0,0.3902,,0,23,23,29,1,X,,,,,,,,,,,
,,,,,R_4NlWCy4oIukPjaw,001,2025-08-28_12h37.48.038,continuous_performance_test,2024.2.4,Win32,59.52380952,ad340343-3064-4a1f-a16e-218d8e047c8c,4,52.2982,54.1477,space,0,0.4217,,0,24,24,27,1,X,,,,,,,,,,,
,,,,,R_4NlWCy4oIukPjaw,001,2025-08-28_12h37.48.038,continuous_performance_test,2024.2.4,Win32,59.52380952,ad340343-3064-4a1f-a16e-218d8e047c8c,4,54.1491,55.9476,space,1,0.4671,,0,25,25,17,1,R,space,,,,,,,,,,
,,,,,R_4NlWCy4oIukPjaw,001,2025-08-28_12h37.48.038,continuous_performance_test,2024.2.4,Win32,59.52380952,ad340343-3064-4a1f-a16e-218d8e047c8c,4,55.9491,57.6477,space,1,0.4325,,0,26,26,16,1,Q,space,,,,,,,,,,
,,,,,R_4NlWCy4oIukPjaw,001,2025-08-28_12h37.48.038,continuous_performance_test,2024.2.4,Win32,59.52380952,ad340343-3064-4a1f-a16e-218d8e047c8c,4,57.6486,59.4471,space,1,0.7041,,0,27,27,20,1,U,space,,,,,,,,,,
,,,,,R_4NlWCy4oIukPjaw,001,2025-08-28_12h37.48.038,continuous_performance_test,2024.2.4,Win32,59.52380952,ad340343-3064-4a1f-a16e-218d8e047c8c,4,59.4478,61.2975,space,1,0.4825,,0,28,28,2,1,C,space,,,,,,,,,,
,,,,,R_4NlWCy4oIukPjaw,001,2025-08-28_12h37.48.038,continuous_performance_test,2024.2.4,Win32,59.52380952,ad340343-3064-4a1f-a16e-218d8e047c8c,4,61.2989,62.8473,space,1,0.4318,,0,29,29,19,1,T,space,,,,,,,,,,
,,,,,R_4NlWCy4oIukPjaw,001,2025-08-28_12h37.48.038,continuous_performance_test,2024.2.4,Win32,59.52380952,ad340343-3064-4a1f-a16e-218d8e047c8c,4,67.1903,69.1807,space,1,0.4958,,0,0,0,17,1,R,space,62.8475,67.1807,space,4.3151,,,,,,
,,,,,R_4NlWCy4oIukPjaw,001,2025-08-28_12h37.48.038,continuous_performance_test,2024.2.4,Win32,59.52380952,ad340343-3064-4a1f-a16e-218d8e047c8c,4,69.1834,71.1806,space,1,0.5036,,0,1,1,4,1,E,space,,,,,,,,,,
,,,,,R_4NlWCy4oIukPjaw,001,2025-08-28_12h37.48.038,continuous_performance_test,2024.2.4,Win32,59.52380952,ad340343-3064-4a1f-a16e-218d8e047c8c,4,71.1832,72.7807,,1,,,0,2,2,26,1,X,,,,,,,,,,,
,,,,,R_4NlWCy4oIukPjaw,001,2025-08-28_12h37.48.038,continuous_performance_test,2024.2.4,Win32,59.52380952,ad340343-3064-4a1f-a16e-218d8e047c8c,4,72.7828,74.6304,space,1,0.4233,,0,3,3,24,1,Z,space,,,,,,,,,,
,,,,,R_4NlWCy4oIukPjaw,001,2025-08-28_12h37.48.038,continuous_performance_test,2024.2.4,Win32,59.52380952,ad340343-3064-4a1f-a16e-218d8e047c8c,4,74.633,76.1802,space,1,0.4023,,0,4,4,5,1,F,space,,,,,,,,,,
,,,,,R_4NlWCy4oIukPjaw,001,2025-08-28_12h37.48.038,continuous_performance_test,2024.2.4,Win32,59.52380952,ad340343-3064-4a1f-a16e-218d8e047c8c,4,76.182,77.9805,space,1,0.3829,,0,5,5,21,1,V,space,,,,,,,,,,
,,,,,R_4NlWCy4oIukPjaw,001,2025-08-28_12h37.48.038,continuous_performance_test,2024.2.4,Win32,59.52380952,ad340343-3064-4a1f-a16e-218d8e047c8c,4,77.9828,79.5301,space,1,0.3875,,0,6,6,11,1,L,space,,,,,,,,,,
,,,,,R_4NlWCy4oIukPjaw,001,2025-08-28_12h37.48.038,continuous_performance_test,2024.2.4,Win32,59.52380952,ad340343-3064-4a1f-a16e-218d8e047c8c,4,79.5329,81.5302,space,1,0.3901,,0,7,7,10,1,K,space,,,,,,,,,,
,,,,,R_4NlWCy4oIukPjaw,001,2025-08-28_12h37.48.038,continuous_performance_test,2024.2.4,Win32,59.52380952,ad340343-3064-4a1f-a16e-218d8e047c8c,4,81.5326,83.1803,space,1,0.3304,,0,8,8,7,1,H,space,,,,,,,,,,
,,,,,R_4NlWCy4oIukPjaw,001,2025-08-28_12h37.48.038,continuous_performance_test,2024.2.4,Win32,59.52380952,ad340343-3064-4a1f-a16e-218d8e047c8c,4,83.1826,84.7303,space,1,0.3866,,0,9,9,14,1,O,space,,,,,,,,,,
,,,,,R_4NlWCy4oIukPjaw,001,2025-08-28_12h37.48.038,continuous_performance_test,2024.2.4,Win32,59.52380952,ad340343-3064-4a1f-a16e-218d8e047c8c,4,84.7324,86.5297,space,1,0.3717,,0,10,10,23,1,Y,space,,,,,,,,,,
,,,,,R_4NlWCy4oIukPjaw,001,2025-08-28_12h37.48.038,continuous_performance_test,2024.2.4,Win32,59.52380952,ad340343-3064-4a1f-a16e-218d8e047c8c,4,86.5304,88.2797,space,0,0.304,,0,11,11,27,1,X,,,,,,,,,,,
,,,,,R_4NlWCy4oIukPjaw,001,2025-08-28_12h37.48.038,continuous_performance_test,2024.2.4,Win32,59.52380952,ad340343-3064-4a1f-a16e-218d8e047c8c,4,88.2802,89.9301,space,1,0.4325,,0,12,12,13,1,N,space,,,,,,,,,,
,,,,,R_4NlWCy4oIukPjaw,001,2025-08-28_12h37.48.038,continuous_performance_test,2024.2.4,Win32,59.52380952,ad340343-3064-4a1f-a16e-218d8e047c8c,4,89.9321,91.6301,space,1,0.3655,,0,13,13,8,1,I,space,,,,,,,,,,
,,,,,R_4NlWCy4oIukPjaw,001,2025-08-28_12h37.48.038,continuous_performance_test,2024.2.4,Win32,59.52380952,ad340343-3064-4a1f-a16e-218d8e047c8c,4,91.6327,93.5799,,1,,,0,14,14,29,1,X,,,,,,,,,,,
,,,,,R_4NlWCy4oIukPjaw,001,2025-08-28_12h37.48.038,continuous_performance_test,2024.2.4,Win32,59.52380952,ad340343-3064-4a1f-a16e-218d8e047c8c,4,93.5823,95.18,space,1,0.3806,,0,15,15,12,1,M,space,,,,,,,,,,
,,,,,R_4NlWCy4oIukPjaw,001,2025-08-28_12h37.48.038,continuous_performance_test,2024.2.4,Win32,59.52380952,ad340343-3064-4a1f-a16e-218d8e047c8c,4,95.1824,97.0798,space,1,0.3187,,0,16,16,3,1,D,space,,,,,,,,,,
,,,,,R_4NlWCy4oIukPjaw,001,2025-08-28_12h37.48.038,continuous_performance_test,2024.2.4,Win32,59.52380952,ad340343-3064-4a1f-a16e-218d8e047c8c,4,97.0821,99.0299,space,1,0.3574,,0,17,17,22,1,W,space,,,,,,,,,,
,,,,,R_4NlWCy4oIukPjaw,001,2025-08-28_12h37.48.038,continuous_performance_test,2024.2.4,Win32,59.52380952,ad340343-3064-4a1f-a16e-218d8e047c8c,4,99.0316,100.9298,space,1,0.3495,,0,18,18,20,1,U,space,,,,,,,,,,
,,,,,R_4NlWCy4oIukPjaw,001,2025-08-28_12h37.48.038,continuous_performance_test,2024.2.4,Win32,59.52380952,ad340343-3064-4a1f-a16e-218d8e047c8c,4,100.9322,102.5799,space,0,0.3652,,0,19,19,28,1,X,,,,,,,,,,,
,,,,,R_4NlWCy4oIukPjaw,001,2025-08-28_12h37.48.038,continuous_performance_test,2024.2.4,Win32,59.52380952,ad340343-3064-4a1f-a16e-218d8e047c8c,4,102.5819,104.3801,space,1,0.4179,,0,20,20,18,1,S,space,,,,,,,,,,
,,,,,R_4NlWCy4oIukPjaw,001,2025-08-28_12h37.48.038,continuous_performance_test,2024.2.4,Win32,59.52380952,ad340343-3064-4a1f-a16e-218d8e047c8c,4,104.383,106.3296,space,1,0.4147,,0,21,21,6,1,G,space,,,,,,,,,,
,,,,,R_4NlWCy4oIukPjaw,001,2025-08-28_12h37.48.038,continuous_performance_test,2024.2.4,Win32,59.52380952,ad340343-3064-4a1f-a16e-218d8e047c8c,4,106.3316,108.2295,space,1,0.414,,0,22,22,16,1,Q,space,,,,,,,,,,
,,,,,R_4NlWCy4oIukPjaw,001,2025-08-28_12h37.48.038,continuous_performance_test,2024.2.4,Win32,59.52380952,ad340343-3064-4a1f-a16e-218d8e047c8c,4,108.2305,109.9301,space,1,0.4821,,0,23,23,1,1,B,space,,,,,,,,,,
,,,,,R_4NlWCy4oIukPjaw,001,2025-08-28_12h37.48.038,continuous_performance_test,2024.2.4,Win32,59.52380952,ad340343-3064-4a1f-a16e-218d8e047c8c,4,109.9324,111.5295,space,1,0.4208,,0,24,24,15,1,P,space,,,,,,,,,,
,,,,,R_4NlWCy4oIukPjaw,001,2025-08-28_12h37.48.038,continuous_performance_test,2024.2.4,Win32,59.52380952,ad340343-3064-4a1f-a16e-218d8e047c8c,4,111.5313,113.3293,space,1,0.4644,,0,25,25,9,1,J,space,,,,,,,,,,
,,,,,R_4NlWCy4oIukPjaw,001,2025-08-28_12h37.48.038,continuous_performance_test,2024.2.4,Win32,59.52380952,ad340343-3064-4a1f-a16e-218d8e047c8c,4,113.3314,115.1294,,1,,,0,26,26,25,1,X,,,,,,,,,,,
,,,,,R_4NlWCy4oIukPjaw,001,2025-08-28_12h37.48.038,continuous_performance_test,2024.2.4,Win32,59.52380952,ad340343-3064-4a1f-a16e-218d8e047c8c,4,115.1315,116.8292,space,1,0.4255,,0,27,27,19,1,T,space,,,,,,,,,,
,,,,,R_4NlWCy4oIukPjaw,001,2025-08-28_12h37.48.038,continuous_performance_test,2024.2.4,Win32,59.52380952,ad340343-3064-4a1f-a16e-218d8e047c8c,4,116.8307,118.8289,space,1,0.6828,,0,28,28,0,1,A,space,,,,,,,,,,
,,,,,R_4NlWCy4oIukPjaw,001,2025-08-28_12h37.48.038,continuous_performance_test,2024.2.4,Win32,59.52380952,ad340343-3064-4a1f-a16e-218d8e047c8c,4,118.8307,120.779,space,1,0.4321,,0,29,29,2,1,C,space,,,,,,,,,,
,,,,,R_4NlWCy4oIukPjaw,001,2025-08-28_12h37.48.038,continuous_performance_test,2024.2.4,Win32,59.52380952,ad340343-3064-4a1f-a16e-218d8e047c8c,4,123.3875,125.0795,,1,,,0,0,0,25,1,X,,120.7799,123.3794,space,2.5825,,,,,,
,,,,,R_4NlWCy4oIukPjaw,001,2025-08-28_12h37.48.038,continuous_performance_test,2024.2.4,Win32,59.52380952,ad340343-3064-4a1f-a16e-218d8e047c8c,4,125.0819,126.9793,space,1,0.383,,0,1,1,15,1,P,space,,,,,,,,,,
,,,,,R_4NlWCy4oIukPjaw,001,2025-08-28_12h37.48.038,continuous_performance_test,2024.2.4,Win32,59.52380952,ad340343-3064-4a1f-a16e-218d8e047c8c,4,126.9817,128.7295,space,1,0.4046,,0,2,2,18,1,S,space,,,,,,,,,,
,,,,,R_4NlWCy4oIukPjaw,001,2025-08-28_12h37.48.038,continuous_performance_test,2024.2.4,Win32,59.52380952,ad340343-3064-4a1f-a16e-218d8e047c8c,4,128.7321,130.73,space,1,0.2815,,0,3,3,22,1,W,space,,,,,,,,,,
,,,,,R_4NlWCy4oIukPjaw,001,2025-08-28_12h37.48.038,continuous_performance_test,2024.2.4,Win32,59.52380952,ad340343-3064-4a1f-a16e-218d8e047c8c,4,130.7325,132.7293,space,1,0.2797,,0,4,4,2,1,C,space,,,,,,,,,,
,,,,,R_4NlWCy4oIukPjaw,001,2025-08-28_12h37.48.038,continuous_performance_test,2024.2.4,Win32,59.52380952,ad340343-3064-4a1f-a16e-218d8e047c8c,4,132.7324,134.2793,space,1,0.3902,,0,5,5,8,1,I,space,,,,,,,,,,
,,,,,R_4NlWCy4oIukPjaw,001,2025-08-28_12h37.48.038,continuous_performance_test,2024.2.4,Win32,59.52380952,ad340343-3064-4a1f-a16e-218d8e047c8c,4,134.2818,135.9795,space,0,0.3179,,0,6,6,29,1,X,,,,,,,,,,,
,,,,,R_4NlWCy4oIukPjaw,001,2025-08-28_12h37.48.038,continuous_performance_test,2024.2.4,Win32,59.52380952,ad340343-3064-4a1f-a16e-218d8e047c8c,4,135.9815,137.8285,space,1,0.3994,,0,7,7,21,1,V,space,,,,,,,,,,
,,,,,R_4NlWCy4oIukPjaw,001,2025-08-28_12h37.48.038,continuous_performance_test,2024.2.4,Win32,59.52380952,ad340343-3064-4a1f-a16e-218d8e047c8c,4,137.8307,139.779,space,1,0.3177,,0,8,8,11,1,L,space,,,,,,,,,,
,,,,,R_4NlWCy4oIukPjaw,001,2025-08-28_12h37.48.038,continuous_performance_test,2024.2.4,Win32,59.52380952,ad340343-3064-4a1f-a16e-218d8e047c8c,4,139.7813,141.6313,space,1,0.3148,,0,9,9,5,1,F,space,,,,,,,,,,
,,,,,R_4NlWCy4oIukPjaw,001,2025-08-28_12h37.48.038,continuous_performance_test,2024.2.4,Win32,59.52380952,ad340343-3064-4a1f-a16e-218d8e047c8c,4,141.6329,143.3288,space,1,0.3494,,0,10,10,14,1,O,space,,,,,,,,,,
,,,,,R_4NlWCy4oIukPjaw,001,2025-08-28_12h37.48.038,continuous_performance_test,2024.2.4,Win32,59.52380952,ad340343-3064-4a1f-a16e-218d8e047c8c,4,143.3311,145.0791,space,1,0.3646,,0,11,11,13,1,N,space,,,,,,,,,,
,,,,,R_4NlWCy4oIukPjaw,001,2025-08-28_12h37.48.038,continuous_performance_test,2024.2.4,Win32,59.52380952,ad340343-3064-4a1f-a16e-218d8e047c8c,4,145.0814,146.9791,space,1,0.4184,,0,12,12,0,1,A,space,,,,,,,,,,
,,,,,R_4NlWCy4oIukPjaw,001,2025-08-28_12h37.48.038,continuous_performance_test,2024.2.4,Win32,59.52380952,ad340343-3064-4a1f-a16e-218d8e047c8c,4,146.9818,148.6781,space,1,0.4658,,0,13,13,10,1,K,space,,,,,,,,,,
,,,,,R_4NlWCy4oIukPjaw,001,2025-08-28_12h37.48.038,continuous_performance_test,2024.2.4,Win32,59.52380952,ad340343-3064-4a1f-a16e-218d8e047c8c,4,148.6794,150.3282,space,1,0.5167,,0,14,14,12,1,M,space,,,,,,,,,,
,,,,,R_4NlWCy4oIukPjaw,001,2025-08-28_12h37.48.038,continuous_performance_test,2024.2.4,Win32,59.52380952,ad340343-3064-4a1f-a16e-218d8e047c8c,4,150.3296,151.9805,space,1,0.431,,0,15,15,20,1,U,space,,,,,,,,,,
,,,,,R_4NlWCy4oIukPjaw,001,2025-08-28_12h37.48.038,continuous_performance_test,2024.2.4,Win32,59.52380952,ad340343-3064-4a1f-a16e-218d8e047c8c,4,151.9825,153.6286,,1,,,0,16,16,28,1,X,,,,,,,,,,,
,,,,,R_4NlWCy4oIukPjaw,001,2025-08-28_12h37.48.038,continuous_performance_test,2024.2.4,Win32,59.52380952,ad340343-3064-4a1f-a16e-218d8e047c8c,4,153.6311,155.4787,space,1,0.3485,,0,17,17,6,1,G,space,,,,,,,,,,
,,,,,R_4NlWCy4oIukPjaw,001,2025-08-28_12h37.48.038,continuous_performance_test,2024.2.4,Win32,59.52380952,ad340343-3064-4a1f-a16e-218d8e047c8c,4,155.4808,157.1283,space,1,0.3646,,0,18,18,19,1,T,space,,,,,,,,,,
,,,,,R_4NlWCy4oIukPjaw,001,2025-08-28_12h37.48.038,continuous_performance_test,2024.2.4,Win32,59.52380952,ad340343-3064-4a1f-a16e-218d8e047c8c,4,157.1304,158.9283,space,1,0.3887,,0,19,19,7,1,H,space,,,,,,,,,,
,,,,,R_4NlWCy4oIukPjaw,001,2025-08-28_12h37.48.038,continuous_performance_test,2024.2.4,Win32,59.52380952,ad340343-3064-4a1f-a16e-218d8e047c8c,4,158.9305,160.7785,space,1,0.3393,,0,20,20,1,1,B,space,,,,,,,,,,
,,,,,R_4NlWCy4oIukPjaw,001,2025-08-28_12h37.48.038,continuous_performance_test,2024.2.4,Win32,59.52380952,ad340343-3064-4a1f-a16e-218d8e047c8c,4,160.7805,162.6281,space,1,0.2729,,0,21,21,16,1,Q,space,,,,,,,,,,
,,,,,R_4NlWCy4oIukPjaw,001,2025-08-28_12h37.48.038,continuous_performance_test,2024.2.4,Win32,59.52380952,ad340343-3064-4a1f-a16e-218d8e047c8c,4,162.63,164.3785,space,1,0.2849,,0,22,22,24,1,Z,space,,,,,,,,,,
,,,,,R_4NlWCy4oIukPjaw,001,2025-08-28_12h37.48.038,continuous_performance_test,2024.2.4,Win32,59.52380952,ad340343-3064-4a1f-a16e-218d8e047c8c,4,164.3805,166.2783,space,1,0.313,,0,23,23,9,1,J,space,,,,,,,,,,
,,,,,R_4NlWCy4oIukPjaw,001,2025-08-28_12h37.48.038,continuous_performance_test,2024.2.4,Win32,59.52380952,ad340343-3064-4a1f-a16e-218d8e047c8c,4,166.2805,167.9782,space,1,0.2837,,0,24,24,17,1,R,space,,,,,,,,,,
,,,,,R_4NlWCy4oIukPjaw,001,2025-08-28_12h37.48.038,continuous_performance_test,2024.2.4,Win32,59.52380952,ad340343-3064-4a1f-a16e-218d8e047c8c,4,167.9804,169.9281,space,0,0.3736,,0,25,25,27,1,X,,,,,,,,,,,
,,,,,R_4NlWCy4oIukPjaw,001,2025-08-28_12h37.48.038,continuous_performance_test,2024.2.4,Win32,59.52380952,ad340343-3064-4a1f-a16e-218d8e047c8c,4,169.9313,171.6781,space,1,0.3703,,0,26,26,3,1,D,space,,,,,,,,,,
,,,,,R_4NlWCy4oIukPjaw,001,2025-08-28_12h37.48.038,continuous_performance_test,2024.2.4,Win32,59.52380952,ad340343-3064-4a1f-a16e-218d8e047c8c,4,171.6805,173.3282,space,1,0.3825,,0,27,27,23,1,Y,space,,,,,,,,,,
,,,,,R_4NlWCy4oIukPjaw,001,2025-08-28_12h37.48.038,continuous_performance_test,2024.2.4,Win32,59.52380952,ad340343-3064-4a1f-a16e-218d8e047c8c,4,173.3304,175.3281,space,0,0.44,,0,28,28,26,1,X,,,,,,,,,,,
,,,,,R_4NlWCy4oIukPjaw,001,2025-08-28_12h37.48.038,continuous_performance_test,2024.2.4,Win32,59.52380952,ad340343-3064-4a1f-a16e-218d8e047c8c,4,175.3304,177.1778,space,1,0.4,,0,29,29,4,1,E,space,,,,,,,,,,
,,,,,R_4NlWCy4oIukPjaw,001,2025-08-28_12h37.48.038,continuous_performance_test,2024.2.4,Win32,59.52380952,ad340343-3064-4a1f-a16e-218d8e047c8c,4,178.138,179.8784,space,1,0.6718,,0,0,0,23,1,Y,space,177.1793,178.1283,space,0.9298,,,,,,
,,,,,R_4NlWCy4oIukPjaw,001,2025-08-28_12h37.48.038,continuous_performance_test,2024.2.4,Win32,59.52380952,ad340343-3064-4a1f-a16e-218d8e047c8c,4,179.8803,181.7782,,1,,,0,1,1,27,1,X,,,,,,,,,,,
,,,,,R_4NlWCy4oIukPjaw,001,2025-08-28_12h37.48.038,continuous_performance_test,2024.2.4,Win32,59.52380952,ad340343-3064-4a1f-a16e-218d8e047c8c,4,181.7803,183.6773,space,1,0.3135,,0,2,2,1,1,B,space,,,,,,,,,,
,,,,,R_4NlWCy4oIukPjaw,001,2025-08-28_12h37.48.038,continuous_performance_test,2024.2.4,Win32,59.52380952,ad340343-3064-4a1f-a16e-218d8e047c8c,4,183.6794,185.2275,space,1,0.3795,,0,3,3,21,1,V,space,,,,,,,,,,
,,,,,R_4NlWCy4oIukPjaw,001,2025-08-28_12h37.48.038,continuous_performance_test,2024.2.4,Win32,59.52380952,ad340343-3064-4a1f-a16e-218d8e047c8c,4,185.23,186.9275,space,1,0.3845,,0,4,4,15,1,P,space,,,,,,,,,,
,,,,,R_4NlWCy4oIukPjaw,001,2025-08-28_12h37.48.038,continuous_performance_test,2024.2.4,Win32,59.52380952,ad340343-3064-4a1f-a16e-218d8e047c8c,4,186.9307,188.8773,space,1,0.2991,,0,5,5,18,1,S,space,,,,,,,,,,
,,,,,R_4NlWCy4oIukPjaw,001,2025-08-28_12h37.48.038,continuous_performance_test,2024.2.4,Win32,59.52380952,ad340343-3064-4a1f-a16e-218d8e047c8c,4,188.8791,190.6275,space,1,0.349,,0,6,6,20,1,U,space,,,,,,,,,,
,,,,,R_4NlWCy4oIukPjaw,001,2025-08-28_12h37.48.038,continuous_performance_test,2024.2.4,Win32,59.52380952,ad340343-3064-4a1f-a16e-218d8e047c8c,4,190.6299,192.1778,space,1,0.3473,,0,7,7,5,1,F,space,,,,,,,,,,
,,,,,R_4NlWCy4oIukPjaw,001,2025-08-28_12h37.48.038,continuous_performance_test,2024.2.4,Win32,59.52380952,ad340343-3064-4a1f-a16e-218d8e047c8c,4,192.18,193.8276,space,0,0.3484,,0,8,8,25,1,X,,,,,,,,,,,
,,,,,R_4NlWCy4oIukPjaw,001,2025-08-28_12h37.48.038,continuous_performance_test,2024.2.4,Win32,59.52380952,ad340343-3064-4a1f-a16e-218d8e047c8c,4,193.8301,195.728,space,1,0.3657,,0,9,9,13,1,N,space,,,,,,,,,,
,,,,,R_4NlWCy4oIukPjaw,001,2025-08-28_12h37.48.038,continuous_performance_test,2024.2.4,Win32,59.52380952,ad340343-3064-4a1f-a16e-218d8e047c8c,4,195.73,197.3272,,1,,,0,10,10,29,1,X,,,,,,,,,,,
,,,,,R_4NlWCy4oIukPjaw,001,2025-08-28_12h37.48.038,continuous_performance_test,2024.2.4,Win32,59.52380952,ad340343-3064-4a1f-a16e-218d8e047c8c,4,197.3295,199.2275,space,1,0.4179,,0,11,11,22,1,W,space,,,,,,,,,,
,,,,,R_4NlWCy4oIukPjaw,001,2025-08-28_12h37.48.038,continuous_performance_test,2024.2.4,Win32,59.52380952,ad340343-3064-4a1f-a16e-218d8e047c8c,4,199.23,201.2276,,1,,,0,12,12,26,1,X,,,,,,,,,,,
,,,,,R_4NlWCy4oIukPjaw,001,2025-08-28_12h37.48.038,continuous_performance_test,2024.2.4,Win32,59.52380952,ad340343-3064-4a1f-a16e-218d8e047c8c,4,201.2301,203.0284,space,1,0.2645,,0,13,13,4,1,E,space,,,,,,,,,,
,,,,,R_4NlWCy4oIukPjaw,001,2025-08-28_12h37.48.038,continuous_performance_test,2024.2.4,Win32,59.52380952,ad340343-3064-4a1f-a16e-218d8e047c8c,4,203.0302,204.5775,space,1,0.3425,,0,14,14,6,1,G,space,,,,,,,,,,
,,,,,R_4NlWCy4oIukPjaw,001,2025-08-28_12h37.48.038,continuous_performance_test,2024.2.4,Win32,59.52380952,ad340343-3064-4a1f-a16e-218d8e047c8c,4,204.5797,206.3762,space,1,0.2993,,0,15,15,3,1,D,space,,,,,,,,,,
,,,,,R_4NlWCy4oIukPjaw,001,2025-08-28_12h37.48.038,continuous_performance_test,2024.2.4,Win32,59.52380952,ad340343-3064-4a1f-a16e-218d8e047c8c,4,206.3769,208.3768,space,1,0.4338,,0,16,16,0,1,A,space,,,,,,,,,,
,,,,,R_4NlWCy4oIukPjaw,001,2025-08-28_12h37.48.038,continuous_performance_test,2024.2.4,Win32,59.52380952,ad340343-3064-4a1f-a16e-218d8e047c8c,4,208.3792,210.1262,space,1,0.3025,,0,17,17,10,1,K,space,,,,,,,,,,
,,,,,R_4NlWCy4oIukPjaw,001,2025-08-28_12h37.48.038,continuous_performance_test,2024.2.4,Win32,59.52380952,ad340343-3064-4a1f-a16e-218d8e047c8c,4,210.127,211.7269,space,1,0.3503,,0,18,18,12,1,M,space,,,,,,,,,,
,,,,,R_4NlWCy4oIukPjaw,001,2025-08-28_12h37.48.038,continuous_performance_test,2024.2.4,Win32,59.52380952,ad340343-3064-4a1f-a16e-218d8e047c8c,4,211.7294,213.3265,space,1,0.2867,,0,19,19,7,1,H,space,,,,,,,,,,
,,,,,R_4NlWCy4oIukPjaw,001,2025-08-28_12h37.48.038,continuous_performance_test,2024.2.4,Win32,59.52380952,ad340343-3064-4a1f-a16e-218d8e047c8c,4,213.3285,215.277,,0,,,0,20,20,16,1,Q,space,,,,,,,,,,
,,,,,R_4NlWCy4oIukPjaw,001,2025-08-28_12h37.48.038,continuous_performance_test,2024.2.4,Win32,59.52380952,ad340343-3064-4a1f-a16e-218d8e047c8c,4,215.2795,217.1271,space,1,0.3657,,0,21,21,24,1,Z,space,,,,,,,,,,
,,,,,R_4NlWCy4oIukPjaw,001,2025-08-28_12h37.48.038,continuous_performance_test,2024.2.4,Win32,59.52380952,ad340343-3064-4a1f-a16e-218d8e047c8c,4,217.1301,218.8766,space,1,0.3518,,0,22,22,9,1,J,space,,,,,,,,,,
,,,,,R_4NlWCy4oIukPjaw,001,2025-08-28_12h37.48.038,continuous_performance_test,2024.2.4,Win32,59.52380952,ad340343-3064-4a1f-a16e-218d8e047c8c,4,218.8788,220.5764,space,1,0.4224,,0,23,23,11,1,L,space,,,,,,,,,,
,,,,,R_4NlWCy4oIukPjaw,001,2025-08-28_12h37.48.038,continuous_performance_test,2024.2.4,Win32,59.52380952,ad340343-3064-4a1f-a16e-218d8e047c8c,4,220.5779,222.2767,space,1,0.2886,,0,24,24,2,1,C,space,,,,,,,,,,
,,,,,R_4NlWCy4oIukPjaw,001,2025-08-28_12h37.48.038,continuous_performance_test,2024.2.4,Win32,59.52380952,ad340343-3064-4a1f-a16e-218d8e047c8c,4,222.2788,224.2264,,1,,,0,25,25,28,1,X,,,,,,,,,,,
,,,,,R_4NlWCy4oIukPjaw,001,2025-08-28_12h37.48.038,continuous_performance_test,2024.2.4,Win32,59.52380952,ad340343-3064-4a1f-a16e-218d8e047c8c,4,224.2285,226.1763,space,1,0.5336,,0,26,26,8,1,I,space,,,,,,,,,,
,,,,,R_4NlWCy4oIukPjaw,001,2025-08-28_12h37.48.038,continuous_performance_test,2024.2.4,Win32,59.52380952,ad340343-3064-4a1f-a16e-218d8e047c8c,4,226.1786,228.0265,space,1,0.3826,,0,27,27,14,1,O,space,,,,,,,,,,
,,,,,R_4NlWCy4oIukPjaw,001,2025-08-28_12h37.48.038,continuous_performance_test,2024.2.4,Win32,59.52380952,ad340343-3064-4a1f-a16e-218d8e047c8c,4,228.029,229.8266,space,1,0.4184,,0,28,28,17,1,R,space,,,,,,,,,,
,,,,,R_4NlWCy4oIukPjaw,001,2025-08-28_12h37.48.038,continuous_performance_test,2024.2.4,Win32,59.52380952,ad340343-3064-4a1f-a16e-218d8e047c8c,4,229.8287,231.3765,space,1,0.4378,,0,29,29,19,1,T,space,,,,,,,,,,
,,,,,R_4NlWCy4oIukPjaw,001,2025-08-28_12h37.48.038,continuous_performance_test,2024.2.4,Win32,59.52380952,ad340343-3064-4a1f-a16e-218d8e047c8c,4,233.0521,235.0433,space,1,0.4027,,0,0,0,11,1,L,space,231.3781,233.0431,space,1.6461,,,,,,
,,,,,R_4NlWCy4oIukPjaw,001,2025-08-28_12h37.48.038,continuous_performance_test,2024.2.4,Win32,59.52380952,ad340343-3064-4a1f-a16e-218d8e047c8c,4,235.0456,236.6928,space,0,0.3679,,0,1,1,27,1,X,,,,,,,,,,,
,,,,,R_4NlWCy4oIukPjaw,001,2025-08-28_12h37.48.038,continuous_performance_test,2024.2.4,Win32,59.52380952,ad340343-3064-4a1f-a16e-218d8e047c8c,4,236.6952,238.643,space,1,0.4175,,0,2,2,19,1,T,space,,,,,,,,,,
,,,,,R_4NlWCy4oIukPjaw,001,2025-08-28_12h37.48.038,continuous_performance_test,2024.2.4,Win32,59.52380952,ad340343-3064-4a1f-a16e-218d8e047c8c,4,238.6452,240.6427,,1,,,0,3,3,28,1,X,,,,,,,,,,,
,,,,,R_4NlWCy4oIukPjaw,001,2025-08-28_12h37.48.038,continuous_performance_test,2024.2.4,Win32,59.52380952,ad340343-3064-4a1f-a16e-218d8e047c8c,4,240.6452,242.2422,space,1,0.3685,,0,4,4,0,1,A,space,,,,,,,,,,
,,,,,R_4NlWCy4oIukPjaw,001,2025-08-28_12h37.48.038,continuous_performance_test,2024.2.4,Win32,59.52380952,ad340343-3064-4a1f-a16e-218d8e047c8c,4,242.2439,243.7925,space,1,0.3825,,0,5,5,7,1,H,space,,,,,,,,,,
,,,,,R_4NlWCy4oIukPjaw,001,2025-08-28_12h37.48.038,continuous_performance_test,2024.2.4,Win32,59.52380952,ad340343-3064-4a1f-a16e-218d8e047c8c,4,243.7955,245.7421,space,1,0.2995,,0,6,6,16,1,Q,space,,,,,,,,,,
,,,,,R_4NlWCy4oIukPjaw,001,2025-08-28_12h37.48.038,continuous_performance_test,2024.2.4,Win32,59.52380952,ad340343-3064-4a1f-a16e-218d8e047c8c,4,245.7428,247.5458,space,1,0.3843,,0,7,7,23,1,Y,space,,,,,,,,,,
,,,,,R_4NlWCy4oIukPjaw,001,2025-08-28_12h37.48.038,continuous_performance_test,2024.2.4,Win32,59.52380952,ad340343-3064-4a1f-a16e-218d8e047c8c,4,247.5475,249.1436,,1,,,0,8,8,29,1,X,,,,,,,,,,,
,,,,,R_4NlWCy4oIukPjaw,001,2025-08-28_12h37.48.038,continuous_performance_test,2024.2.4,Win32,59.52380952,ad340343-3064-4a1f-a16e-218d8e047c8c,4,249.146,250.8428,space,1,0.4651,,0,9,9,14,1,O,space,,,,,,,,,,
,,,,,R_4NlWCy4oIukPjaw,001,2025-08-28_12h37.48.038,continuous_performance_test,2024.2.4,Win32,59.52380952,ad340343-3064-4a1f-a16e-218d8e047c8c,4,250.8452,252.8419,space,1,0.5192,,0,10,10,15,1,P,space,,,,,,,,,,
,,,,,R_4NlWCy4oIukPjaw,001,2025-08-28_12h37.48.038,continuous_performance_test,2024.2.4,Win32,59.52380952,ad340343-3064-4a1f-a16e-218d8e047c8c,4,252.8435,254.8423,space,1,0.2821,,0,11,11,12,1,M,space,,,,,,,,,,
,,,,,R_4NlWCy4oIukPjaw,001,2025-08-28_12h37.48.038,continuous_performance_test,2024.2.4,Win32,59.52380952,ad340343-3064-4a1f-a16e-218d8e047c8c,4,254.8443,256.6422,space,1,0.0999,,0,12,12,8,1,I,space,,,,,,,,,,
,,,,,R_4NlWCy4oIukPjaw,001,2025-08-28_12h37.48.038,continuous_performance_test,2024.2.4,Win32,59.52380952,ad340343-3064-4a1f-a16e-218d8e047c8c,4,256.6435,258.4426,space,0,0.2497,,0,13,13,26,1,X,,,,,,,,,,,
,,,,,R_4NlWCy4oIukPjaw,001,2025-08-28_12h37.48.038,continuous_performance_test,2024.2.4,Win32,59.52380952,ad340343-3064-4a1f-a16e-218d8e047c8c,4,258.4454,260.3921,space,1,0.3653,,0,14,14,21,1,V,space,,,,,,,,,,
,,,,,R_4NlWCy4oIukPjaw,001,2025-08-28_12h37.48.038,continuous_performance_test,2024.2.4,Win32,59.52380952,ad340343-3064-4a1f-a16e-218d8e047c8c,4,260.3947,262.1922,space,1,0.3886,,0,15,15,1,1,B,space,,,,,,,,,,
,,,,,R_4NlWCy4oIukPjaw,001,2025-08-28_12h37.48.038,continuous_performance_test,2024.2.4,Win32,59.52380952,ad340343-3064-4a1f-a16e-218d8e047c8c,4,262.1943,263.7924,space,1,0.3335,,0,16,16,4,1,E,space,,,,,,,,,,
,,,,,R_4NlWCy4oIukPjaw,001,2025-08-28_12h37.48.038,continuous_performance_test,2024.2.4,Win32,59.52380952,ad340343-3064-4a1f-a16e-218d8e047c8c,4,263.7943,265.5424,space,1,0.3477,,0,17,17,17,1,R,space,,,,,,,,,,
,,,,,R_4NlWCy4oIukPjaw,001,2025-08-28_12h37.48.038,continuous_performance_test,2024.2.4,Win32,59.52380952,ad340343-3064-4a1f-a16e-218d8e047c8c,4,265.5458,267.1415,space,1,0.4848,,0,18,18,13,1,N,space,,,,,,,,,,
,,,,,R_4NlWCy4oIukPjaw,001,2025-08-28_12h37.48.038,continuous_performance_test,2024.2.4,Win32,59.52380952,ad340343-3064-4a1f-a16e-218d8e047c8c,4,267.1431,268.992,space,1,0.0054,,0,19,19,22,1,W,space,,,,,,,,,,
,,,,,R_4NlWCy4oIukPjaw,001,2025-08-28_12h37.48.038,continuous_performance_test,2024.2.4,Win32,59.52380952,ad340343-3064-4a1f-a16e-218d8e047c8c,4,268.9944,270.9912,space,1,0.3516,,0,20,20,18,1,S,space,,,,,,,,,,
,,,,,R_4NlWCy4oIukPjaw,001,2025-08-28_12h37.48.038,continuous_performance_test,2024.2.4,Win32,59.52380952,ad340343-3064-4a1f-a16e-218d8e047c8c,4,270.9924,272.6417,space,1,0.3516,,0,21,21,2,1,C,space,,,,,,,,,,
,,,,,R_4NlWCy4oIukPjaw,001,2025-08-28_12h37.48.038,continuous_performance_test,2024.2.4,Win32,59.52380952,ad340343-3064-4a1f-a16e-218d8e047c8c,4,272.6433,274.6422,space,1,0.398,,0,22,22,6,1,G,space,,,,,,,,,,
,,,,,R_4NlWCy4oIukPjaw,001,2025-08-28_12h37.48.038,continuous_performance_test,2024.2.4,Win32,59.52380952,ad340343-3064-4a1f-a16e-218d8e047c8c,4,274.6451,276.4412,,1,,,0,23,23,25,1,X,,,,,,,,,,,
,,,,,R_4NlWCy4oIukPjaw,001,2025-08-28_12h37.48.038,continuous_performance_test,2024.2.4,Win32,59.52380952,ad340343-3064-4a1f-a16e-218d8e047c8c,4,276.4429,278.1415,space,1,0.4001,,0,24,24,9,1,J,space,,,,,,,,,,
,,,,,R_4NlWCy4oIukPjaw,001,2025-08-28_12h37.48.038,continuous_performance_test,2024.2.4,Win32,59.52380952,ad340343-3064-4a1f-a16e-218d8e047c8c,4,278.1438,279.8917,space,1,0.3372,,0,25,25,24,1,Z,space,,,,,,,,,,
,,,,,R_4NlWCy4oIukPjaw,001,2025-08-28_12h37.48.038,continuous_performance_test,2024.2.4,Win32,59.52380952,ad340343-3064-4a1f-a16e-218d8e047c8c,4,279.8938,281.8417,space,1,0.3438,,0,26,26,10,1,K,space,,,,,,,,,,
,,,,,R_4NlWCy4oIukPjaw,001,2025-08-28_12h37.48.038,continuous_performance_test,2024.2.4,Win32,59.52380952,ad340343-3064-4a1f-a16e-218d8e047c8c,4,281.8441,283.5415,space,1,0.3667,,0,27,27,3,1,D,space,,,,,,,,,,
,,,,,R_4NlWCy4oIukPjaw,001,2025-08-28_12h37.48.038,continuous_performance_test,2024.2.4,Win32,59.52380952,ad340343-3064-4a1f-a16e-218d8e047c8c,4,283.5439,285.1416,space,1,0.4656,,0,28,28,20,1,U,space,,,,,,,,,,
,,,,,R_4NlWCy4oIukPjaw,001,2025-08-28_12h37.48.038,continuous_performance_test,2024.2.4,Win32,59.52380952,ad340343-3064-4a1f-a16e-218d8e047c8c,4,285.1437,286.9917,space,1,0.3977,,0,29,29,5,1,F,space,,,,,,,,,,
,,,,,R_4NlWCy4oIukPjaw,001,2025-08-28_12h37.48.038,continuous_performance_test,2024.2.4,Win32,59.52380952,ad340343-3064-4a1f-a16e-218d8e047c8c,4,288.3177,289.9583,space,1,0.9023,,0,0,0,16,1,Q,space,286.9937,288.3094,space,1.2948,,,,,,
,,,,,R_4NlWCy4oIukPjaw,001,2025-08-28_12h37.48.038,continuous_performance_test,2024.2.4,Win32,59.52380952,ad340343-3064-4a1f-a16e-218d8e047c8c,4,289.9606,291.8086,space,1,0.4043,,0,1,1,14,1,O,space,,,,,,,,,,
,,,,,R_4NlWCy4oIukPjaw,001,2025-08-28_12h37.48.038,continuous_performance_test,2024.2.4,Win32,59.52380952,ad340343-3064-4a1f-a16e-218d8e047c8c,4,291.8107,293.6078,space,1,0.3735,,0,2,2,4,1,E,space,,,,,,,,,,
,,,,,R_4NlWCy4oIukPjaw,001,2025-08-28_12h37.48.038,continuous_performance_test,2024.2.4,Win32,59.52380952,ad340343-3064-4a1f-a16e-218d8e047c8c,4,293.6102,295.4077,space,1,0.3181,,0,3,3,7,1,H,space,,,,,,,,,,
,,,,,R_4NlWCy4oIukPjaw,001,2025-08-28_12h37.48.038,continuous_performance_test,2024.2.4,Win32,59.52380952,ad340343-3064-4a1f-a16e-218d8e047c8c,4,295.4101,296.9572,space,1,0.334,,0,4,4,2,1,C,space,,,,,,,,,,
,,,,,R_4NlWCy4oIukPjaw,001,2025-08-28_12h37.48.038,continuous_performance_test,2024.2.4,Win32,59.52380952,ad340343-3064-4a1f-a16e-218d8e047c8c,4,296.9588,298.6102,space,1,0.2826,,0,5,5,18,1,S,space,,,,,,,,,,
,,,,,R_4NlWCy4oIukPjaw,001,2025-08-28_12h37.48.038,continuous_performance_test,2024.2.4,Win32,59.52380952,ad340343-3064-4a1f-a16e-218d8e047c8c,4,298.6119,300.5575,space,1,0.4072,,0,6,6,8,1,I,space,,,,,,,,,,
,,,,,R_4NlWCy4oIukPjaw,001,2025-08-28_12h37.48.038,continuous_performance_test,2024.2.4,Win32,59.52380952,ad340343-3064-4a1f-a16e-218d8e047c8c,4,300.5602,302.21,space,1,0.2846,,0,7,7,17,1,R,space,,,,,,,,,,
,,,,,R_4NlWCy4oIukPjaw,001,2025-08-28_12h37.48.038,continuous_performance_test,2024.2.4,Win32,59.52380952,ad340343-3064-4a1f-a16e-218d8e047c8c,4,302.2116,304.0089,space,1,0.4284,,0,8,8,23,1,Y,space,,,,,,,,,,
,,,,,R_4NlWCy4oIukPjaw,001,2025-08-28_12h37.48.038,continuous_performance_test,2024.2.4,Win32,59.52380952,ad340343-3064-4a1f-a16e-218d8e047c8c,4,304.0103,305.8074,space,1,0.3189,,0,9,9,9,1,J,space,,,,,,,,,,
,,,,,R_4NlWCy4oIukPjaw,001,2025-08-28_12h37.48.038,continuous_performance_test,2024.2.4,Win32,59.52380952,ad340343-3064-4a1f-a16e-218d8e047c8c,4,305.8097,307.8075,space,1,0.3332,,0,10,10,15,1,P,space,,,,,,,,,,
,,,,,R_4NlWCy4oIukPjaw,001,2025-08-28_12h37.48.038,continuous_performance_test,2024.2.4,Win32,59.52380952,ad340343-3064-4a1f-a16e-218d8e047c8c,4,307.8097,309.5096,space,1,0.3064,,0,11,11,1,1,B,space,,,,,,,,,,
,,,,,R_4NlWCy4oIukPjaw,001,2025-08-28_12h37.48.038,continuous_performance_test,2024.2.4,Win32,59.52380952,ad340343-3064-4a1f-a16e-218d8e047c8c,4,309.5113,311.3077,space,1,0.4667,,0,12,12,20,1,U,space,,,,,,,,,,
,,,,,R_4NlWCy4oIukPjaw,001,2025-08-28_12h37.48.038,continuous_performance_test,2024.2.4,Win32,59.52380952,ad340343-3064-4a1f-a16e-218d8e047c8c,4,311.3099,313.2072,space,1,0.3174,,0,13,13,3,1,D,space,,,,,,,,,,
,,,,,R_4NlWCy4oIukPjaw,001,2025-08-28_12h37.48.038,continuous_performance_test,2024.2.4,Win32,59.52380952,ad340343-3064-4a1f-a16e-218d8e047c8c,4,313.2087,314.9067,space,1,0.3706,,0,14,14,5,1,F,space,,,,,,,,,,
,,,,,R_4NlWCy4oIukPjaw,001,2025-08-28_12h37.48.038,continuous_performance_test,2024.2.4,Win32,59.52380952,ad340343-3064-4a1f-a16e-218d8e047c8c,4,314.908,316.8069,space,1,0.3355,,0,15,15,11,1,L,space,,,,,,,,,,
,,,,,R_4NlWCy4oIukPjaw,001,2025-08-28_12h37.48.038,continuous_performance_test,2024.2.4,Win32,59.52380952,ad340343-3064-4a1f-a16e-218d8e047c8c,4,316.8091,318.7573,space,0,0.4494,,0,16,16,29,1,X,,,,,,,,,,,
,,,,,R_4NlWCy4oIukPjaw,001,2025-08-28_12h37.48.038,continuous_performance_test,2024.2.4,Win32,59.52380952,ad340343-3064-4a1f-a16e-218d8e047c8c,4,318.7597,320.7571,space,1,0.3031,,0,17,17,6,1,G,space,,,,,,,,,,
,,,,,R_4NlWCy4oIukPjaw,001,2025-08-28_12h37.48.038,continuous_performance_test,2024.2.4,Win32,59.52380952,ad340343-3064-4a1f-a16e-218d8e047c8c,4,320.7591,322.6071,space,1,0.3902,,0,18,18,24,1,Z,space,,,,,,,,,,
,,,,,R_4NlWCy4oIukPjaw,001,2025-08-28_12h37.48.038,continuous_performance_test,2024.2.4,Win32,59.52380952,ad340343-3064-4a1f-a16e-218d8e047c8c,4,322.6094,324.4569,space,1,0.5146,,0,19,19,22,1,W,space,,,,,,,,,,
,,,,,R_4NlWCy4oIukPjaw,001,2025-08-28_12h37.48.038,continuous_performance_test,2024.2.4,Win32,59.52380952,ad340343-3064-4a1f-a16e-218d8e047c8c,4,324.4589,326.3579,space,1,0.3517,,0,20,20,21,1,V,space,,,,,,,,,,
,,,,,R_4NlWCy4oIukPjaw,001,2025-08-28_12h37.48.038,continuous_performance_test,2024.2.4,Win32,59.52380952,ad340343-3064-4a1f-a16e-218d8e047c8c,4,326.3596,328.1069,space,1,0.3491,,0,21,21,12,1,M,space,,,,,,,,,,
,,,,,R_4NlWCy4oIukPjaw,001,2025-08-28_12h37.48.038,continuous_performance_test,2024.2.4,Win32,59.52380952,ad340343-3064-4a1f-a16e-218d8e047c8c,4,328.1092,329.9067,space,1,0.3983,,0,22,22,13,1,N,space,,,,,,,,,,
,,,,,R_4NlWCy4oIukPjaw,001,2025-08-28_12h37.48.038,continuous_performance_test,2024.2.4,Win32,59.52380952,ad340343-3064-4a1f-a16e-218d8e047c8c,4,329.909,331.7071,space,0,0.3226,,0,23,23,25,1,X,,,,,,,,,,,
,,,,,R_4NlWCy4oIukPjaw,001,2025-08-28_12h37.48.038,continuous_performance_test,2024.2.4,Win32,59.52380952,ad340343-3064-4a1f-a16e-218d8e047c8c,4,331.7092,333.657,space,1,0.499,,0,24,24,19,1,T,space,,,,,,,,,,
,,,,,R_4NlWCy4oIukPjaw,001,2025-08-28_12h37.48.038,continuous_performance_test,2024.2.4,Win32,59.52380952,ad340343-3064-4a1f-a16e-218d8e047c8c,4,333.659,335.3067,space,1,0.3222,,0,25,25,0,1,A,space,,,,,,,,,,
,,,,,R_4NlWCy4oIukPjaw,001,2025-08-28_12h37.48.038,continuous_performance_test,2024.2.4,Win32,59.52380952,ad340343-3064-4a1f-a16e-218d8e047c8c,4,335.3097,336.8569,,1,,,0,26,26,27,1,X,,,,,,,,,,,
,,,,,R_4NlWCy4oIukPjaw,001,2025-08-28_12h37.48.038,continuous_performance_test,2024.2.4,Win32,59.52380952,ad340343-3064-4a1f-a16e-218d8e047c8c,4,336.8588,338.5589,,1,,,0,27,27,26,1,X,,,,,,,,,,,
,,,,,R_4NlWCy4oIukPjaw,001,2025-08-28_12h37.48.038,continuous_performance_test,2024.2.4,Win32,59.52380952,ad340343-3064-4a1f-a16e-218d8e047c8c,4,338.5602,340.5563,space,1,0.5305,,0,28,28,10,1,K,space,,,,,,,,,,
,,,,,R_4NlWCy4oIukPjaw,001,2025-08-28_12h37.48.038,continuous_performance_test,2024.2.4,Win32,59.52380952,ad340343-3064-4a1f-a16e-218d8e047c8c,4,340.5582,342.5065,,1,,,0,29,29,28,1,X,,,,,,,,,,,
,,,,,R_4NlWCy4oIukPjaw,001,2025-08-28_12h37.48.038,continuous_performance_test,2024.2.4,Win32,59.52380952,ad340343-3064-4a1f-a16e-218d8e047c8c,4,343.7486,345.4894,space,1,0.482,,0,0,0,20,1,U,space,342.5086,343.7407,space,1.2143,,,,,,
,,,,,R_4NlWCy4oIukPjaw,001,2025-08-28_12h37.48.038,continuous_performance_test,2024.2.4,Win32,59.52380952,ad340343-3064-4a1f-a16e-218d8e047c8c,4,345.4911,347.2892,space,0,0.3135,,0,1,1,27,1,X,,,,,,,,,,,
,,,,,R_4NlWCy4oIukPjaw,001,2025-08-28_12h37.48.038,continuous_performance_test,2024.2.4,Win32,59.52380952,ad340343-3064-4a1f-a16e-218d8e047c8c,4,347.2901,349.0391,space,1,0.4075,,0,2,2,6,1,G,space,,,,,,,,,,
,,,,,R_4NlWCy4oIukPjaw,001,2025-08-28_12h37.48.038,continuous_performance_test,2024.2.4,Win32,59.52380952,ad340343-3064-4a1f-a16e-218d8e047c8c,4,349.0406,350.5891,space,1,0.3999,,0,3,3,19,1,T,space,,,,,,,,,,
,,,,,R_4NlWCy4oIukPjaw,001,2025-08-28_12h37.48.038,continuous_performance_test,2024.2.4,Win32,59.52380952,ad340343-3064-4a1f-a16e-218d8e047c8c,4,350.5903,352.4393,,1,,,0,4,4,29,1,X,,,,,,,,,,,
,,,,,R_4NlWCy4oIukPjaw,001,2025-08-28_12h37.48.038,continuous_performance_test,2024.2.4,Win32,59.52380952,ad340343-3064-4a1f-a16e-218d8e047c8c,4,352.4409,354.1391,space,1,0.4449,,0,5,5,21,1,V,space,,,,,,,,,,
,,,,,R_4NlWCy4oIukPjaw,001,2025-08-28_12h37.48.038,continuous_performance_test,2024.2.4,Win32,59.52380952,ad340343-3064-4a1f-a16e-218d8e047c8c,4,354.1405,356.0899,space,1,0.2923,,0,6,6,3,1,D,space,,,,,,,,,,
,,,,,R_4NlWCy4oIukPjaw,001,2025-08-28_12h37.48.038,continuous_performance_test,2024.2.4,Win32,59.52380952,ad340343-3064-4a1f-a16e-218d8e047c8c,4,356.0923,357.6397,space,1,0.3762,,0,7,7,17,1,R,space,,,,,,,,,,
,,,,,R_4NlWCy4oIukPjaw,001,2025-08-28_12h37.48.038,continuous_performance_test,2024.2.4,Win32,59.52380952,ad340343-3064-4a1f-a16e-218d8e047c8c,4,357.644,359.2898,space,1,0.37,,0,8,8,11,1,L,space,,,,,,,,,,
,,,,,R_4NlWCy4oIukPjaw,001,2025-08-28_12h37.48.038,continuous_performance_test,2024.2.4,Win32,59.52380952,ad340343-3064-4a1f-a16e-218d8e047c8c,4,359.2923,361.2892,space,0,0.3094,,0,9,9,28,1,X,,,,,,,,,,,
,,,,,R_4NlWCy4oIukPjaw,001,2025-08-28_12h37.48.038,continuous_performance_test,2024.2.4,Win32,59.52380952,ad340343-3064-4a1f-a16e-218d8e047c8c,4,361.2909,363.2398,space,1,0.3934,,0,10,10,8,1,I,space,,,,,,,,,,
,,,,,R_4NlWCy4oIukPjaw,001,2025-08-28_12h37.48.038,continuous_performance_test,2024.2.4,Win32,59.52380952,ad340343-3064-4a1f-a16e-218d8e047c8c,4,363.2424,364.7895,space,1,0.4121,,0,11,11,12,1,M,space,,,,,,,,,,
,,,,,R_4NlWCy4oIukPjaw,001,2025-08-28_12h37.48.038,continuous_performance_test,2024.2.4,Win32,59.52380952,ad340343-3064-4a1f-a16e-218d8e047c8c,4,364.7914,366.34,space,1,0.3638,,0,12,12,2,1,C,space,,,,,,,,,,
,,,,,R_4NlWCy4oIukPjaw,001,2025-08-28_12h37.48.038,continuous_performance_test,2024.2.4,Win32,59.52380952,ad340343-3064-4a1f-a16e-218d8e047c8c,4,366.3421,368.0891,space,1,0.2859,,0,13,13,22,1,W,space,,,,,,,,,,
,,,,,R_4NlWCy4oIukPjaw,001,2025-08-28_12h37.48.038,continuous_performance_test,2024.2.4,Win32,59.52380952,ad340343-3064-4a1f-a16e-218d8e047c8c,4,368.0912,370.089,space,1,0.3379,,0,14,14,10,1,K,space,,,,,,,,,,
,,,,,R_4NlWCy4oIukPjaw,001,2025-08-28_12h37.48.038,continuous_performance_test,2024.2.4,Win32,59.52380952,ad340343-3064-4a1f-a16e-218d8e047c8c,4,370.0912,371.8897,space,1,0.3709,,0,15,15,9,1,J,space,,,,,,,,,,
,,,,,R_4NlWCy4oIukPjaw,001,2025-08-28_12h37.48.038,continuous_performance_test,2024.2.4,Win32,59.52380952,ad340343-3064-4a1f-a16e-218d8e047c8c,4,371.8917,373.5888,space,1,0.3346,,0,16,16,16,1,Q,space,,,,,,,,,,
,,,,,R_4NlWCy4oIukPjaw,001,2025-08-28_12h37.48.038,continuous_performance_test,2024.2.4,Win32,59.52380952,ad340343-3064-4a1f-a16e-218d8e047c8c,4,373.5911,375.2389,space,1,0.2721,,0,17,17,4,1,E,space,,,,,,,,,,
,,,,,R_4NlWCy4oIukPjaw,001,2025-08-28_12h37.48.038,continuous_performance_test,2024.2.4,Win32,59.52380952,ad340343-3064-4a1f-a16e-218d8e047c8c,4,375.241,377.0889,space,1,0.2844,,0,18,18,14,1,O,space,,,,,,,,,,
,,,,,R_4NlWCy4oIukPjaw,001,2025-08-28_12h37.48.038,continuous_performance_test,2024.2.4,Win32,59.52380952,ad340343-3064-4a1f-a16e-218d8e047c8c,4,377.0907,378.8384,space,1,0.2638,,0,19,19,13,1,N,space,,,,,,,,,,
,,,,,R_4NlWCy4oIukPjaw,001,2025-08-28_12h37.48.038,continuous_performance_test,2024.2.4,Win32,59.52380952,ad340343-3064-4a1f-a16e-218d8e047c8c,4,378.8399,380.5888,space,1,0.2648,,0,20,20,24,1,Z,space,,,,,,,,,,
,,,,,R_4NlWCy4oIukPjaw,001,2025-08-28_12h37.48.038,continuous_performance_test,2024.2.4,Win32,59.52380952,ad340343-3064-4a1f-a16e-218d8e047c8c,4,380.591,382.3381,space,1,0.1579,,0,21,21,18,1,S,space,,,,,,,,,,
,,,,,R_4NlWCy4oIukPjaw,001,2025-08-28_12h37.48.038,continuous_performance_test,2024.2.4,Win32,59.52380952,ad340343-3064-4a1f-a16e-218d8e047c8c,4,382.3398,383.8879,space,1,0.303,,0,22,22,15,1,P,space,,,,,,,,,,
,,,,,R_4NlWCy4oIukPjaw,001,2025-08-28_12h37.48.038,continuous_performance_test,2024.2.4,Win32,59.52380952,ad340343-3064-4a1f-a16e-218d8e047c8c,4,383.8889,385.4894,space,1,0.4868,,0,23,23,23,1,Y,space,,,,,,,,,,
,,,,,R_4NlWCy4oIukPjaw,001,2025-08-28_12h37.48.038,continuous_performance_test,2024.2.4,Win32,59.52380952,ad340343-3064-4a1f-a16e-218d8e047c8c,4,385.4921,387.0886,space,1,0.4037,,0,24,24,5,1,F,space,,,,,,,,,,
,,,,,R_4NlWCy4oIukPjaw,001,2025-08-28_12h37.48.038,continuous_performance_test,2024.2.4,Win32,59.52380952,ad340343-3064-4a1f-a16e-218d8e047c8c,4,387.0911,388.7886,space,0,0.297,,0,25,25,26,1,X,,,,,,,,,,,
,,,,,R_4NlWCy4oIukPjaw,001,2025-08-28_12h37.48.038,continuous_performance_test,2024.2.4,Win32,59.52380952,ad340343-3064-4a1f-a16e-218d8e047c8c,4,388.7908,390.6406,space,1,0.3821,,0,26,26,7,1,H,space,,,,,,,,,,
,,,,,R_4NlWCy4oIukPjaw,001,2025-08-28_12h37.48.038,continuous_performance_test,2024.2.4,Win32,59.52380952,ad340343-3064-4a1f-a16e-218d8e047c8c,4,390.643,392.5885,space,1,0.3314,,0,27,27,0,1,A,space,,,,,,,,,,
,,,,,R_4NlWCy4oIukPjaw,001,2025-08-28_12h37.48.038,continuous_performance_test,2024.2.4,Win32,59.52380952,ad340343-3064-4a1f-a16e-218d8e047c8c,4,392.5909,394.4385,space,0,0.4156,,0,28,28,25,1,X,,,,,,,,,,,
,,,,,R_4NlWCy4oIukPjaw,001,2025-08-28_12h37.48.038,continuous_performance_test,2024.2.4,Win32,59.52380952,ad340343-3064-4a1f-a16e-218d8e047c8c,4,394.4407,396.0894,space,1,0.3491,,0,29,29,1,1,B,space,,,,,,,,,,
,,,,,R_4NlWCy4oIukPjaw,001,2025-08-28_12h37.48.038,continuous_performance_test,2024.2.4,Win32,59.52380952,ad340343-3064-4a1f-a16e-218d8e047c8c,4,396.91,398.8549,space,1,0.3582,,0,0,0,2,1,C,space,396.0912,396.9046,space,0.7934,,,,,,
,,,,,R_4NlWCy4oIukPjaw,001,2025-08-28_12h37.48.038,continuous_performance_test,2024.2.4,Win32,59.52380952,ad340343-3064-4a1f-a16e-218d8e047c8c,4,398.8571,400.6052,space,1,0.3321,,0,1,1,5,1,F,space,,,,,,,,,,
,,,,,R_4NlWCy4oIukPjaw,001,2025-08-28_12h37.48.038,continuous_performance_test,2024.2.4,Win32,59.52380952,ad340343-3064-4a1f-a16e-218d8e047c8c,4,400.6074,402.1544,space,1,0.3324,,0,2,2,14,1,O,space,,,,,,,,,,
,,,,,R_4NlWCy4oIukPjaw,001,2025-08-28_12h37.48.038,continuous_performance_test,2024.2.4,Win32,59.52380952,ad340343-3064-4a1f-a16e-218d8e047c8c,4,402.1559,403.8549,space,1,0.3483,,0,3,3,23,1,Y,space,,,,,,,,,,
,,,,,R_4NlWCy4oIukPjaw,001,2025-08-28_12h37.48.038,continuous_performance_test,2024.2.4,Win32,59.52380952,ad340343-3064-4a1f-a16e-218d8e047c8c,4,403.8572,405.6048,space,1,0.3814,,0,4,4,3,1,D,space,,,,,,,,,,
,,,,,R_4NlWCy4oIukPjaw,001,2025-08-28_12h37.48.038,continuous_performance_test,2024.2.4,Win32,59.52380952,ad340343-3064-4a1f-a16e-218d8e047c8c,4,405.6073,407.205,space,1,0.3326,,0,5,5,6,1,G,space,,,,,,,,,,
,,,,,R_4NlWCy4oIukPjaw,001,2025-08-28_12h37.48.038,continuous_performance_test,2024.2.4,Win32,59.52380952,ad340343-3064-4a1f-a16e-218d8e047c8c,4,407.2071,408.8546,space,0,0.0997,,0,6,6,28,1,X,,,,,,,,,,,
,,,,,R_4NlWCy4oIukPjaw,001,2025-08-28_12h37.48.038,continuous_performance_test,2024.2.4,Win32,59.52380952,ad340343-3064-4a1f-a16e-218d8e047c8c,4,408.8566,410.807,space,0,0.3542,,0,7,7,27,1,X,,,,,,,,,,,
,,,,,R_4NlWCy4oIukPjaw,001,2025-08-28_12h37.48.038,continuous_performance_test,2024.2.4,Win32,59.52380952,ad340343-3064-4a1f-a16e-218d8e047c8c,4,410.8087,412.4039,space,1,0.5848,,0,8,8,21,1,V,space,,,,,,,,,,
,,,,,R_4NlWCy4oIukPjaw,001,2025-08-28_12h37.48.038,continuous_performance_test,2024.2.4,Win32,59.52380952,ad340343-3064-4a1f-a16e-218d8e047c8c,4,412.4049,414.1043,space,1,0.3268,,0,9,9,7,1,H,space,,,,,,,,,,
,,,,,R_4NlWCy4oIukPjaw,001,2025-08-28_12h37.48.038,continuous_performance_test,2024.2.4,Win32,59.52380952,ad340343-3064-4a1f-a16e-218d8e047c8c,4,414.1068,416.0046,space,1,0.2877,,0,10,10,24,1,Z,space,,,,,,,,,,
,,,,,R_4NlWCy4oIukPjaw,001,2025-08-28_12h37.48.038,continuous_performance_test,2024.2.4,Win32,59.52380952,ad340343-3064-4a1f-a16e-218d8e047c8c,4,416.0066,417.6543,space,1,0.3339,,0,11,11,16,1,Q,space,,,,,,,,,,
,,,,,R_4NlWCy4oIukPjaw,001,2025-08-28_12h37.48.038,continuous_performance_test,2024.2.4,Win32,59.52380952,ad340343-3064-4a1f-a16e-218d8e047c8c,4,417.6568,419.6545,space,1,0.3021,,0,12,12,8,1,I,space,,,,,,,,,,
,,,,,R_4NlWCy4oIukPjaw,001,2025-08-28_12h37.48.038,continuous_performance_test,2024.2.4,Win32,59.52380952,ad340343-3064-4a1f-a16e-218d8e047c8c,4,419.6567,421.6542,space,1,0.5176,,0,13,13,0,1,A,space,,,,,,,,,,
,,,,,R_4NlWCy4oIukPjaw,001,2025-08-28_12h37.48.038,continuous_performance_test,2024.2.4,Win32,59.52380952,ad340343-3064-4a1f-a16e-218d8e047c8c,4,421.6569,423.4541,space,1,0.2889,,0,14,14,13,1,N,space,,,,,,,,,,
,,,,,R_4NlWCy4oIukPjaw,001,2025-08-28_12h37.48.038,continuous_performance_test,2024.2.4,Win32,59.52380952,ad340343-3064-4a1f-a16e-218d8e047c8c,4,423.4564,425.3544,space,1,0.5512,,0,15,15,10,1,K,space,,,,,,,,,,
,,,,,R_4NlWCy4oIukPjaw,001,2025-08-28_12h37.48.038,continuous_performance_test,2024.2.4,Win32,59.52380952,ad340343-3064-4a1f-a16e-218d8e047c8c,4,425.3566,427.054,,1,,,0,16,16,29,1,X,,,,,,,,,,,
,,,,,R_4NlWCy4oIukPjaw,001,2025-08-28_12h37.48.038,continuous_performance_test,2024.2.4,Win32,59.52380952,ad340343-3064-4a1f-a16e-218d8e047c8c,4,427.0555,428.7038,space,1,0.3998,,0,17,17,9,1,J,space,,,,,,,,,,
,,,,,R_4NlWCy4oIukPjaw,001,2025-08-28_12h37.48.038,continuous_performance_test,2024.2.4,Win32,59.52380952,ad340343-3064-4a1f-a16e-218d8e047c8c,4,428.7054,430.4541,,1,,,0,18,18,26,1,X,,,,,,,,,,,
,,,,,R_4NlWCy4oIukPjaw,001,2025-08-28_12h37.48.038,continuous_performance_test,2024.2.4,Win32,59.52380952,ad340343-3064-4a1f-a16e-218d8e047c8c,4,430.456,432.3038,space,1,0.469,,0,19,19,19,1,T,space,,,,,,,,,,
,,,,,R_4NlWCy4oIukPjaw,001,2025-08-28_12h37.48.038,continuous_performance_test,2024.2.4,Win32,59.52380952,ad340343-3064-4a1f-a16e-218d8e047c8c,4,432.3054,434.2541,space,1,0.4703,,0,20,20,20,1,U,space,,,,,,,,,,
,,,,,R_4NlWCy4oIukPjaw,001,2025-08-28_12h37.48.038,continuous_performance_test,2024.2.4,Win32,59.52380952,ad340343-3064-4a1f-a16e-218d8e047c8c,4,434.2564,436.1043,space,1,0.3826,,0,21,21,17,1,R,space,,,,,,,,,,
,,,,,R_4NlWCy4oIukPjaw,001,2025-08-28_12h37.48.038,continuous_performance_test,2024.2.4,Win32,59.52380952,ad340343-3064-4a1f-a16e-218d8e047c8c,4,436.1065,437.7034,space,1,0.4054,,0,22,22,1,1,B,space,,,,,,,,,,
,,,,,R_4NlWCy4oIukPjaw,001,2025-08-28_12h37.48.038,continuous_performance_test,2024.2.4,Win32,59.52380952,ad340343-3064-4a1f-a16e-218d8e047c8c,4,437.7053,439.4035,space,1,0.3855,,0,23,23,11,1,L,space,,,,,,,,,,
,,,,,R_4NlWCy4oIukPjaw,001,2025-08-28_12h37.48.038,continuous_performance_test,2024.2.4,Win32,59.52380952,ad340343-3064-4a1f-a16e-218d8e047c8c,4,439.4064,441.0537,space,1,0.4156,,0,24,24,12,1,M,space,,,,,,,,,,
,,,,,R_4NlWCy4oIukPjaw,001,2025-08-28_12h37.48.038,continuous_performance_test,2024.2.4,Win32,59.52380952,ad340343-3064-4a1f-a16e-218d8e047c8c,4,441.0559,442.8028,space,1,0.4356,,0,25,25,15,1,P,space,,,,,,,,,,
,,,,,R_4NlWCy4oIukPjaw,001,2025-08-28_12h37.48.038,continuous_performance_test,2024.2.4,Win32,59.52380952,ad340343-3064-4a1f-a16e-218d8e047c8c,4,442.8038,444.5558,space,0,0.3734,,0,26,26,25,1,X,,,,,,,,,,,
,,,,,R_4NlWCy4oIukPjaw,001,2025-08-28_12h37.48.038,continuous_performance_test,2024.2.4,Win32,59.52380952,ad340343-3064-4a1f-a16e-218d8e047c8c,4,444.5578,446.3537,space,1,0.3215,,0,27,27,4,1,E,space,,,,,,,,,,
,,,,,R_4NlWCy4oIukPjaw,001,2025-08-28_12h37.48.038,continuous_performance_test,2024.2.4,Win32,59.52380952,ad340343-3064-4a1f-a16e-218d8e047c8c,4,446.3559,448.3033,space,1,0.3145,,0,28,28,18,1,S,space,,,,,,,,,,
,,,,,R_4NlWCy4oIukPjaw,001,2025-08-28_12h37.48.038,continuous_performance_test,2024.2.4,Win32,59.52380952,ad340343-3064-4a1f-a16e-218d8e047c8c,4,448.3056,449.8542,space,1,0.4219,,0,29,29,22,1,W,space,,,,,,,,,,
,,,,,R_4NlWCy4oIukPjaw,001,2025-08-28_12h37.48.038,continuous_performance_test,2024.2.4,Win32,59.52380952,ad340343-3064-4a1f-a16e-218d8e047c8c,4,450.7935,452.3388,space,1,0.3887,,0,0,0,24,1,Z,space,449.8556,450.7864,space,0.9164,,,,,,
,,,,,R_4NlWCy4oIukPjaw,001,2025-08-28_12h37.48.038,continuous_performance_test,2024.2.4,Win32,59.52380952,ad340343-3064-4a1f-a16e-218d8e047c8c,4,452.3401,454.1862,space,1,0.4497,,0,1,1,21,1,V,space,,,,,,,,,,
,,,,,R_4NlWCy4oIukPjaw,001,2025-08-28_12h37.48.038,continuous_performance_test,2024.2.4,Win32,59.52380952,ad340343-3064-4a1f-a16e-218d8e047c8c,4,454.1881,456.0364,space,1,0.3986,,0,2,2,17,1,R,space,,,,,,,,,,
,,,,,R_4NlWCy4oIukPjaw,001,2025-08-28_12h37.48.038,continuous_performance_test,2024.2.4,Win32,59.52380952,ad340343-3064-4a1f-a16e-218d8e047c8c,4,456.0388,457.9365,space,1,0.351,,0,3,3,14,1,O,space,,,,,,,,,,
,,,,,R_4NlWCy4oIukPjaw,001,2025-08-28_12h37.48.038,continuous_performance_test,2024.2.4,Win32,59.52380952,ad340343-3064-4a1f-a16e-218d8e047c8c,4,457.9388,459.5365,space,1,0.4203,,0,4,4,1,1,B,space,,,,,,,,,,
,,,,,R_4NlWCy4oIukPjaw,001,2025-08-28_12h37.48.038,continuous_performance_test,2024.2.4,Win32,59.52380952,ad340343-3064-4a1f-a16e-218d8e047c8c,4,459.5393,461.0864,,1,,,0,5,5,26,1,X,,,,,,,,,,,
,,,,,R_4NlWCy4oIukPjaw,001,2025-08-28_12h37.48.038,continuous_performance_test,2024.2.4,Win32,59.52380952,ad340343-3064-4a1f-a16e-218d8e047c8c,4,461.0889,462.6355,space,1,0.642,,0,6,6,18,1,S,space,,,,,,,,,,
,,,,,R_4NlWCy4oIukPjaw,001,2025-08-28_12h37.48.038,continuous_performance_test,2024.2.4,Win32,59.52380952,ad340343-3064-4a1f-a16e-218d8e047c8c,4,462.6361,464.4365,space,1,0.4855,,0,7,7,7,1,H,space,,,,,,,,,,
,,,,,R_4NlWCy4oIukPjaw,001,2025-08-28_12h37.48.038,continuous_performance_test,2024.2.4,Win32,59.52380952,ad340343-3064-4a1f-a16e-218d8e047c8c,4,464.4387,466.1869,space,1,0.3845,,0,8,8,0,1,A,space,,,,,,,,,,
,,,,,R_4NlWCy4oIukPjaw,001,2025-08-28_12h37.48.038,continuous_performance_test,2024.2.4,Win32,59.52380952,ad340343-3064-4a1f-a16e-218d8e047c8c,4,466.1892,467.8864,space,1,0.364,,0,9,9,13,1,N,space,,,,,,,,,,
,,,,,R_4NlWCy4oIukPjaw,001,2025-08-28_12h37.48.038,continuous_performance_test,2024.2.4,Win32,59.52380952,ad340343-3064-4a1f-a16e-218d8e047c8c,4,467.8888,469.7361,space,1,0.3485,,0,10,10,15,1,P,space,,,,,,,,,,
,,,,,R_4NlWCy4oIukPjaw,001,2025-08-28_12h37.48.038,continuous_performance_test,2024.2.4,Win32,59.52380952,ad340343-3064-4a1f-a16e-218d8e047c8c,4,469.7386,471.6879,space,1,0.3654,,0,11,11,23,1,Y,space,,,,,,,,,,
,,,,,R_4NlWCy4oIukPjaw,001,2025-08-28_12h37.48.038,continuous_performance_test,2024.2.4,Win32,59.52380952,ad340343-3064-4a1f-a16e-218d8e047c8c,4,471.6895,473.5873,space,1,0.364,,0,12,12,22,1,W,space,,,,,,,,,,
,,,,,R_4NlWCy4oIukPjaw,001,2025-08-28_12h37.48.038,continuous_performance_test,2024.2.4,Win32,59.52380952,ad340343-3064-4a1f-a16e-218d8e047c8c,4,473.5892,475.4358,space,0,0.3489,,0,13,13,27,1,X,,,,,,,,,,,
,,,,,R_4NlWCy4oIukPjaw,001,2025-08-28_12h37.48.038,continuous_performance_test,2024.2.4,Win32,59.52380952,ad340343-3064-4a1f-a16e-218d8e047c8c,4,475.4378,476.9859,space,1,0.433,,0,14,14,2,1,C,space,,,,,,,,,,
,,,,,R_4NlWCy4oIukPjaw,001,2025-08-28_12h37.48.038,continuous_performance_test,2024.2.4,Win32,59.52380952,ad340343-3064-4a1f-a16e-218d8e047c8c,4,476.9882,478.5861,space,1,0.4587,,0,15,15,19,1,T,space,,,,,,,,,,
,,,,,R_4NlWCy4oIukPjaw,001,2025-08-28_12h37.48.038,continuous_performance_test,2024.2.4,Win32,59.52380952,ad340343-3064-4a1f-a16e-218d8e047c8c,4,478.5882,480.3359,space,1,0.4056,,0,16,16,12,1,M,space,,,,,,,,,,
,,,,,R_4NlWCy4oIukPjaw,001,2025-08-28_12h37.48.038,continuous_performance_test,2024.2.4,Win32,59.52380952,ad340343-3064-4a1f-a16e-218d8e047c8c,4,480.3379,482.237,space,1,0.3676,,0,17,17,20,1,U,space,,,,,,,,,,
,,,,,R_4NlWCy4oIukPjaw,001,2025-08-28_12h37.48.038,continuous_performance_test,2024.2.4,Win32,59.52380952,ad340343-3064-4a1f-a16e-218d8e047c8c,4,482.2382,483.9373,space,1,0.3411,,0,18,18,5,1,F,space,,,,,,,,,,
,,,,,R_4NlWCy4oIukPjaw,001,2025-08-28_12h37.48.038,continuous_performance_test,2024.2.4,Win32,59.52380952,ad340343-3064-4a1f-a16e-218d8e047c8c,4,483.9391,485.5357,space,1,0.3826,,0,19,19,3,1,D,space,,,,,,,,,,
,,,,,R_4NlWCy4oIukPjaw,001,2025-08-28_12h37.48.038,continuous_performance_test,2024.2.4,Win32,59.52380952,ad340343-3064-4a1f-a16e-218d8e047c8c,4,485.5383,487.2355,,1,,,0,20,20,29,1,X,,,,,,,,,,,
,,,,,R_4NlWCy4oIukPjaw,001,2025-08-28_12h37.48.038,continuous_performance_test,2024.2.4,Win32,59.52380952,ad340343-3064-4a1f-a16e-218d8e047c8c,4,487.2379,489.1861,space,1,0.4578,,0,21,21,10,1,K,space,,,,,,,,,,
,,,,,R_4NlWCy4oIukPjaw,001,2025-08-28_12h37.48.038,continuous_performance_test,2024.2.4,Win32,59.52380952,ad340343-3064-4a1f-a16e-218d8e047c8c,4,489.1878,491.1353,space,1,0.3991,,0,22,22,4,1,E,space,,,,,,,,,,
,,,,,R_4NlWCy4oIukPjaw,001,2025-08-28_12h37.48.038,continuous_performance_test,2024.2.4,Win32,59.52380952,ad340343-3064-4a1f-a16e-218d8e047c8c,4,491.1379,493.0354,space,1,0.3151,,0,23,23,16,1,Q,space,,,,,,,,,,
,,,,,R_4NlWCy4oIukPjaw,001,2025-08-28_12h37.48.038,continuous_performance_test,2024.2.4,Win32,59.52380952,ad340343-3064-4a1f-a16e-218d8e047c8c,4,493.037,494.7351,space,1,0.3167,,0,24,24,6,1,G,space,,,,,,,,,,
,,,,,R_4NlWCy4oIukPjaw,001,2025-08-28_12h37.48.038,continuous_performance_test,2024.2.4,Win32,59.52380952,ad340343-3064-4a1f-a16e-218d8e047c8c,4,494.7368,496.5851,space,1,0.125,,0,25,25,9,1,J,space,,,,,,,,,,
,,,,,R_4NlWCy4oIukPjaw,001,2025-08-28_12h37.48.038,continuous_performance_test,2024.2.4,Win32,59.52380952,ad340343-3064-4a1f-a16e-218d8e047c8c,4,496.5877,498.4856,space,1,0.3671,,0,26,26,11,1,L,space,,,,,,,,,,
,,,,,R_4NlWCy4oIukPjaw,001,2025-08-28_12h37.48.038,continuous_performance_test,2024.2.4,Win32,59.52380952,ad340343-3064-4a1f-a16e-218d8e047c8c,4,498.4879,500.0858,space,1,0.416,,0,27,27,8,1,I,space,,,,,,,,,,
,,,,,R_4NlWCy4oIukPjaw,001,2025-08-28_12h37.48.038,continuous_performance_test,2024.2.4,Win32,59.52380952,ad340343-3064-4a1f-a16e-218d8e047c8c,4,500.0879,501.8353,,1,,,0,28,28,25,1,X,,,,,,,,,,,
,,,,,R_4NlWCy4oIukPjaw,001,2025-08-28_12h37.48.038,continuous_performance_test,2024.2.4,Win32,59.52380952,ad340343-3064-4a1f-a16e-218d8e047c8c,4,501.8369,503.7853,,1,,,0,29,29,28,1,X,,,,,,,,,,,
,,,,,R_4NlWCy4oIukPjaw,001,2025-08-28_12h37.48.038,continuous_performance_test,2024.2.4,Win32,59.52380952,ad340343-3064-4a1f-a16e-218d8e047c8c,4,504.5445,506.3852,space,1,0.404,,0,0,0,3,1,D,space,503.7872,504.5353,space,0.7349,,,,,,
,,,,,R_4NlWCy4oIukPjaw,001,2025-08-28_12h37.48.038,continuous_performance_test,2024.2.4,Win32,59.52380952,ad340343-3064-4a1f-a16e-218d8e047c8c,4,506.3873,507.9853,space,1,0.5095,,0,1,1,0,1,A,space,,,,,,,,,,
,,,,,R_4NlWCy4oIukPjaw,001,2025-08-28_12h37.48.038,continuous_performance_test,2024.2.4,Win32,59.52380952,ad340343-3064-4a1f-a16e-218d8e047c8c,4,507.9876,509.9361,space,0,0.2862,,0,2,2,27,1,X,,,,,,,,,,,
,,,,,R_4NlWCy4oIukPjaw,001,2025-08-28_12h37.48.038,continuous_performance_test,2024.2.4,Win32,59.52380952,ad340343-3064-4a1f-a16e-218d8e047c8c,4,509.938,511.6355,space,1,0.3153,,0,3,3,6,1,G,space,,,,,,,,,,
,,,,,R_4NlWCy4oIukPjaw,001,2025-08-28_12h37.48.038,continuous_performance_test,2024.2.4,Win32,59.52380952,ad340343-3064-4a1f-a16e-218d8e047c8c,4,511.6378,513.3849,space,1,0.3249,,0,4,4,14,1,O,space,,,,,,,,,,
,,,,,R_4NlWCy4oIukPjaw,001,2025-08-28_12h37.48.038,continuous_performance_test,2024.2.4,Win32,59.52380952,ad340343-3064-4a1f-a16e-218d8e047c8c,4,513.3874,515.086,space,1,0.3609,,0,5,5,19,1,T,space,,,,,,,,,,
,,,,,R_4NlWCy4oIukPjaw,001,2025-08-28_12h37.48.038,continuous_performance_test,2024.2.4,Win32,59.52380952,ad340343-3064-4a1f-a16e-218d8e047c8c,4,515.0881,516.9848,space,1,0.3159,,0,6,6,22,1,W,space,,,,,,,,,,
,,,,,R_4NlWCy4oIukPjaw,001,2025-08-28_12h37.48.038,continuous_performance_test,2024.2.4,Win32,59.52380952,ad340343-3064-4a1f-a16e-218d8e047c8c,4,516.9871,518.9851,space,1,0.4489,,0,7,7,21,1,V,space,,,,,,,,,,
,,,,,R_4NlWCy4oIukPjaw,001,2025-08-28_12h37.48.038,continuous_performance_test,2024.2.4,Win32,59.52380952,ad340343-3064-4a1f-a16e-218d8e047c8c,4,518.9873,520.5353,space,1,0.302,,0,8,8,8,1,I,space,,,,,,,,,,
,,,,,R_4NlWCy4oIukPjaw,001,2025-08-28_12h37.48.038,continuous_performance_test,2024.2.4,Win32,59.52380952,ad340343-3064-4a1f-a16e-218d8e047c8c,4,520.5366,522.1373,space,0,0.301,,0,9,9,28,1,X,,,,,,,,,,,
,,,,,R_4NlWCy4oIukPjaw,001,2025-08-28_12h37.48.038,continuous_performance_test,2024.2.4,Win32,59.52380952,ad340343-3064-4a1f-a16e-218d8e047c8c,4,522.1388,523.885,,1,,,0,10,10,25,1,X,,,,,,,,,,,
,,,,,R_4NlWCy4oIukPjaw,001,2025-08-28_12h37.48.038,continuous_performance_test,2024.2.4,Win32,59.52380952,ad340343-3064-4a1f-a16e-218d8e047c8c,4,523.8875,525.8847,space,1,0.3333,,0,11,11,12,1,M,space,,,,,,,,,,
,,,,,R_4NlWCy4oIukPjaw,001,2025-08-28_12h37.48.038,continuous_performance_test,2024.2.4,Win32,59.52380952,ad340343-3064-4a1f-a16e-218d8e047c8c,4,525.8873,527.7346,space,1,0.3996,,0,12,12,10,1,K,space,,,,,,,,,,
,,,,,R_4NlWCy4oIukPjaw,001,2025-08-28_12h37.48.038,continuous_performance_test,2024.2.4,Win32,59.52380952,ad340343-3064-4a1f-a16e-218d8e047c8c,4,527.7365,529.5349,space,1,0.3661,,0,13,13,7,1,H,space,,,,,,,,,,
,,,,,R_4NlWCy4oIukPjaw,001,2025-08-28_12h37.48.038,continuous_performance_test,2024.2.4,Win32,59.52380952,ad340343-3064-4a1f-a16e-218d8e047c8c,4,529.5369,531.2346,space,1,0.3489,,0,14,14,1,1,B,space,,,,,,,,,,
,,,,,R_4NlWCy4oIukPjaw,001,2025-08-28_12h37.48.038,continuous_performance_test,2024.2.4,Win32,59.52380952,ad340343-3064-4a1f-a16e-218d8e047c8c,4,531.2366,532.7843,space,1,0.4334,,0,15,15,11,1,L,space,,,,,,,,,,
,,,,,R_4NlWCy4oIukPjaw,001,2025-08-28_12h37.48.038,continuous_performance_test,2024.2.4,Win32,59.52380952,ad340343-3064-4a1f-a16e-218d8e047c8c,4,532.7862,534.4845,space,1,0.3825,,0,16,16,2,1,C,space,,,,,,,,,,
,,,,,R_4NlWCy4oIukPjaw,001,2025-08-28_12h37.48.038,continuous_performance_test,2024.2.4,Win32,59.52380952,ad340343-3064-4a1f-a16e-218d8e047c8c,4,534.4866,536.1844,space,1,0.3845,,0,17,17,24,1,Z,space,,,,,,,,,,
,,,,,R_4NlWCy4oIukPjaw,001,2025-08-28_12h37.48.038,continuous_performance_test,2024.2.4,Win32,59.52380952,ad340343-3064-4a1f-a16e-218d8e047c8c,4,536.1866,537.9346,space,1,0.383,,0,18,18,15,1,P,space,,,,,,,,,,
,,,,,R_4NlWCy4oIukPjaw,001,2025-08-28_12h37.48.038,continuous_performance_test,2024.2.4,Win32,59.52380952,ad340343-3064-4a1f-a16e-218d8e047c8c,4,537.9366,539.4843,space,1,0.3484,,0,19,19,18,1,S,space,,,,,,,,,,
,,,,,R_4NlWCy4oIukPjaw,001,2025-08-28_12h37.48.038,continuous_performance_test,2024.2.4,Win32,59.52380952,ad340343-3064-4a1f-a16e-218d8e047c8c,4,539.4866,541.0841,space,1,0.3851,,0,20,20,23,1,Y,space,,,,,,,,,,
,,,,,R_4NlWCy4oIukPjaw,001,2025-08-28_12h37.48.038,continuous_performance_test,2024.2.4,Win32,59.52380952,ad340343-3064-4a1f-a16e-218d8e047c8c,4,541.0863,543.0841,space,1,0.3829,,0,21,21,9,1,J,space,,,,,,,,,,
,,,,,R_4NlWCy4oIukPjaw,001,2025-08-28_12h37.48.038,continuous_performance_test,2024.2.4,Win32,59.52380952,ad340343-3064-4a1f-a16e-218d8e047c8c,4,543.0864,544.7841,space,1,0.3485,,0,22,22,20,1,U,space,,,,,,,,,,
,,,,,R_4NlWCy4oIukPjaw,001,2025-08-28_12h37.48.038,continuous_performance_test,2024.2.4,Win32,59.52380952,ad340343-3064-4a1f-a16e-218d8e047c8c,4,544.7863,546.4344,space,1,0.3645,,0,23,23,4,1,E,space,,,,,,,,,,
,,,,,R_4NlWCy4oIukPjaw,001,2025-08-28_12h37.48.038,continuous_performance_test,2024.2.4,Win32,59.52380952,ad340343-3064-4a1f-a16e-218d8e047c8c,4,546.4369,548.0843,space,1,0.3912,,0,24,24,16,1,Q,space,,,,,,,,,,
,,,,,R_4NlWCy4oIukPjaw,001,2025-08-28_12h37.48.038,continuous_performance_test,2024.2.4,Win32,59.52380952,ad340343-3064-4a1f-a16e-218d8e047c8c,4,548.0868,550.0838,space,1,0.3947,,0,25,25,13,1,N,space,,,,,,,,,,
,,,,,R_4NlWCy4oIukPjaw,001,2025-08-28_12h37.48.038,continuous_performance_test,2024.2.4,Win32,59.52380952,ad340343-3064-4a1f-a16e-218d8e047c8c,4,550.0862,551.8845,,1,,,0,26,26,29,1,X,,,,,,,,,,,
,,,,,R_4NlWCy4oIukPjaw,001,2025-08-28_12h37.48.038,continuous_performance_test,2024.2.4,Win32,59.52380952,ad340343-3064-4a1f-a16e-218d8e047c8c,4,551.8863,553.5337,space,1,0.4147,,0,27,27,5,1,F,space,,,,,,,,,,
,,,,,R_4NlWCy4oIukPjaw,001,2025-08-28_12h37.48.038,continuous_performance_test,2024.2.4,Win32,59.52380952,ad340343-3064-4a1f-a16e-218d8e047c8c,4,553.5359,555.4833,,1,,,0,28,28,26,1,X,,,,,,,,,,,
,,,,,R_4NlWCy4oIukPjaw,001,2025-08-28_12h37.48.038,continuous_performance_test,2024.2.4,Win32,59.52380952,ad340343-3064-4a1f-a16e-218d8e047c8c,4,555.485,557.1838,space,1,0.3564,,0,29,29,17,1,R,space,,,,,,,,,,
,,,,,R_4NlWCy4oIukPjaw,001,2025-08-28_12h37.48.038,continuous_performance_test,2024.2.4,Win32,59.52380952,ad340343-3064-4a1f-a16e-218d8e047c8c,4,,,,,,,,,,,,,,557.1855,557.1864,,,,557.187,562.7009,space,5.4953,
