Instructions.started,Instructions.stopped,key_resp.keys,key_resp.rt,key_resp.duration,participant,session,date,expName,psychopyVersion,OS,frameRate,realeye-tester-id,realeye-tester-quality_grade,Trial_noX.started,Trial_noX.stopped,response.keys,response.corr,response.rt,response.duration,trials_noX.thisRepN,trials_noX.thisTrialN,trials_noX.thisN,trials_noX.thisIndex,trials_noX.ran,letter,corrAns,BlockBreak.started,BlockBreak.stopped,key_instruct.keys,key_instruct.rt,key_instruct.duration,End_NoX.started,End_NoX.stopped,key_resp_end_noX.keys,key_resp_end_noX.rt,key_resp_end_noX.duration
0.0005,17.3042,space,17.2908,,R_4nx6fUwBwTjASgF,001,2025-09-16_14h57.50.580,continuous_performance_test,2024.2.4,MacIntel,59.88023952,bb493323-7e6f-414d-aa5f-d5933fc61ef1,5,,,,,,,,,,,,,,,,,,,,,,,
,,,,,R_4nx6fUwBwTjASgF,001,2025-09-16_14h57.50.580,continuous_performance_test,2024.2.4,MacIntel,59.88023952,bb493323-7e6f-414d-aa5f-d5933fc61ef1,5,17.3166,19.0214,space,1,0.5699,,0,0,0,20,1,U,space,,,,,,,,,,
,,,,,R_4nx6fUwBwTjASgF,001,2025-09-16_14h57.50.580,continuous_performance_test,2024.2.4,MacIntel,59.88023952,bb493323-7e6f-414d-aa5f-d5933fc61ef1,5,19.024,20.6209,space,1,0.5247,,0,1,1,6,1,G,space,,,,,,,,,,
,,,,,R_4nx6fUwBwTjASgF,001,2025-09-16_14h57.50.580,continuous_performance_test,2024.2.4,MacIntel,59.88023952,bb493323-7e6f-414d-aa5f-d5933fc61ef1,5,20.624,22.3702,space,1,0.2625,,0,2,2,17,1,R,space,,,,,,,,,,
,,,,,R_4nx6fUwBwTjASgF,001,2025-09-16_14h57.50.580,continuous_performance_test,2024.2.4,MacIntel,59.88023952,bb493323-7e6f-414d-aa5f-d5933fc61ef1,5,22.3715,24.2209,space,1,0.2948,,0,3,3,18,1,S,space,,,,,,,,,,
,,,,,R_4nx6fUwBwTjASgF,001,2025-09-16_14h57.50.580,continuous_performance_test,2024.2.4,MacIntel,59.88023952,bb493323-7e6f-414d-aa5f-d5933fc61ef1,5,24.2226,25.9209,space,0,0.2761,,0,4,4,27,1,X,,,,,,,,,,,
,,,,,R_4nx6fUwBwTjASgF,001,2025-09-16_14h57.50.580,continuous_performance_test,2024.2.4,MacIntel,59.88023952,bb493323-7e6f-414d-aa5f-d5933fc61ef1,5,25.9227,27.7202,space,1,0.3056,,0,5,5,1,1,B,space,,,,,,,,,,
,,,,,R_4nx6fUwBwTjASgF,001,2025-09-16_14h57.50.580,continuous_performance_test,2024.2.4,MacIntel,59.88023952,bb493323-7e6f-414d-aa5f-d5933fc61ef1,5,27.7217,29.6209,space,1,0.2766,,0,6,6,23,1,Y,space,,,,,,,,,,
,,,,,R_4nx6fUwBwTjASgF,001,2025-09-16_14h57.50.580,continuous_performance_test,2024.2.4,MacIntel,59.88023952,bb493323-7e6f-414d-aa5f-d5933fc61ef1,5,29.6225,31.221,space,1,0.3273,,0,7,7,12,1,M,space,,,,,,,,,,
,,,,,R_4nx6fUwBwTjASgF,001,2025-09-16_14h57.50.580,continuous_performance_test,2024.2.4,MacIntel,59.88023952,bb493323-7e6f-414d-aa5f-d5933fc61ef1,5,31.2235,33.071,space,0,0.3012,,0,8,8,29,1,X,,,,,,,,,,,
,,,,,R_4nx6fUwBwTjASgF,001,2025-09-16_14h57.50.580,continuous_performance_test,2024.2.4,MacIntel,59.88023952,bb493323-7e6f-414d-aa5f-d5933fc61ef1,5,33.0725,34.8207,space,1,0.2774,,0,9,9,19,1,T,space,,,,,,,,,,
,,,,,R_4nx6fUwBwTjASgF,001,2025-09-16_14h57.50.580,continuous_performance_test,2024.2.4,MacIntel,59.88023952,bb493323-7e6f-414d-aa5f-d5933fc61ef1,5,34.8212,36.8205,space,1,0.2596,,0,10,10,14,1,O,space,,,,,,,,,,
,,,,,R_4nx6fUwBwTjASgF,001,2025-09-16_14h57.50.580,continuous_performance_test,2024.2.4,MacIntel,59.88023952,bb493323-7e6f-414d-aa5f-d5933fc61ef1,5,36.8221,38.4211,space,1,0.3287,,0,11,11,5,1,F,space,,,,,,,,,,
,,,,,R_4nx6fUwBwTjASgF,001,2025-09-16_14h57.50.580,continuous_performance_test,2024.2.4,MacIntel,59.88023952,bb493323-7e6f-414d-aa5f-d5933fc61ef1,5,38.4227,40.4213,space,1,0.4045,,0,12,12,9,1,J,space,,,,,,,,,,
,,,,,R_4nx6fUwBwTjASgF,001,2025-09-16_14h57.50.580,continuous_performance_test,2024.2.4,MacIntel,59.88023952,bb493323-7e6f-414d-aa5f-d5933fc61ef1,5,40.4229,42.2215,space,1,0.3525,,0,13,13,15,1,P,space,,,,,,,,,,
,,,,,R_4nx6fUwBwTjASgF,001,2025-09-16_14h57.50.580,continuous_performance_test,2024.2.4,MacIntel,59.88023952,bb493323-7e6f-414d-aa5f-d5933fc61ef1,5,42.2241,43.8715,space,1,0.4261,,0,14,14,3,1,D,space,,,,,,,,,,
,,,,,R_4nx6fUwBwTjASgF,001,2025-09-16_14h57.50.580,continuous_performance_test,2024.2.4,MacIntel,59.88023952,bb493323-7e6f-414d-aa5f-d5933fc61ef1,5,43.8731,45.4714,space,1,0.344,,0,15,15,13,1,N,space,,,,,,,,,,
,,,,,R_4nx6fUwBwTjASgF,001,2025-09-16_14h57.50.580,continuous_performance_test,2024.2.4,MacIntel,59.88023952,bb493323-7e6f-414d-aa5f-d5933fc61ef1,5,45.473,47.4709,space,1,0.2786,,0,16,16,2,1,C,space,,,,,,,,,,
,,,,,R_4nx6fUwBwTjASgF,001,2025-09-16_14h57.50.580,continuous_performance_test,2024.2.4,MacIntel,59.88023952,bb493323-7e6f-414d-aa5f-d5933fc61ef1,5,47.4723,49.0216,space,1,0.2503,,0,17,17,11,1,L,space,,,,,,,,,,
,,,,,R_4nx6fUwBwTjASgF,001,2025-09-16_14h57.50.580,continuous_performance_test,2024.2.4,MacIntel,59.88023952,bb493323-7e6f-414d-aa5f-d5933fc61ef1,5,49.0244,50.5713,space,0,0.2692,,0,18,18,26,1,X,,,,,,,,,,,
,,,,,R_4nx6fUwBwTjASgF,001,2025-09-16_14h57.50.580,continuous_performance_test,2024.2.4,MacIntel,59.88023952,bb493323-7e6f-414d-aa5f-d5933fc61ef1,5,50.5723,52.5715,space,1,0.3037,,0,19,19,0,1,A,space,,,,,,,,,,
,,,,,R_4nx6fUwBwTjASgF,001,2025-09-16_14h57.50.580,continuous_performance_test,2024.2.4,MacIntel,59.88023952,bb493323-7e6f-414d-aa5f-d5933fc61ef1,5,52.5729,54.221,space,1,0.3003,,0,20,20,22,1,W,space,,,,,,,,,,
,,,,,R_4nx6fUwBwTjASgF,001,2025-09-16_14h57.50.580,continuous_performance_test,2024.2.4,MacIntel,59.88023952,bb493323-7e6f-414d-aa5f-d5933fc61ef1,5,54.2227,56.1215,,0,,,0,21,21,7,1,H,space,,,,,,,,,,
,,,,,R_4nx6fUwBwTjASgF,001,2025-09-16_14h57.50.580,continuous_performance_test,2024.2.4,MacIntel,59.88023952,bb493323-7e6f-414d-aa5f-d5933fc61ef1,5,56.1229,57.6705,space,1,0.614,,0,22,22,8,1,I,space,,,,,,,,,,
,,,,,R_4nx6fUwBwTjASgF,001,2025-09-16_14h57.50.580,continuous_performance_test,2024.2.4,MacIntel,59.88023952,bb493323-7e6f-414d-aa5f-d5933fc61ef1,5,57.6715,59.6717,space,1,0.4104,,0,23,23,24,1,Z,space,,,,,,,,,,
,,,,,R_4nx6fUwBwTjASgF,001,2025-09-16_14h57.50.580,continuous_performance_test,2024.2.4,MacIntel,59.88023952,bb493323-7e6f-414d-aa5f-d5933fc61ef1,5,59.6733,61.4207,space,0,0.3822,,0,24,24,28,1,X,,,,,,,,,,,
,,,,,R_4nx6fUwBwTjASgF,001,2025-09-16_14h57.50.580,continuous_performance_test,2024.2.4,MacIntel,59.88023952,bb493323-7e6f-414d-aa5f-d5933fc61ef1,5,61.4225,62.9718,space,1,0.4613,,0,25,25,16,1,Q,space,,,,,,,,,,
,,,,,R_4nx6fUwBwTjASgF,001,2025-09-16_14h57.50.580,continuous_performance_test,2024.2.4,MacIntel,59.88023952,bb493323-7e6f-414d-aa5f-d5933fc61ef1,5,62.9729,64.5218,space,1,0.3059,,0,26,26,21,1,V,space,,,,,,,,,,
,,,,,R_4nx6fUwBwTjASgF,001,2025-09-16_14h57.50.580,continuous_performance_test,2024.2.4,MacIntel,59.88023952,bb493323-7e6f-414d-aa5f-d5933fc61ef1,5,64.5231,66.3211,space,1,0.3298,,0,27,27,4,1,E,space,,,,,,,,,,
,,,,,R_4nx6fUwBwTjASgF,001,2025-09-16_14h57.50.580,continuous_performance_test,2024.2.4,MacIntel,59.88023952,bb493323-7e6f-414d-aa5f-d5933fc61ef1,5,66.3223,67.8719,space,1,0.4407,,0,28,28,10,1,K,space,,,,,,,,,,
,,,,,R_4nx6fUwBwTjASgF,001,2025-09-16_14h57.50.580,continuous_performance_test,2024.2.4,MacIntel,59.88023952,bb493323-7e6f-414d-aa5f-d5933fc61ef1,5,67.8734,69.872,,1,,,0,29,29,25,1,X,,,,,,,,,,,
,,,,,R_4nx6fUwBwTjASgF,001,2025-09-16_14h57.50.580,continuous_performance_test,2024.2.4,MacIntel,59.88023952,bb493323-7e6f-414d-aa5f-d5933fc61ef1,5,82.815,84.6557,,1,,,0,0,0,26,1,X,,69.8732,82.8066,space,12.9153,,,,,,
,,,,,R_4nx6fUwBwTjASgF,001,2025-09-16_14h57.50.580,continuous_performance_test,2024.2.4,MacIntel,59.88023952,bb493323-7e6f-414d-aa5f-d5933fc61ef1,5,84.6572,86.2057,space,1,0.329,,0,1,1,21,1,V,space,,,,,,,,,,
,,,,,R_4nx6fUwBwTjASgF,001,2025-09-16_14h57.50.580,continuous_performance_test,2024.2.4,MacIntel,59.88023952,bb493323-7e6f-414d-aa5f-d5933fc61ef1,5,86.2068,88.2058,space,1,0.3137,,0,2,2,11,1,L,space,,,,,,,,,,
,,,,,R_4nx6fUwBwTjASgF,001,2025-09-16_14h57.50.580,continuous_performance_test,2024.2.4,MacIntel,59.88023952,bb493323-7e6f-414d-aa5f-d5933fc61ef1,5,88.2072,90.1058,space,1,0.2973,,0,3,3,17,1,R,space,,,,,,,,,,
,,,,,R_4nx6fUwBwTjASgF,001,2025-09-16_14h57.50.580,continuous_performance_test,2024.2.4,MacIntel,59.88023952,bb493323-7e6f-414d-aa5f-d5933fc61ef1,5,90.1072,91.7556,space,1,0.3315,,0,4,4,13,1,N,space,,,,,,,,,,
,,,,,R_4nx6fUwBwTjASgF,001,2025-09-16_14h57.50.580,continuous_performance_test,2024.2.4,MacIntel,59.88023952,bb493323-7e6f-414d-aa5f-d5933fc61ef1,5,91.7561,93.6051,space,1,0.2807,,0,5,5,10,1,K,space,,,,,,,,,,
,,,,,R_4nx6fUwBwTjASgF,001,2025-09-16_14h57.50.580,continuous_performance_test,2024.2.4,MacIntel,59.88023952,bb493323-7e6f-414d-aa5f-d5933fc61ef1,5,93.6063,95.406,space,1,0.3347,,0,6,6,9,1,J,space,,,,,,,,,,
,,,,,R_4nx6fUwBwTjASgF,001,2025-09-16_14h57.50.580,continuous_performance_test,2024.2.4,MacIntel,59.88023952,bb493323-7e6f-414d-aa5f-d5933fc61ef1,5,95.4073,97.0054,space,1,0.2974,,0,7,7,16,1,Q,space,,,,,,,,,,
,,,,,R_4nx6fUwBwTjASgF,001,2025-09-16_14h57.50.580,continuous_performance_test,2024.2.4,MacIntel,59.88023952,bb493323-7e6f-414d-aa5f-d5933fc61ef1,5,97.0068,98.6061,space,1,0.3176,,0,8,8,18,1,S,space,,,,,,,,,,
,,,,,R_4nx6fUwBwTjASgF,001,2025-09-16_14h57.50.580,continuous_performance_test,2024.2.4,MacIntel,59.88023952,bb493323-7e6f-414d-aa5f-d5933fc61ef1,5,98.6073,100.2562,space,1,0.4569,,0,9,9,19,1,T,space,,,,,,,,,,
,,,,,R_4nx6fUwBwTjASgF,001,2025-09-16_14h57.50.580,continuous_performance_test,2024.2.4,MacIntel,59.88023952,bb493323-7e6f-414d-aa5f-d5933fc61ef1,5,100.2578,102.2563,space,1,0.2898,,0,10,10,2,1,C,space,,,,,,,,,,
,,,,,R_4nx6fUwBwTjASgF,001,2025-09-16_14h57.50.580,continuous_performance_test,2024.2.4,MacIntel,59.88023952,bb493323-7e6f-414d-aa5f-d5933fc61ef1,5,102.2575,104.1064,,1,,,0,11,11,28,1,X,,,,,,,,,,,
,,,,,R_4nx6fUwBwTjASgF,001,2025-09-16_14h57.50.580,continuous_performance_test,2024.2.4,MacIntel,59.88023952,bb493323-7e6f-414d-aa5f-d5933fc61ef1,5,104.1077,106.006,space,1,0.331,,0,12,12,6,1,G,space,,,,,,,,,,
,,,,,R_4nx6fUwBwTjASgF,001,2025-09-16_14h57.50.580,continuous_performance_test,2024.2.4,MacIntel,59.88023952,bb493323-7e6f-414d-aa5f-d5933fc61ef1,5,106.0071,107.7555,space,1,0.348,,0,13,13,1,1,B,space,,,,,,,,,,
,,,,,R_4nx6fUwBwTjASgF,001,2025-09-16_14h57.50.580,continuous_performance_test,2024.2.4,MacIntel,59.88023952,bb493323-7e6f-414d-aa5f-d5933fc61ef1,5,107.7563,109.3065,space,1,0.3516,,0,14,14,24,1,Z,space,,,,,,,,,,
,,,,,R_4nx6fUwBwTjASgF,001,2025-09-16_14h57.50.580,continuous_performance_test,2024.2.4,MacIntel,59.88023952,bb493323-7e6f-414d-aa5f-d5933fc61ef1,5,109.3082,110.9564,space,1,0.3448,,0,15,15,5,1,F,space,,,,,,,,,,
,,,,,R_4nx6fUwBwTjASgF,001,2025-09-16_14h57.50.580,continuous_performance_test,2024.2.4,MacIntel,59.88023952,bb493323-7e6f-414d-aa5f-d5933fc61ef1,5,110.9577,112.6066,space,0,0.2747,,0,16,16,29,1,X,,,,,,,,,,,
,,,,,R_4nx6fUwBwTjASgF,001,2025-09-16_14h57.50.580,continuous_performance_test,2024.2.4,MacIntel,59.88023952,bb493323-7e6f-414d-aa5f-d5933fc61ef1,5,112.6078,114.5066,space,1,0.4303,,0,17,17,15,1,P,space,,,,,,,,,,
,,,,,R_4nx6fUwBwTjASgF,001,2025-09-16_14h57.50.580,continuous_performance_test,2024.2.4,MacIntel,59.88023952,bb493323-7e6f-414d-aa5f-d5933fc61ef1,5,114.508,116.3066,space,1,0.3001,,0,18,18,3,1,D,space,,,,,,,,,,
,,,,,R_4nx6fUwBwTjASgF,001,2025-09-16_14h57.50.580,continuous_performance_test,2024.2.4,MacIntel,59.88023952,bb493323-7e6f-414d-aa5f-d5933fc61ef1,5,116.3077,117.9068,,1,,,0,19,19,25,1,X,,,,,,,,,,,
,,,,,R_4nx6fUwBwTjASgF,001,2025-09-16_14h57.50.580,continuous_performance_test,2024.2.4,MacIntel,59.88023952,bb493323-7e6f-414d-aa5f-d5933fc61ef1,5,117.9082,119.8558,space,1,0.3646,,0,20,20,23,1,Y,space,,,,,,,,,,
,,,,,R_4nx6fUwBwTjASgF,001,2025-09-16_14h57.50.580,continuous_performance_test,2024.2.4,MacIntel,59.88023952,bb493323-7e6f-414d-aa5f-d5933fc61ef1,5,119.8572,121.6569,space,1,0.6255,,0,21,21,12,1,M,space,,,,,,,,,,
,,,,,R_4nx6fUwBwTjASgF,001,2025-09-16_14h57.50.580,continuous_performance_test,2024.2.4,MacIntel,59.88023952,bb493323-7e6f-414d-aa5f-d5933fc61ef1,5,121.6585,123.407,space,0,0.3184,,0,22,22,27,1,X,,,,,,,,,,,
,,,,,R_4nx6fUwBwTjASgF,001,2025-09-16_14h57.50.580,continuous_performance_test,2024.2.4,MacIntel,59.88023952,bb493323-7e6f-414d-aa5f-d5933fc61ef1,5,123.4095,125.1069,space,1,0.4875,,0,23,23,14,1,O,space,,,,,,,,,,
,,,,,R_4nx6fUwBwTjASgF,001,2025-09-16_14h57.50.580,continuous_performance_test,2024.2.4,MacIntel,59.88023952,bb493323-7e6f-414d-aa5f-d5933fc61ef1,5,125.1079,126.9071,space,1,0.351,,0,24,24,7,1,H,space,,,,,,,,,,
,,,,,R_4nx6fUwBwTjASgF,001,2025-09-16_14h57.50.580,continuous_performance_test,2024.2.4,MacIntel,59.88023952,bb493323-7e6f-414d-aa5f-d5933fc61ef1,5,126.9089,128.5573,space,1,0.279,,0,25,25,8,1,I,space,,,,,,,,,,
,,,,,R_4nx6fUwBwTjASgF,001,2025-09-16_14h57.50.580,continuous_performance_test,2024.2.4,MacIntel,59.88023952,bb493323-7e6f-414d-aa5f-d5933fc61ef1,5,128.5599,130.5572,space,1,0.334,,0,26,26,20,1,U,space,,,,,,,,,,
,,,,,R_4nx6fUwBwTjASgF,001,2025-09-16_14h57.50.580,continuous_performance_test,2024.2.4,MacIntel,59.88023952,bb493323-7e6f-414d-aa5f-d5933fc61ef1,5,130.5584,132.3572,space,1,0.2801,,0,27,27,0,1,A,space,,,,,,,,,,
,,,,,R_4nx6fUwBwTjASgF,001,2025-09-16_14h57.50.580,continuous_performance_test,2024.2.4,MacIntel,59.88023952,bb493323-7e6f-414d-aa5f-d5933fc61ef1,5,132.3587,134.0073,space,1,0.375,,0,28,28,4,1,E,space,,,,,,,,,,
,,,,,R_4nx6fUwBwTjASgF,001,2025-09-16_14h57.50.580,continuous_performance_test,2024.2.4,MacIntel,59.88023952,bb493323-7e6f-414d-aa5f-d5933fc61ef1,5,134.0089,135.7569,space,1,0.3152,,0,29,29,22,1,W,space,,,,,,,,,,
,,,,,R_4nx6fUwBwTjASgF,001,2025-09-16_14h57.50.580,continuous_performance_test,2024.2.4,MacIntel,59.88023952,bb493323-7e6f-414d-aa5f-d5933fc61ef1,5,143.5166,145.0574,,0,,,0,0,0,21,1,V,space,135.7574,143.5079,space,7.7399,,,,,,
,,,,,R_4nx6fUwBwTjASgF,001,2025-09-16_14h57.50.580,continuous_performance_test,2024.2.4,MacIntel,59.88023952,bb493323-7e6f-414d-aa5f-d5933fc61ef1,5,145.0615,147.0078,space,1,0.3613,,0,1,1,24,1,Z,space,,,,,,,,,,
,,,,,R_4nx6fUwBwTjASgF,001,2025-09-16_14h57.50.580,continuous_performance_test,2024.2.4,MacIntel,59.88023952,bb493323-7e6f-414d-aa5f-d5933fc61ef1,5,147.0104,148.9578,space,1,0.4691,,0,2,2,19,1,T,space,,,,,,,,,,
,,,,,R_4nx6fUwBwTjASgF,001,2025-09-16_14h57.50.580,continuous_performance_test,2024.2.4,MacIntel,59.88023952,bb493323-7e6f-414d-aa5f-d5933fc61ef1,5,148.9591,150.9579,space,1,0.2847,,0,3,3,16,1,Q,space,,,,,,,,,,
,,,,,R_4nx6fUwBwTjASgF,001,2025-09-16_14h57.50.580,continuous_performance_test,2024.2.4,MacIntel,59.88023952,bb493323-7e6f-414d-aa5f-d5933fc61ef1,5,150.9591,152.8079,space,0,0.2794,,0,4,4,29,1,X,,,,,,,,,,,
,,,,,R_4nx6fUwBwTjASgF,001,2025-09-16_14h57.50.580,continuous_performance_test,2024.2.4,MacIntel,59.88023952,bb493323-7e6f-414d-aa5f-d5933fc61ef1,5,152.8091,154.7079,space,0,0.4182,,0,5,5,28,1,X,,,,,,,,,,,
,,,,,R_4nx6fUwBwTjASgF,001,2025-09-16_14h57.50.580,continuous_performance_test,2024.2.4,MacIntel,59.88023952,bb493323-7e6f-414d-aa5f-d5933fc61ef1,5,154.7091,156.508,space,1,0.4335,,0,6,6,11,1,L,space,,,,,,,,,,
,,,,,R_4nx6fUwBwTjASgF,001,2025-09-16_14h57.50.580,continuous_performance_test,2024.2.4,MacIntel,59.88023952,bb493323-7e6f-414d-aa5f-d5933fc61ef1,5,156.5092,158.4581,space,1,0.3522,,0,7,7,17,1,R,space,,,,,,,,,,
,,,,,R_4nx6fUwBwTjASgF,001,2025-09-16_14h57.50.580,continuous_performance_test,2024.2.4,MacIntel,59.88023952,bb493323-7e6f-414d-aa5f-d5933fc61ef1,5,158.4593,160.1071,space,1,0.4422,,0,8,8,15,1,P,space,,,,,,,,,,
,,,,,R_4nx6fUwBwTjASgF,001,2025-09-16_14h57.50.580,continuous_performance_test,2024.2.4,MacIntel,59.88023952,bb493323-7e6f-414d-aa5f-d5933fc61ef1,5,160.1082,162.1081,space,1,0.2978,,0,9,9,2,1,C,space,,,,,,,,,,
,,,,,R_4nx6fUwBwTjASgF,001,2025-09-16_14h57.50.580,continuous_performance_test,2024.2.4,MacIntel,59.88023952,bb493323-7e6f-414d-aa5f-d5933fc61ef1,5,162.1098,164.0579,space,1,0.2964,,0,10,10,14,1,O,space,,,,,,,,,,
,,,,,R_4nx6fUwBwTjASgF,001,2025-09-16_14h57.50.580,continuous_performance_test,2024.2.4,MacIntel,59.88023952,bb493323-7e6f-414d-aa5f-d5933fc61ef1,5,164.0587,166.0083,space,1,0.3223,,0,11,11,7,1,H,space,,,,,,,,,,
,,,,,R_4nx6fUwBwTjASgF,001,2025-09-16_14h57.50.580,continuous_performance_test,2024.2.4,MacIntel,59.88023952,bb493323-7e6f-414d-aa5f-d5933fc61ef1,5,166.0096,168.0132,,1,,,0,12,12,27,1,X,,,,,,,,,,,
,,,,,R_4nx6fUwBwTjASgF,001,2025-09-16_14h57.50.580,continuous_performance_test,2024.2.4,MacIntel,59.88023952,bb493323-7e6f-414d-aa5f-d5933fc61ef1,5,168.014,169.6084,space,1,0.3668,,0,13,13,22,1,W,space,,,,,,,,,,
,,,,,R_4nx6fUwBwTjASgF,001,2025-09-16_14h57.50.580,continuous_performance_test,2024.2.4,MacIntel,59.88023952,bb493323-7e6f-414d-aa5f-d5933fc61ef1,5,169.6099,171.4082,space,1,0.6007,,0,14,14,12,1,M,space,,,,,,,,,,
,,,,,R_4nx6fUwBwTjASgF,001,2025-09-16_14h57.50.580,continuous_performance_test,2024.2.4,MacIntel,59.88023952,bb493323-7e6f-414d-aa5f-d5933fc61ef1,5,171.4088,172.9585,space,1,0.5132,,0,15,15,20,1,U,space,,,,,,,,,,
,,,,,R_4nx6fUwBwTjASgF,001,2025-09-16_14h57.50.580,continuous_performance_test,2024.2.4,MacIntel,59.88023952,bb493323-7e6f-414d-aa5f-d5933fc61ef1,5,172.96,174.7083,space,1,0.3641,,0,16,16,8,1,I,space,,,,,,,,,,
,,,,,R_4nx6fUwBwTjASgF,001,2025-09-16_14h57.50.580,continuous_performance_test,2024.2.4,MacIntel,59.88023952,bb493323-7e6f-414d-aa5f-d5933fc61ef1,5,174.7091,176.7086,space,0,0.3473,,0,17,17,26,1,X,,,,,,,,,,,
,,,,,R_4nx6fUwBwTjASgF,001,2025-09-16_14h57.50.580,continuous_performance_test,2024.2.4,MacIntel,59.88023952,bb493323-7e6f-414d-aa5f-d5933fc61ef1,5,176.7101,178.6587,space,1,0.4137,,0,18,18,5,1,F,space,,,,,,,,,,
,,,,,R_4nx6fUwBwTjASgF,001,2025-09-16_14h57.50.580,continuous_performance_test,2024.2.4,MacIntel,59.88023952,bb493323-7e6f-414d-aa5f-d5933fc61ef1,5,178.66,180.5087,,0,,,0,19,19,13,1,N,space,,,,,,,,,,
,,,,,R_4nx6fUwBwTjASgF,001,2025-09-16_14h57.50.580,continuous_performance_test,2024.2.4,MacIntel,59.88023952,bb493323-7e6f-414d-aa5f-d5933fc61ef1,5,180.51,182.5088,space,1,0.3341,,0,20,20,3,1,D,space,,,,,,,,,,
,,,,,R_4nx6fUwBwTjASgF,001,2025-09-16_14h57.50.580,continuous_performance_test,2024.2.4,MacIntel,59.88023952,bb493323-7e6f-414d-aa5f-d5933fc61ef1,5,182.5101,184.4589,space,1,0.4637,,0,21,21,9,1,J,space,,,,,,,,,,
,,,,,R_4nx6fUwBwTjASgF,001,2025-09-16_14h57.50.580,continuous_performance_test,2024.2.4,MacIntel,59.88023952,bb493323-7e6f-414d-aa5f-d5933fc61ef1,5,184.4601,186.3089,space,1,0.3289,,0,22,22,6,1,G,space,,,,,,,,,,
,,,,,R_4nx6fUwBwTjASgF,001,2025-09-16_14h57.50.580,continuous_performance_test,2024.2.4,MacIntel,59.88023952,bb493323-7e6f-414d-aa5f-d5933fc61ef1,5,186.3102,188.209,space,1,0.3964,,0,23,23,1,1,B,space,,,,,,,,,,
,,,,,R_4nx6fUwBwTjASgF,001,2025-09-16_14h57.50.580,continuous_performance_test,2024.2.4,MacIntel,59.88023952,bb493323-7e6f-414d-aa5f-d5933fc61ef1,5,188.2101,190.0091,space,1,0.3126,,0,24,24,4,1,E,space,,,,,,,,,,
,,,,,R_4nx6fUwBwTjASgF,001,2025-09-16_14h57.50.580,continuous_performance_test,2024.2.4,MacIntel,59.88023952,bb493323-7e6f-414d-aa5f-d5933fc61ef1,5,190.0103,191.9091,space,0,0.296,,0,25,25,25,1,X,,,,,,,,,,,
,,,,,R_4nx6fUwBwTjASgF,001,2025-09-16_14h57.50.580,continuous_performance_test,2024.2.4,MacIntel,59.88023952,bb493323-7e6f-414d-aa5f-d5933fc61ef1,5,191.9103,193.9092,space,1,0.3668,,0,26,26,23,1,Y,space,,,,,,,,,,
,,,,,R_4nx6fUwBwTjASgF,001,2025-09-16_14h57.50.580,continuous_performance_test,2024.2.4,MacIntel,59.88023952,bb493323-7e6f-414d-aa5f-d5933fc61ef1,5,193.9102,195.9092,space,1,0.2914,,0,27,27,10,1,K,space,,,,,,,,,,
,,,,,R_4nx6fUwBwTjASgF,001,2025-09-16_14h57.50.580,continuous_performance_test,2024.2.4,MacIntel,59.88023952,bb493323-7e6f-414d-aa5f-d5933fc61ef1,5,195.9103,197.9093,space,1,0.3345,,0,28,28,0,1,A,space,,,,,,,,,,
,,,,,R_4nx6fUwBwTjASgF,001,2025-09-16_14h57.50.580,continuous_performance_test,2024.2.4,MacIntel,59.88023952,bb493323-7e6f-414d-aa5f-d5933fc61ef1,5,197.9104,199.6589,space,1,0.4327,,0,29,29,18,1,S,space,,,,,,,,,,
,,,,,R_4nx6fUwBwTjASgF,001,2025-09-16_14h57.50.580,continuous_performance_test,2024.2.4,MacIntel,59.88023952,bb493323-7e6f-414d-aa5f-d5933fc61ef1,5,203.0518,204.6429,space,1,0.727,,0,0,0,5,1,F,space,199.6608,203.043,space,3.3547,,,,,,
,,,,,R_4nx6fUwBwTjASgF,001,2025-09-16_14h57.50.580,continuous_performance_test,2024.2.4,MacIntel,59.88023952,bb493323-7e6f-414d-aa5f-d5933fc61ef1,5,204.6444,206.4428,space,1,0.296,,0,1,1,4,1,E,space,,,,,,,,,,
,,,,,R_4nx6fUwBwTjASgF,001,2025-09-16_14h57.50.580,continuous_performance_test,2024.2.4,MacIntel,59.88023952,bb493323-7e6f-414d-aa5f-d5933fc61ef1,5,206.4451,208.3429,space,1,0.33,,0,2,2,21,1,V,space,,,,,,,,,,
,,,,,R_4nx6fUwBwTjASgF,001,2025-09-16_14h57.50.580,continuous_performance_test,2024.2.4,MacIntel,59.88023952,bb493323-7e6f-414d-aa5f-d5933fc61ef1,5,208.3446,210.0427,space,1,0.3819,,0,3,3,0,1,A,space,,,,,,,,,,
,,,,,R_4nx6fUwBwTjASgF,001,2025-09-16_14h57.50.580,continuous_performance_test,2024.2.4,MacIntel,59.88023952,bb493323-7e6f-414d-aa5f-d5933fc61ef1,5,210.0434,211.5933,space,1,0.3633,,0,4,4,15,1,P,space,,,,,,,,,,
,,,,,R_4nx6fUwBwTjASgF,001,2025-09-16_14h57.50.580,continuous_performance_test,2024.2.4,MacIntel,59.88023952,bb493323-7e6f-414d-aa5f-d5933fc61ef1,5,211.5953,213.4932,space,1,0.3971,,0,5,5,9,1,J,space,,,,,,,,,,
,,,,,R_4nx6fUwBwTjASgF,001,2025-09-16_14h57.50.580,continuous_performance_test,2024.2.4,MacIntel,59.88023952,bb493323-7e6f-414d-aa5f-d5933fc61ef1,5,213.4944,215.3932,space,1,0.3309,,0,6,6,10,1,K,space,,,,,,,,,,
,,,,,R_4nx6fUwBwTjASgF,001,2025-09-16_14h57.50.580,continuous_performance_test,2024.2.4,MacIntel,59.88023952,bb493323-7e6f-414d-aa5f-d5933fc61ef1,5,215.3943,217.2432,space,1,0.3471,,0,7,7,18,1,S,space,,,,,,,,,,
,,,,,R_4nx6fUwBwTjASgF,001,2025-09-16_14h57.50.580,continuous_performance_test,2024.2.4,MacIntel,59.88023952,bb493323-7e6f-414d-aa5f-d5933fc61ef1,5,217.2446,219.2435,space,1,0.2987,,0,8,8,2,1,C,space,,,,,,,,,,
,,,,,R_4nx6fUwBwTjASgF,001,2025-09-16_14h57.50.580,continuous_performance_test,2024.2.4,MacIntel,59.88023952,bb493323-7e6f-414d-aa5f-d5933fc61ef1,5,219.2448,220.8934,space,1,0.3305,,0,9,9,6,1,G,space,,,,,,,,,,
,,,,,R_4nx6fUwBwTjASgF,001,2025-09-16_14h57.50.580,continuous_performance_test,2024.2.4,MacIntel,59.88023952,bb493323-7e6f-414d-aa5f-d5933fc61ef1,5,220.895,222.6434,space,0,0.4122,,0,10,10,27,1,X,,,,,,,,,,,
,,,,,R_4nx6fUwBwTjASgF,001,2025-09-16_14h57.50.580,continuous_performance_test,2024.2.4,MacIntel,59.88023952,bb493323-7e6f-414d-aa5f-d5933fc61ef1,5,222.6447,224.4435,space,1,0.3457,,0,11,11,1,1,B,space,,,,,,,,,,
,,,,,R_4nx6fUwBwTjASgF,001,2025-09-16_14h57.50.580,continuous_performance_test,2024.2.4,MacIntel,59.88023952,bb493323-7e6f-414d-aa5f-d5933fc61ef1,5,224.4449,226.1936,space,1,0.3298,,0,12,12,20,1,U,space,,,,,,,,,,
,,,,,R_4nx6fUwBwTjASgF,001,2025-09-16_14h57.50.580,continuous_performance_test,2024.2.4,MacIntel,59.88023952,bb493323-7e6f-414d-aa5f-d5933fc61ef1,5,226.1949,227.7934,space,1,0.3493,,0,13,13,11,1,L,space,,,,,,,,,,
,,,,,R_4nx6fUwBwTjASgF,001,2025-09-16_14h57.50.580,continuous_performance_test,2024.2.4,MacIntel,59.88023952,bb493323-7e6f-414d-aa5f-d5933fc61ef1,5,227.7943,229.4937,space,1,0.4791,,0,14,14,8,1,I,space,,,,,,,,,,
,,,,,R_4nx6fUwBwTjASgF,001,2025-09-16_14h57.50.580,continuous_performance_test,2024.2.4,MacIntel,59.88023952,bb493323-7e6f-414d-aa5f-d5933fc61ef1,5,229.4951,231.2939,space,1,0.3062,,0,15,15,24,1,Z,space,,,,,,,,,,
,,,,,R_4nx6fUwBwTjASgF,001,2025-09-16_14h57.50.580,continuous_performance_test,2024.2.4,MacIntel,59.88023952,bb493323-7e6f-414d-aa5f-d5933fc61ef1,5,231.2954,232.8935,space,1,0.3301,,0,16,16,3,1,D,space,,,,,,,,,,
,,,,,R_4nx6fUwBwTjASgF,001,2025-09-16_14h57.50.580,continuous_performance_test,2024.2.4,MacIntel,59.88023952,bb493323-7e6f-414d-aa5f-d5933fc61ef1,5,232.8946,234.4441,space,1,0.2966,,0,17,17,12,1,M,space,,,,,,,,,,
,,,,,R_4nx6fUwBwTjASgF,001,2025-09-16_14h57.50.580,continuous_performance_test,2024.2.4,MacIntel,59.88023952,bb493323-7e6f-414d-aa5f-d5933fc61ef1,5,234.4456,236.4437,space,0,0.3147,,0,18,18,29,1,X,,,,,,,,,,,
,,,,,R_4nx6fUwBwTjASgF,001,2025-09-16_14h57.50.580,continuous_performance_test,2024.2.4,MacIntel,59.88023952,bb493323-7e6f-414d-aa5f-d5933fc61ef1,5,236.4441,238.0437,space,1,0.3127,,0,19,19,13,1,N,space,,,,,,,,,,
,,,,,R_4nx6fUwBwTjASgF,001,2025-09-16_14h57.50.580,continuous_performance_test,2024.2.4,MacIntel,59.88023952,bb493323-7e6f-414d-aa5f-d5933fc61ef1,5,238.0444,239.594,space,1,0.2908,,0,20,20,7,1,H,space,,,,,,,,,,
,,,,,R_4nx6fUwBwTjASgF,001,2025-09-16_14h57.50.580,continuous_performance_test,2024.2.4,MacIntel,59.88023952,bb493323-7e6f-414d-aa5f-d5933fc61ef1,5,239.5952,241.3942,space,1,0.3828,,0,21,21,14,1,O,space,,,,,,,,,,
,,,,,R_4nx6fUwBwTjASgF,001,2025-09-16_14h57.50.580,continuous_performance_test,2024.2.4,MacIntel,59.88023952,bb493323-7e6f-414d-aa5f-d5933fc61ef1,5,241.3959,243.1439,space,1,0.3492,,0,22,22,17,1,R,space,,,,,,,,,,
,,,,,R_4nx6fUwBwTjASgF,001,2025-09-16_14h57.50.580,continuous_performance_test,2024.2.4,MacIntel,59.88023952,bb493323-7e6f-414d-aa5f-d5933fc61ef1,5,243.1452,244.7442,space,1,0.3485,,0,23,23,19,1,T,space,,,,,,,,,,
,,,,,R_4nx6fUwBwTjASgF,001,2025-09-16_14h57.50.580,continuous_performance_test,2024.2.4,MacIntel,59.88023952,bb493323-7e6f-414d-aa5f-d5933fc61ef1,5,244.7456,246.4942,space,0,0.3451,,0,24,24,26,1,X,,,,,,,,,,,
,,,,,R_4nx6fUwBwTjASgF,001,2025-09-16_14h57.50.580,continuous_performance_test,2024.2.4,MacIntel,59.88023952,bb493323-7e6f-414d-aa5f-d5933fc61ef1,5,246.4955,248.3444,space,1,0.3649,,0,25,25,22,1,W,space,,,,,,,,,,
,,,,,R_4nx6fUwBwTjASgF,001,2025-09-16_14h57.50.580,continuous_performance_test,2024.2.4,MacIntel,59.88023952,bb493323-7e6f-414d-aa5f-d5933fc61ef1,5,248.3459,250.0943,,1,,,0,26,26,25,1,X,,,,,,,,,,,
,,,,,R_4nx6fUwBwTjASgF,001,2025-09-16_14h57.50.580,continuous_performance_test,2024.2.4,MacIntel,59.88023952,bb493323-7e6f-414d-aa5f-d5933fc61ef1,5,250.0953,251.7942,space,1,0.3305,,0,27,27,23,1,Y,space,,,,,,,,,,
,,,,,R_4nx6fUwBwTjASgF,001,2025-09-16_14h57.50.580,continuous_performance_test,2024.2.4,MacIntel,59.88023952,bb493323-7e6f-414d-aa5f-d5933fc61ef1,5,251.7948,253.5445,,1,,,0,28,28,28,1,X,,,,,,,,,,,
,,,,,R_4nx6fUwBwTjASgF,001,2025-09-16_14h57.50.580,continuous_performance_test,2024.2.4,MacIntel,59.88023952,bb493323-7e6f-414d-aa5f-d5933fc61ef1,5,253.5459,255.3446,space,1,0.3767,,0,29,29,16,1,Q,space,,,,,,,,,,
,,,,,R_4nx6fUwBwTjASgF,001,2025-09-16_14h57.50.580,continuous_performance_test,2024.2.4,MacIntel,59.88023952,bb493323-7e6f-414d-aa5f-d5933fc61ef1,5,256.1879,257.8777,,1,,,0,0,0,27,1,X,,255.3464,256.1781,space,0.8079,,,,,,
,,,,,R_4nx6fUwBwTjASgF,001,2025-09-16_14h57.50.580,continuous_performance_test,2024.2.4,MacIntel,59.88023952,bb493323-7e6f-414d-aa5f-d5933fc61ef1,5,257.8788,259.6774,space,0,0.279,,0,1,1,28,1,X,,,,,,,,,,,
,,,,,R_4nx6fUwBwTjASgF,001,2025-09-16_14h57.50.580,continuous_performance_test,2024.2.4,MacIntel,59.88023952,bb493323-7e6f-414d-aa5f-d5933fc61ef1,5,259.6786,261.3281,space,1,0.4462,,0,2,2,2,1,C,space,,,,,,,,,,
,,,,,R_4nx6fUwBwTjASgF,001,2025-09-16_14h57.50.580,continuous_performance_test,2024.2.4,MacIntel,59.88023952,bb493323-7e6f-414d-aa5f-d5933fc61ef1,5,261.3295,263.0283,space,1,0.3642,,0,3,3,8,1,I,space,,,,,,,,,,
,,,,,R_4nx6fUwBwTjASgF,001,2025-09-16_14h57.50.580,continuous_performance_test,2024.2.4,MacIntel,59.88023952,bb493323-7e6f-414d-aa5f-d5933fc61ef1,5,263.0294,264.8782,,1,,,0,4,4,29,1,X,,,,,,,,,,,
,,,,,R_4nx6fUwBwTjASgF,001,2025-09-16_14h57.50.580,continuous_performance_test,2024.2.4,MacIntel,59.88023952,bb493323-7e6f-414d-aa5f-d5933fc61ef1,5,264.8795,266.4283,space,1,0.3497,,0,5,5,3,1,D,space,,,,,,,,,,
,,,,,R_4nx6fUwBwTjASgF,001,2025-09-16_14h57.50.580,continuous_performance_test,2024.2.4,MacIntel,59.88023952,bb493323-7e6f-414d-aa5f-d5933fc61ef1,5,266.4297,268.1283,space,1,0.3342,,0,6,6,15,1,P,space,,,,,,,,,,
,,,,,R_4nx6fUwBwTjASgF,001,2025-09-16_14h57.50.580,continuous_performance_test,2024.2.4,MacIntel,59.88023952,bb493323-7e6f-414d-aa5f-d5933fc61ef1,5,268.1295,269.6776,space,1,0.2974,,0,7,7,16,1,Q,space,,,,,,,,,,
,,,,,R_4nx6fUwBwTjASgF,001,2025-09-16_14h57.50.580,continuous_performance_test,2024.2.4,MacIntel,59.88023952,bb493323-7e6f-414d-aa5f-d5933fc61ef1,5,269.6788,271.6285,space,1,0.3629,,0,8,8,4,1,E,space,,,,,,,,,,
,,,,,R_4nx6fUwBwTjASgF,001,2025-09-16_14h57.50.580,continuous_performance_test,2024.2.4,MacIntel,59.88023952,bb493323-7e6f-414d-aa5f-d5933fc61ef1,5,271.63,273.2786,space,1,0.3837,,0,9,9,18,1,S,space,,,,,,,,,,
,,,,,R_4nx6fUwBwTjASgF,001,2025-09-16_14h57.50.580,continuous_performance_test,2024.2.4,MacIntel,59.88023952,bb493323-7e6f-414d-aa5f-d5933fc61ef1,5,273.2801,275.1277,space,0,0.331,,0,10,10,26,1,X,,,,,,,,,,,
,,,,,R_4nx6fUwBwTjASgF,001,2025-09-16_14h57.50.580,continuous_performance_test,2024.2.4,MacIntel,59.88023952,bb493323-7e6f-414d-aa5f-d5933fc61ef1,5,275.1287,276.8286,space,1,0.367,,0,11,11,19,1,T,space,,,,,,,,,,
,,,,,R_4nx6fUwBwTjASgF,001,2025-09-16_14h57.50.580,continuous_performance_test,2024.2.4,MacIntel,59.88023952,bb493323-7e6f-414d-aa5f-d5933fc61ef1,5,276.8298,278.4287,space,1,0.3805,,0,12,12,24,1,Z,space,,,,,,,,,,
,,,,,R_4nx6fUwBwTjASgF,001,2025-09-16_14h57.50.580,continuous_performance_test,2024.2.4,MacIntel,59.88023952,bb493323-7e6f-414d-aa5f-d5933fc61ef1,5,278.43,280.1289,space,1,0.3971,,0,13,13,6,1,G,space,,,,,,,,,,
,,,,,R_4nx6fUwBwTjASgF,001,2025-09-16_14h57.50.580,continuous_performance_test,2024.2.4,MacIntel,59.88023952,bb493323-7e6f-414d-aa5f-d5933fc61ef1,5,280.13,281.6787,space,1,0.3956,,0,14,14,0,1,A,space,,,,,,,,,,
,,,,,R_4nx6fUwBwTjASgF,001,2025-09-16_14h57.50.580,continuous_performance_test,2024.2.4,MacIntel,59.88023952,bb493323-7e6f-414d-aa5f-d5933fc61ef1,5,281.6799,283.2788,space,1,0.3783,,0,15,15,20,1,U,space,,,,,,,,,,
,,,,,R_4nx6fUwBwTjASgF,001,2025-09-16_14h57.50.580,continuous_performance_test,2024.2.4,MacIntel,59.88023952,bb493323-7e6f-414d-aa5f-d5933fc61ef1,5,283.2802,285.078,space,1,0.4129,,0,16,16,5,1,F,space,,,,,,,,,,
,,,,,R_4nx6fUwBwTjASgF,001,2025-09-16_14h57.50.580,continuous_performance_test,2024.2.4,MacIntel,59.88023952,bb493323-7e6f-414d-aa5f-d5933fc61ef1,5,285.0793,286.679,space,1,0.3801,,0,17,17,23,1,Y,space,,,,,,,,,,
,,,,,R_4nx6fUwBwTjASgF,001,2025-09-16_14h57.50.580,continuous_performance_test,2024.2.4,MacIntel,59.88023952,bb493323-7e6f-414d-aa5f-d5933fc61ef1,5,286.6801,288.6789,,1,,,0,18,18,25,1,X,,,,,,,,,,,
,,,,,R_4nx6fUwBwTjASgF,001,2025-09-16_14h57.50.580,continuous_performance_test,2024.2.4,MacIntel,59.88023952,bb493323-7e6f-414d-aa5f-d5933fc61ef1,5,288.6803,290.4293,space,1,0.3639,,0,19,19,13,1,N,space,,,,,,,,,,
,,,,,R_4nx6fUwBwTjASgF,001,2025-09-16_14h57.50.580,continuous_performance_test,2024.2.4,MacIntel,59.88023952,bb493323-7e6f-414d-aa5f-d5933fc61ef1,5,290.4306,292.1782,space,1,0.3649,,0,20,20,12,1,M,space,,,,,,,,,,
,,,,,R_4nx6fUwBwTjASgF,001,2025-09-16_14h57.50.580,continuous_performance_test,2024.2.4,MacIntel,59.88023952,bb493323-7e6f-414d-aa5f-d5933fc61ef1,5,292.1793,293.8293,space,1,0.713,,0,21,21,21,1,V,space,,,,,,,,,,
,,,,,R_4nx6fUwBwTjASgF,001,2025-09-16_14h57.50.580,continuous_performance_test,2024.2.4,MacIntel,59.88023952,bb493323-7e6f-414d-aa5f-d5933fc61ef1,5,293.8307,295.6791,space,1,0.3538,,0,22,22,11,1,L,space,,,,,,,,,,
,,,,,R_4nx6fUwBwTjASgF,001,2025-09-16_14h57.50.580,continuous_performance_test,2024.2.4,MacIntel,59.88023952,bb493323-7e6f-414d-aa5f-d5933fc61ef1,5,295.68,297.2794,space,1,0.7981,,0,23,23,9,1,J,space,,,,,,,,,,
,,,,,R_4nx6fUwBwTjASgF,001,2025-09-16_14h57.50.580,continuous_performance_test,2024.2.4,MacIntel,59.88023952,bb493323-7e6f-414d-aa5f-d5933fc61ef1,5,297.2806,298.8785,space,1,0.4139,,0,24,24,22,1,W,space,,,,,,,,,,
,,,,,R_4nx6fUwBwTjASgF,001,2025-09-16_14h57.50.580,continuous_performance_test,2024.2.4,MacIntel,59.88023952,bb493323-7e6f-414d-aa5f-d5933fc61ef1,5,298.8798,300.5786,space,1,0.4157,,0,25,25,17,1,R,space,,,,,,,,,,
,,,,,R_4nx6fUwBwTjASgF,001,2025-09-16_14h57.50.580,continuous_performance_test,2024.2.4,MacIntel,59.88023952,bb493323-7e6f-414d-aa5f-d5933fc61ef1,5,300.5799,302.3296,space,1,0.3458,,0,26,26,14,1,O,space,,,,,,,,,,
,,,,,R_4nx6fUwBwTjASgF,001,2025-09-16_14h57.50.580,continuous_performance_test,2024.2.4,MacIntel,59.88023952,bb493323-7e6f-414d-aa5f-d5933fc61ef1,5,302.3311,303.9295,space,1,0.6145,,0,27,27,10,1,K,space,,,,,,,,,,
,,,,,R_4nx6fUwBwTjASgF,001,2025-09-16_14h57.50.580,continuous_performance_test,2024.2.4,MacIntel,59.88023952,bb493323-7e6f-414d-aa5f-d5933fc61ef1,5,303.9308,305.6797,space,1,0.4342,,0,28,28,7,1,H,space,,,,,,,,,,
,,,,,R_4nx6fUwBwTjASgF,001,2025-09-16_14h57.50.580,continuous_performance_test,2024.2.4,MacIntel,59.88023952,bb493323-7e6f-414d-aa5f-d5933fc61ef1,5,305.681,307.5798,space,1,0.4796,,0,29,29,1,1,B,space,,,,,,,,,,
,,,,,R_4nx6fUwBwTjASgF,001,2025-09-16_14h57.50.580,continuous_performance_test,2024.2.4,MacIntel,59.88023952,bb493323-7e6f-414d-aa5f-d5933fc61ef1,5,308.304,310.2965,space,1,0.7959,,0,0,0,18,1,S,space,307.5812,308.2954,space,0.692,,,,,,
,,,,,R_4nx6fUwBwTjASgF,001,2025-09-16_14h57.50.580,continuous_performance_test,2024.2.4,MacIntel,59.88023952,bb493323-7e6f-414d-aa5f-d5933fc61ef1,5,310.2984,311.8968,space,1,0.3316,,0,1,1,6,1,G,space,,,,,,,,,,
,,,,,R_4nx6fUwBwTjASgF,001,2025-09-16_14h57.50.580,continuous_performance_test,2024.2.4,MacIntel,59.88023952,bb493323-7e6f-414d-aa5f-d5933fc61ef1,5,311.8984,313.8967,,1,,,0,2,2,25,1,X,,,,,,,,,,,
,,,,,R_4nx6fUwBwTjASgF,001,2025-09-16_14h57.50.580,continuous_performance_test,2024.2.4,MacIntel,59.88023952,bb493323-7e6f-414d-aa5f-d5933fc61ef1,5,313.8983,315.7466,space,1,0.4989,,0,3,3,23,1,Y,space,,,,,,,,,,
,,,,,R_4nx6fUwBwTjASgF,001,2025-09-16_14h57.50.580,continuous_performance_test,2024.2.4,MacIntel,59.88023952,bb493323-7e6f-414d-aa5f-d5933fc61ef1,5,315.748,317.4469,space,1,0.4583,,0,4,4,11,1,L,space,,,,,,,,,,
,,,,,R_4nx6fUwBwTjASgF,001,2025-09-16_14h57.50.580,continuous_performance_test,2024.2.4,MacIntel,59.88023952,bb493323-7e6f-414d-aa5f-d5933fc61ef1,5,317.45,319.0469,space,1,0.5006,,0,5,5,5,1,F,space,,,,,,,,,,
,,,,,R_4nx6fUwBwTjASgF,001,2025-09-16_14h57.50.580,continuous_performance_test,2024.2.4,MacIntel,59.88023952,bb493323-7e6f-414d-aa5f-d5933fc61ef1,5,319.0489,320.8459,space,1,0.3731,,0,6,6,15,1,P,space,,,,,,,,,,
,,,,,R_4nx6fUwBwTjASgF,001,2025-09-16_14h57.50.580,continuous_performance_test,2024.2.4,MacIntel,59.88023952,bb493323-7e6f-414d-aa5f-d5933fc61ef1,5,320.8469,322.3966,space,1,0.428,,0,7,7,16,1,Q,space,,,,,,,,,,
,,,,,R_4nx6fUwBwTjASgF,001,2025-09-16_14h57.50.580,continuous_performance_test,2024.2.4,MacIntel,59.88023952,bb493323-7e6f-414d-aa5f-d5933fc61ef1,5,322.3974,324.0968,space,1,0.3642,,0,8,8,13,1,N,space,,,,,,,,,,
,,,,,R_4nx6fUwBwTjASgF,001,2025-09-16_14h57.50.580,continuous_performance_test,2024.2.4,MacIntel,59.88023952,bb493323-7e6f-414d-aa5f-d5933fc61ef1,5,324.0979,325.7466,space,1,0.313,,0,9,9,3,1,D,space,,,,,,,,,,
,,,,,R_4nx6fUwBwTjASgF,001,2025-09-16_14h57.50.580,continuous_performance_test,2024.2.4,MacIntel,59.88023952,bb493323-7e6f-414d-aa5f-d5933fc61ef1,5,325.7473,327.4971,space,1,0.3136,,0,10,10,22,1,W,space,,,,,,,,,,
,,,,,R_4nx6fUwBwTjASgF,001,2025-09-16_14h57.50.580,continuous_performance_test,2024.2.4,MacIntel,59.88023952,bb493323-7e6f-414d-aa5f-d5933fc61ef1,5,327.4984,329.4973,space,1,0.3531,,0,11,11,4,1,E,space,,,,,,,,,,
,,,,,R_4nx6fUwBwTjASgF,001,2025-09-16_14h57.50.580,continuous_performance_test,2024.2.4,MacIntel,59.88023952,bb493323-7e6f-414d-aa5f-d5933fc61ef1,5,329.4988,331.1969,space,1,0.3316,,0,12,12,12,1,M,space,,,,,,,,,,
,,,,,R_4nx6fUwBwTjASgF,001,2025-09-16_14h57.50.580,continuous_performance_test,2024.2.4,MacIntel,59.88023952,bb493323-7e6f-414d-aa5f-d5933fc61ef1,5,331.1978,332.7973,space,1,0.5633,,0,13,13,20,1,U,space,,,,,,,,,,
,,,,,R_4nx6fUwBwTjASgF,001,2025-09-16_14h57.50.580,continuous_performance_test,2024.2.4,MacIntel,59.88023952,bb493323-7e6f-414d-aa5f-d5933fc61ef1,5,332.7986,334.3973,space,1,0.3466,,0,14,14,14,1,O,space,,,,,,,,,,
,,,,,R_4nx6fUwBwTjASgF,001,2025-09-16_14h57.50.580,continuous_performance_test,2024.2.4,MacIntel,59.88023952,bb493323-7e6f-414d-aa5f-d5933fc61ef1,5,334.3987,335.9965,space,0,0.4667,,0,15,15,27,1,X,,,,,,,,,,,
,,,,,R_4nx6fUwBwTjASgF,001,2025-09-16_14h57.50.580,continuous_performance_test,2024.2.4,MacIntel,59.88023952,bb493323-7e6f-414d-aa5f-d5933fc61ef1,5,335.9975,337.9975,space,1,0.5879,,0,16,16,0,1,A,space,,,,,,,,,,
,,,,,R_4nx6fUwBwTjASgF,001,2025-09-16_14h57.50.580,continuous_performance_test,2024.2.4,MacIntel,59.88023952,bb493323-7e6f-414d-aa5f-d5933fc61ef1,5,337.9988,339.7962,space,1,0.5969,,0,17,17,21,1,V,space,,,,,,,,,,
,,,,,R_4nx6fUwBwTjASgF,001,2025-09-16_14h57.50.580,continuous_performance_test,2024.2.4,MacIntel,59.88023952,bb493323-7e6f-414d-aa5f-d5933fc61ef1,5,339.7967,341.5476,,1,,,0,18,18,29,1,X,,,,,,,,,,,
,,,,,R_4nx6fUwBwTjASgF,001,2025-09-16_14h57.50.580,continuous_performance_test,2024.2.4,MacIntel,59.88023952,bb493323-7e6f-414d-aa5f-d5933fc61ef1,5,341.5487,343.3468,space,1,0.6144,,0,19,19,1,1,B,space,,,,,,,,,,
,,,,,R_4nx6fUwBwTjASgF,001,2025-09-16_14h57.50.580,continuous_performance_test,2024.2.4,MacIntel,59.88023952,bb493323-7e6f-414d-aa5f-d5933fc61ef1,5,343.3483,345.0976,,1,,,0,20,20,26,1,X,,,,,,,,,,,
,,,,,R_4nx6fUwBwTjASgF,001,2025-09-16_14h57.50.580,continuous_performance_test,2024.2.4,MacIntel,59.88023952,bb493323-7e6f-414d-aa5f-d5933fc61ef1,5,345.0994,346.6979,space,1,0.3338,,0,21,21,17,1,R,space,,,,,,,,,,
,,,,,R_4nx6fUwBwTjASgF,001,2025-09-16_14h57.50.580,continuous_performance_test,2024.2.4,MacIntel,59.88023952,bb493323-7e6f-414d-aa5f-d5933fc61ef1,5,346.6988,348.5973,space,1,0.4317,,0,22,22,19,1,T,space,,,,,,,,,,
,,,,,R_4nx6fUwBwTjASgF,001,2025-09-16_14h57.50.580,continuous_performance_test,2024.2.4,MacIntel,59.88023952,bb493323-7e6f-414d-aa5f-d5933fc61ef1,5,348.5999,350.4979,space,1,0.5306,,0,23,23,9,1,J,space,,,,,,,,,,
,,,,,R_4nx6fUwBwTjASgF,001,2025-09-16_14h57.50.580,continuous_performance_test,2024.2.4,MacIntel,59.88023952,bb493323-7e6f-414d-aa5f-d5933fc61ef1,5,350.4994,352.2479,space,1,0.4568,,0,24,24,7,1,H,space,,,,,,,,,,
,,,,,R_4nx6fUwBwTjASgF,001,2025-09-16_14h57.50.580,continuous_performance_test,2024.2.4,MacIntel,59.88023952,bb493323-7e6f-414d-aa5f-d5933fc61ef1,5,352.2491,353.9472,space,1,0.4085,,0,25,25,24,1,Z,space,,,,,,,,,,
,,,,,R_4nx6fUwBwTjASgF,001,2025-09-16_14h57.50.580,continuous_performance_test,2024.2.4,MacIntel,59.88023952,bb493323-7e6f-414d-aa5f-d5933fc61ef1,5,353.9484,355.7978,space,1,0.514,,0,26,26,8,1,I,space,,,,,,,,,,
,,,,,R_4nx6fUwBwTjASgF,001,2025-09-16_14h57.50.580,continuous_performance_test,2024.2.4,MacIntel,59.88023952,bb493323-7e6f-414d-aa5f-d5933fc61ef1,5,355.7993,357.7972,space,0,0.4331,,0,27,27,28,1,X,,,,,,,,,,,
,,,,,R_4nx6fUwBwTjASgF,001,2025-09-16_14h57.50.580,continuous_performance_test,2024.2.4,MacIntel,59.88023952,bb493323-7e6f-414d-aa5f-d5933fc61ef1,5,357.7985,359.6477,space,1,0.4793,,0,28,28,2,1,C,space,,,,,,,,,,
,,,,,R_4nx6fUwBwTjASgF,001,2025-09-16_14h57.50.580,continuous_performance_test,2024.2.4,MacIntel,59.88023952,bb493323-7e6f-414d-aa5f-d5933fc61ef1,5,359.6491,361.3973,space,1,0.4635,,0,29,29,10,1,K,space,,,,,,,,,,
,,,,,R_4nx6fUwBwTjASgF,001,2025-09-16_14h57.50.580,continuous_performance_test,2024.2.4,MacIntel,59.88023952,bb493323-7e6f-414d-aa5f-d5933fc61ef1,5,362.5041,364.3976,space,1,0.5163,,0,0,0,5,1,F,space,361.3987,362.4983,space,1.0689,,,,,,
,,,,,R_4nx6fUwBwTjASgF,001,2025-09-16_14h57.50.580,continuous_performance_test,2024.2.4,MacIntel,59.88023952,bb493323-7e6f-414d-aa5f-d5933fc61ef1,5,364.399,365.998,space,1,0.4225,,0,1,1,24,1,Z,space,,,,,,,,,,
,,,,,R_4nx6fUwBwTjASgF,001,2025-09-16_14h57.50.580,continuous_performance_test,2024.2.4,MacIntel,59.88023952,bb493323-7e6f-414d-aa5f-d5933fc61ef1,5,365.9995,367.6477,space,1,0.3919,,0,2,2,19,1,T,space,,,,,,,,,,
,,,,,R_4nx6fUwBwTjASgF,001,2025-09-16_14h57.50.580,continuous_performance_test,2024.2.4,MacIntel,59.88023952,bb493323-7e6f-414d-aa5f-d5933fc61ef1,5,367.6488,369.4977,space,1,0.4906,,0,3,3,2,1,C,space,,,,,,,,,,
,,,,,R_4nx6fUwBwTjASgF,001,2025-09-16_14h57.50.580,continuous_performance_test,2024.2.4,MacIntel,59.88023952,bb493323-7e6f-414d-aa5f-d5933fc61ef1,5,369.4989,371.4997,space,0,0.3814,,0,4,4,26,1,X,,,,,,,,,,,
,,,,,R_4nx6fUwBwTjASgF,001,2025-09-16_14h57.50.580,continuous_performance_test,2024.2.4,MacIntel,59.88023952,bb493323-7e6f-414d-aa5f-d5933fc61ef1,5,371.5008,373.1977,space,1,0.3482,,0,5,5,7,1,H,space,,,,,,,,,,
,,,,,R_4nx6fUwBwTjASgF,001,2025-09-16_14h57.50.580,continuous_performance_test,2024.2.4,MacIntel,59.88023952,bb493323-7e6f-414d-aa5f-d5933fc61ef1,5,373.199,375.1489,space,1,0.3999,,0,6,6,20,1,U,space,,,,,,,,,,
,,,,,R_4nx6fUwBwTjASgF,001,2025-09-16_14h57.50.580,continuous_performance_test,2024.2.4,MacIntel,59.88023952,bb493323-7e6f-414d-aa5f-d5933fc61ef1,5,375.1505,376.7989,space,1,0.393,,0,7,7,11,1,L,space,,,,,,,,,,
,,,,,R_4nx6fUwBwTjASgF,001,2025-09-16_14h57.50.580,continuous_performance_test,2024.2.4,MacIntel,59.88023952,bb493323-7e6f-414d-aa5f-d5933fc61ef1,5,376.8003,378.699,space,1,0.3851,,0,8,8,8,1,I,space,,,,,,,,,,
,,,,,R_4nx6fUwBwTjASgF,001,2025-09-16_14h57.50.580,continuous_performance_test,2024.2.4,MacIntel,59.88023952,bb493323-7e6f-414d-aa5f-d5933fc61ef1,5,378.7003,380.2981,space,1,0.3492,,0,9,9,1,1,B,space,,,,,,,,,,
,,,,,R_4nx6fUwBwTjASgF,001,2025-09-16_14h57.50.580,continuous_performance_test,2024.2.4,MacIntel,59.88023952,bb493323-7e6f-414d-aa5f-d5933fc61ef1,5,380.2993,381.8482,space,1,0.4022,,0,10,10,9,1,J,space,,,,,,,,,,
,,,,,R_4nx6fUwBwTjASgF,001,2025-09-16_14h57.50.580,continuous_performance_test,2024.2.4,MacIntel,59.88023952,bb493323-7e6f-414d-aa5f-d5933fc61ef1,5,381.8495,383.7992,space,1,0.3592,,0,11,11,15,1,P,space,,,,,,,,,,
,,,,,R_4nx6fUwBwTjASgF,001,2025-09-16_14h57.50.580,continuous_performance_test,2024.2.4,MacIntel,59.88023952,bb493323-7e6f-414d-aa5f-d5933fc61ef1,5,383.8005,385.5481,space,1,0.4474,,0,12,12,10,1,K,space,,,,,,,,,,
,,,,,R_4nx6fUwBwTjASgF,001,2025-09-16_14h57.50.580,continuous_performance_test,2024.2.4,MacIntel,59.88023952,bb493323-7e6f-414d-aa5f-d5933fc61ef1,5,385.5494,387.1494,space,1,0.3767,,0,13,13,4,1,E,space,,,,,,,,,,
,,,,,R_4nx6fUwBwTjASgF,001,2025-09-16_14h57.50.580,continuous_performance_test,2024.2.4,MacIntel,59.88023952,bb493323-7e6f-414d-aa5f-d5933fc61ef1,5,387.1507,388.999,space,1,0.3788,,0,14,14,22,1,W,space,,,,,,,,,,
,,,,,R_4nx6fUwBwTjASgF,001,2025-09-16_14h57.50.580,continuous_performance_test,2024.2.4,MacIntel,59.88023952,bb493323-7e6f-414d-aa5f-d5933fc61ef1,5,388.9995,390.5485,space,1,0.3824,,0,15,15,18,1,S,space,,,,,,,,,,
,,,,,R_4nx6fUwBwTjASgF,001,2025-09-16_14h57.50.580,continuous_performance_test,2024.2.4,MacIntel,59.88023952,bb493323-7e6f-414d-aa5f-d5933fc61ef1,5,390.5496,392.3496,space,1,0.3732,,0,16,16,3,1,D,space,,,,,,,,,,
,,,,,R_4nx6fUwBwTjASgF,001,2025-09-16_14h57.50.580,continuous_performance_test,2024.2.4,MacIntel,59.88023952,bb493323-7e6f-414d-aa5f-d5933fc61ef1,5,392.3514,394.1986,,1,,,0,17,17,29,1,X,,,,,,,,,,,
,,,,,R_4nx6fUwBwTjASgF,001,2025-09-16_14h57.50.580,continuous_performance_test,2024.2.4,MacIntel,59.88023952,bb493323-7e6f-414d-aa5f-d5933fc61ef1,5,394.1999,395.9496,space,1,0.3977,,0,18,18,17,1,R,space,,,,,,,,,,
,,,,,R_4nx6fUwBwTjASgF,001,2025-09-16_14h57.50.580,continuous_performance_test,2024.2.4,MacIntel,59.88023952,bb493323-7e6f-414d-aa5f-d5933fc61ef1,5,395.9507,397.7496,space,1,0.4146,,0,19,19,21,1,V,space,,,,,,,,,,
,,,,,R_4nx6fUwBwTjASgF,001,2025-09-16_14h57.50.580,continuous_performance_test,2024.2.4,MacIntel,59.88023952,bb493323-7e6f-414d-aa5f-d5933fc61ef1,5,397.7509,399.5988,,1,,,0,20,20,27,1,X,,,,,,,,,,,
,,,,,R_4nx6fUwBwTjASgF,001,2025-09-16_14h57.50.580,continuous_performance_test,2024.2.4,MacIntel,59.88023952,bb493323-7e6f-414d-aa5f-d5933fc61ef1,5,399.6001,401.2487,space,1,0.6926,,0,21,21,23,1,Y,space,,,,,,,,,,
,,,,,R_4nx6fUwBwTjASgF,001,2025-09-16_14h57.50.580,continuous_performance_test,2024.2.4,MacIntel,59.88023952,bb493323-7e6f-414d-aa5f-d5933fc61ef1,5,401.25,402.7995,space,1,0.3842,,0,22,22,12,1,M,space,,,,,,,,,,
,,,,,R_4nx6fUwBwTjASgF,001,2025-09-16_14h57.50.580,continuous_performance_test,2024.2.4,MacIntel,59.88023952,bb493323-7e6f-414d-aa5f-d5933fc61ef1,5,402.8002,404.75,space,0,0.3948,,0,23,23,28,1,X,,,,,,,,,,,
,,,,,R_4nx6fUwBwTjASgF,001,2025-09-16_14h57.50.580,continuous_performance_test,2024.2.4,MacIntel,59.88023952,bb493323-7e6f-414d-aa5f-d5933fc61ef1,5,404.7514,406.5999,space,1,0.4487,,0,24,24,16,1,Q,space,,,,,,,,,,
,,,,,R_4nx6fUwBwTjASgF,001,2025-09-16_14h57.50.580,continuous_performance_test,2024.2.4,MacIntel,59.88023952,bb493323-7e6f-414d-aa5f-d5933fc61ef1,5,406.6013,408.5496,space,1,0.582,,0,25,25,13,1,N,space,,,,,,,,,,
,,,,,R_4nx6fUwBwTjASgF,001,2025-09-16_14h57.50.580,continuous_performance_test,2024.2.4,MacIntel,59.88023952,bb493323-7e6f-414d-aa5f-d5933fc61ef1,5,408.5508,410.2,,1,,,0,26,26,25,1,X,,,,,,,,,,,
,,,,,R_4nx6fUwBwTjASgF,001,2025-09-16_14h57.50.580,continuous_performance_test,2024.2.4,MacIntel,59.88023952,bb493323-7e6f-414d-aa5f-d5933fc61ef1,5,410.2012,411.9488,space,1,0.4117,,0,27,27,14,1,O,space,,,,,,,,,,
,,,,,R_4nx6fUwBwTjASgF,001,2025-09-16_14h57.50.580,continuous_performance_test,2024.2.4,MacIntel,59.88023952,bb493323-7e6f-414d-aa5f-d5933fc61ef1,5,411.9498,413.5501,space,1,0.5661,,0,28,28,6,1,G,space,,,,,,,,,,
,,,,,R_4nx6fUwBwTjASgF,001,2025-09-16_14h57.50.580,continuous_performance_test,2024.2.4,MacIntel,59.88023952,bb493323-7e6f-414d-aa5f-d5933fc61ef1,5,413.5512,415.5003,space,1,0.4146,,0,29,29,0,1,A,space,,,,,,,,,,
,,,,,R_4nx6fUwBwTjASgF,001,2025-09-16_14h57.50.580,continuous_performance_test,2024.2.4,MacIntel,59.88023952,bb493323-7e6f-414d-aa5f-d5933fc61ef1,5,416.4264,418.3661,,0,,,0,0,0,12,1,M,space,415.5016,416.4166,space,0.8941,,,,,,
,,,,,R_4nx6fUwBwTjASgF,001,2025-09-16_14h57.50.580,continuous_performance_test,2024.2.4,MacIntel,59.88023952,bb493323-7e6f-414d-aa5f-d5933fc61ef1,5,418.3675,420.317,space,1,0.386,,0,1,1,13,1,N,space,,,,,,,,,,
,,,,,R_4nx6fUwBwTjASgF,001,2025-09-16_14h57.50.580,continuous_performance_test,2024.2.4,MacIntel,59.88023952,bb493323-7e6f-414d-aa5f-d5933fc61ef1,5,420.3183,422.2162,space,1,0.385,,0,2,2,0,1,A,space,,,,,,,,,,
,,,,,R_4nx6fUwBwTjASgF,001,2025-09-16_14h57.50.580,continuous_performance_test,2024.2.4,MacIntel,59.88023952,bb493323-7e6f-414d-aa5f-d5933fc61ef1,5,422.2182,424.1172,space,1,0.3928,,0,3,3,16,1,Q,space,,,,,,,,,,
,,,,,R_4nx6fUwBwTjASgF,001,2025-09-16_14h57.50.580,continuous_performance_test,2024.2.4,MacIntel,59.88023952,bb493323-7e6f-414d-aa5f-d5933fc61ef1,5,424.1184,425.7173,,1,,,0,4,4,26,1,X,,,,,,,,,,,
,,,,,R_4nx6fUwBwTjASgF,001,2025-09-16_14h57.50.580,continuous_performance_test,2024.2.4,MacIntel,59.88023952,bb493323-7e6f-414d-aa5f-d5933fc61ef1,5,425.7189,427.4171,space,1,0.3976,,0,5,5,4,1,E,space,,,,,,,,,,
,,,,,R_4nx6fUwBwTjASgF,001,2025-09-16_14h57.50.580,continuous_performance_test,2024.2.4,MacIntel,59.88023952,bb493323-7e6f-414d-aa5f-d5933fc61ef1,5,427.4181,429.3665,space,1,0.4137,,0,6,6,15,1,P,space,,,,,,,,,,
,,,,,R_4nx6fUwBwTjASgF,001,2025-09-16_14h57.50.580,continuous_performance_test,2024.2.4,MacIntel,59.88023952,bb493323-7e6f-414d-aa5f-d5933fc61ef1,5,429.3677,431.1172,space,1,0.4196,,0,7,7,6,1,G,space,,,,,,,,,,
,,,,,R_4nx6fUwBwTjASgF,001,2025-09-16_14h57.50.580,continuous_performance_test,2024.2.4,MacIntel,59.88023952,bb493323-7e6f-414d-aa5f-d5933fc61ef1,5,431.1182,432.9166,space,1,0.3014,,0,8,8,8,1,I,space,,,,,,,,,,
,,,,,R_4nx6fUwBwTjASgF,001,2025-09-16_14h57.50.580,continuous_performance_test,2024.2.4,MacIntel,59.88023952,bb493323-7e6f-414d-aa5f-d5933fc61ef1,5,432.9179,434.5176,space,1,0.38,,0,9,9,22,1,W,space,,,,,,,,,,
,,,,,R_4nx6fUwBwTjASgF,001,2025-09-16_14h57.50.580,continuous_performance_test,2024.2.4,MacIntel,59.88023952,bb493323-7e6f-414d-aa5f-d5933fc61ef1,5,434.5189,436.4666,space,1,0.3615,,0,10,10,10,1,K,space,,,,,,,,,,
,,,,,R_4nx6fUwBwTjASgF,001,2025-09-16_14h57.50.580,continuous_performance_test,2024.2.4,MacIntel,59.88023952,bb493323-7e6f-414d-aa5f-d5933fc61ef1,5,436.4678,438.4668,space,0,0.3293,,0,11,11,28,1,X,,,,,,,,,,,
,,,,,R_4nx6fUwBwTjASgF,001,2025-09-16_14h57.50.580,continuous_performance_test,2024.2.4,MacIntel,59.88023952,bb493323-7e6f-414d-aa5f-d5933fc61ef1,5,438.4679,440.0678,space,1,0.4495,,0,12,12,24,1,Z,space,,,,,,,,,,
,,,,,R_4nx6fUwBwTjASgF,001,2025-09-16_14h57.50.580,continuous_performance_test,2024.2.4,MacIntel,59.88023952,bb493323-7e6f-414d-aa5f-d5933fc61ef1,5,440.0694,441.7179,space,1,0.6306,,0,13,13,20,1,U,space,,,,,,,,,,
,,,,,R_4nx6fUwBwTjASgF,001,2025-09-16_14h57.50.580,continuous_performance_test,2024.2.4,MacIntel,59.88023952,bb493323-7e6f-414d-aa5f-d5933fc61ef1,5,441.7189,443.7178,space,1,0.3664,,0,14,14,2,1,C,space,,,,,,,,,,
,,,,,R_4nx6fUwBwTjASgF,001,2025-09-16_14h57.50.580,continuous_performance_test,2024.2.4,MacIntel,59.88023952,bb493323-7e6f-414d-aa5f-d5933fc61ef1,5,443.7191,445.418,,1,,,0,15,15,29,1,X,,,,,,,,,,,
,,,,,R_4nx6fUwBwTjASgF,001,2025-09-16_14h57.50.580,continuous_performance_test,2024.2.4,MacIntel,59.88023952,bb493323-7e6f-414d-aa5f-d5933fc61ef1,5,445.4193,447.0182,space,1,0.4982,,0,16,16,1,1,B,space,,,,,,,,,,
,,,,,R_4nx6fUwBwTjASgF,001,2025-09-16_14h57.50.580,continuous_performance_test,2024.2.4,MacIntel,59.88023952,bb493323-7e6f-414d-aa5f-d5933fc61ef1,5,447.0194,448.7677,space,1,0.4985,,0,17,17,18,1,S,space,,,,,,,,,,
,,,,,R_4nx6fUwBwTjASgF,001,2025-09-16_14h57.50.580,continuous_performance_test,2024.2.4,MacIntel,59.88023952,bb493323-7e6f-414d-aa5f-d5933fc61ef1,5,448.7685,450.6181,space,1,0.3515,,0,18,18,14,1,O,space,,,,,,,,,,
,,,,,R_4nx6fUwBwTjASgF,001,2025-09-16_14h57.50.580,continuous_performance_test,2024.2.4,MacIntel,59.88023952,bb493323-7e6f-414d-aa5f-d5933fc61ef1,5,450.6195,452.4682,space,1,0.3644,,0,19,19,23,1,Y,space,,,,,,,,,,
,,,,,R_4nx6fUwBwTjASgF,001,2025-09-16_14h57.50.580,continuous_performance_test,2024.2.4,MacIntel,59.88023952,bb493323-7e6f-414d-aa5f-d5933fc61ef1,5,452.4701,454.1176,space,1,0.4301,,0,20,20,11,1,L,space,,,,,,,,,,
,,,,,R_4nx6fUwBwTjASgF,001,2025-09-16_14h57.50.580,continuous_performance_test,2024.2.4,MacIntel,59.88023952,bb493323-7e6f-414d-aa5f-d5933fc61ef1,5,454.1188,455.6684,space,1,0.3472,,0,21,21,7,1,H,space,,,,,,,,,,
,,,,,R_4nx6fUwBwTjASgF,001,2025-09-16_14h57.50.580,continuous_performance_test,2024.2.4,MacIntel,59.88023952,bb493323-7e6f-414d-aa5f-d5933fc61ef1,5,455.6699,457.2684,space,0,0.3084,,0,22,22,25,1,X,,,,,,,,,,,
,,,,,R_4nx6fUwBwTjASgF,001,2025-09-16_14h57.50.580,continuous_performance_test,2024.2.4,MacIntel,59.88023952,bb493323-7e6f-414d-aa5f-d5933fc61ef1,5,457.2695,459.1186,,1,,,0,23,23,27,1,X,,,,,,,,,,,
,,,,,R_4nx6fUwBwTjASgF,001,2025-09-16_14h57.50.580,continuous_performance_test,2024.2.4,MacIntel,59.88023952,bb493323-7e6f-414d-aa5f-d5933fc61ef1,5,459.12,460.9185,space,1,0.4801,,0,24,24,9,1,J,space,,,,,,,,,,
,,,,,R_4nx6fUwBwTjASgF,001,2025-09-16_14h57.50.580,continuous_performance_test,2024.2.4,MacIntel,59.88023952,bb493323-7e6f-414d-aa5f-d5933fc61ef1,5,460.9198,462.5686,space,1,0.4161,,0,25,25,19,1,T,space,,,,,,,,,,
,,,,,R_4nx6fUwBwTjASgF,001,2025-09-16_14h57.50.580,continuous_performance_test,2024.2.4,MacIntel,59.88023952,bb493323-7e6f-414d-aa5f-d5933fc61ef1,5,462.5699,464.5186,space,1,0.396,,0,26,26,5,1,F,space,,,,,,,,,,
,,,,,R_4nx6fUwBwTjASgF,001,2025-09-16_14h57.50.580,continuous_performance_test,2024.2.4,MacIntel,59.88023952,bb493323-7e6f-414d-aa5f-d5933fc61ef1,5,464.5199,466.5183,space,1,0.4629,,0,27,27,17,1,R,space,,,,,,,,,,
,,,,,R_4nx6fUwBwTjASgF,001,2025-09-16_14h57.50.580,continuous_performance_test,2024.2.4,MacIntel,59.88023952,bb493323-7e6f-414d-aa5f-d5933fc61ef1,5,466.5193,468.269,space,1,0.548,,0,28,28,21,1,V,space,,,,,,,,,,
,,,,,R_4nx6fUwBwTjASgF,001,2025-09-16_14h57.50.580,continuous_performance_test,2024.2.4,MacIntel,59.88023952,bb493323-7e6f-414d-aa5f-d5933fc61ef1,5,468.2728,470.1689,space,1,0.5553,,0,29,29,3,1,D,space,,,,,,,,,,
,,,,,R_4nx6fUwBwTjASgF,001,2025-09-16_14h57.50.580,continuous_performance_test,2024.2.4,MacIntel,59.88023952,bb493323-7e6f-414d-aa5f-d5933fc61ef1,5,471.3417,473.0357,,0,,,0,0,0,14,1,O,space,470.1701,471.3357,space,1.1381,,,,,,
,,,,,R_4nx6fUwBwTjASgF,001,2025-09-16_14h57.50.580,continuous_performance_test,2024.2.4,MacIntel,59.88023952,bb493323-7e6f-414d-aa5f-d5933fc61ef1,5,473.0372,474.6851,space,1,0.3748,,0,1,1,6,1,G,space,,,,,,,,,,
,,,,,R_4nx6fUwBwTjASgF,001,2025-09-16_14h57.50.580,continuous_performance_test,2024.2.4,MacIntel,59.88023952,bb493323-7e6f-414d-aa5f-d5933fc61ef1,5,474.6862,476.6853,space,1,0.3127,,0,2,2,20,1,U,space,,,,,,,,,,
,,,,,R_4nx6fUwBwTjASgF,001,2025-09-16_14h57.50.580,continuous_performance_test,2024.2.4,MacIntel,59.88023952,bb493323-7e6f-414d-aa5f-d5933fc61ef1,5,476.6863,478.5359,space,1,0.3805,,0,3,3,24,1,Z,space,,,,,,,,,,
,,,,,R_4nx6fUwBwTjASgF,001,2025-09-16_14h57.50.580,continuous_performance_test,2024.2.4,MacIntel,59.88023952,bb493323-7e6f-414d-aa5f-d5933fc61ef1,5,478.5373,480.186,space,0,0.3997,,0,4,4,25,1,X,,,,,,,,,,,
,,,,,R_4nx6fUwBwTjASgF,001,2025-09-16_14h57.50.580,continuous_performance_test,2024.2.4,MacIntel,59.88023952,bb493323-7e6f-414d-aa5f-d5933fc61ef1,5,480.1882,481.936,space,1,0.3994,,0,5,5,3,1,D,space,,,,,,,,,,
,,,,,R_4nx6fUwBwTjASgF,001,2025-09-16_14h57.50.580,continuous_performance_test,2024.2.4,MacIntel,59.88023952,bb493323-7e6f-414d-aa5f-d5933fc61ef1,5,481.9374,483.6859,space,1,0.4472,,0,6,6,1,1,B,space,,,,,,,,,,
,,,,,R_4nx6fUwBwTjASgF,001,2025-09-16_14h57.50.580,continuous_performance_test,2024.2.4,MacIntel,59.88023952,bb493323-7e6f-414d-aa5f-d5933fc61ef1,5,483.687,485.6359,space,1,0.3846,,0,7,7,19,1,T,space,,,,,,,,,,
,,,,,R_4nx6fUwBwTjASgF,001,2025-09-16_14h57.50.580,continuous_performance_test,2024.2.4,MacIntel,59.88023952,bb493323-7e6f-414d-aa5f-d5933fc61ef1,5,485.6371,487.5358,space,1,0.3628,,0,8,8,8,1,I,space,,,,,,,,,,
,,,,,R_4nx6fUwBwTjASgF,001,2025-09-16_14h57.50.580,continuous_performance_test,2024.2.4,MacIntel,59.88023952,bb493323-7e6f-414d-aa5f-d5933fc61ef1,5,487.5369,489.2863,space,1,0.4285,,0,9,9,7,1,H,space,,,,,,,,,,
,,,,,R_4nx6fUwBwTjASgF,001,2025-09-16_14h57.50.580,continuous_performance_test,2024.2.4,MacIntel,59.88023952,bb493323-7e6f-414d-aa5f-d5933fc61ef1,5,489.2881,491.1863,space,1,0.3784,,0,10,10,18,1,S,space,,,,,,,,,,
,,,,,R_4nx6fUwBwTjASgF,001,2025-09-16_14h57.50.580,continuous_performance_test,2024.2.4,MacIntel,59.88023952,bb493323-7e6f-414d-aa5f-d5933fc61ef1,5,491.1873,493.1863,space,1,0.3809,,0,11,11,2,1,C,space,,,,,,,,,,
,,,,,R_4nx6fUwBwTjASgF,001,2025-09-16_14h57.50.580,continuous_performance_test,2024.2.4,MacIntel,59.88023952,bb493323-7e6f-414d-aa5f-d5933fc61ef1,5,493.1875,495.1865,,1,,,0,12,12,26,1,X,,,,,,,,,,,
,,,,,R_4nx6fUwBwTjASgF,001,2025-09-16_14h57.50.580,continuous_performance_test,2024.2.4,MacIntel,59.88023952,bb493323-7e6f-414d-aa5f-d5933fc61ef1,5,495.1877,497.0864,space,1,0.3312,,0,13,13,15,1,P,space,,,,,,,,,,
,,,,,R_4nx6fUwBwTjASgF,001,2025-09-16_14h57.50.580,continuous_performance_test,2024.2.4,MacIntel,59.88023952,bb493323-7e6f-414d-aa5f-d5933fc61ef1,5,497.0876,498.7866,space,1,0.4317,,0,14,14,5,1,F,space,,,,,,,,,,
,,,,,R_4nx6fUwBwTjASgF,001,2025-09-16_14h57.50.580,continuous_performance_test,2024.2.4,MacIntel,59.88023952,bb493323-7e6f-414d-aa5f-d5933fc61ef1,5,498.788,500.4365,,1,,,0,15,15,27,1,X,,,,,,,,,,,
,,,,,R_4nx6fUwBwTjASgF,001,2025-09-16_14h57.50.580,continuous_performance_test,2024.2.4,MacIntel,59.88023952,bb493323-7e6f-414d-aa5f-d5933fc61ef1,5,500.4378,502.4367,space,1,0.3657,,0,16,16,9,1,J,space,,,,,,,,,,
,,,,,R_4nx6fUwBwTjASgF,001,2025-09-16_14h57.50.580,continuous_performance_test,2024.2.4,MacIntel,59.88023952,bb493323-7e6f-414d-aa5f-d5933fc61ef1,5,502.438,504.1365,,1,,,0,17,17,28,1,X,,,,,,,,,,,
,,,,,R_4nx6fUwBwTjASgF,001,2025-09-16_14h57.50.580,continuous_performance_test,2024.2.4,MacIntel,59.88023952,bb493323-7e6f-414d-aa5f-d5933fc61ef1,5,504.1381,506.1368,space,1,0.4971,,0,18,18,0,1,A,space,,,,,,,,,,
,,,,,R_4nx6fUwBwTjASgF,001,2025-09-16_14h57.50.580,continuous_performance_test,2024.2.4,MacIntel,59.88023952,bb493323-7e6f-414d-aa5f-d5933fc61ef1,5,506.138,508.1368,,1,,,0,19,19,29,1,X,,,,,,,,,,,
,,,,,R_4nx6fUwBwTjASgF,001,2025-09-16_14h57.50.580,continuous_performance_test,2024.2.4,MacIntel,59.88023952,bb493323-7e6f-414d-aa5f-d5933fc61ef1,5,508.1382,509.8365,space,1,0.5668,,0,20,20,16,1,Q,space,,,,,,,,,,
,,,,,R_4nx6fUwBwTjASgF,001,2025-09-16_14h57.50.580,continuous_performance_test,2024.2.4,MacIntel,59.88023952,bb493323-7e6f-414d-aa5f-d5933fc61ef1,5,509.8377,511.3869,space,1,0.697,,0,21,21,22,1,W,space,,,,,,,,,,
,,,,,R_4nx6fUwBwTjASgF,001,2025-09-16_14h57.50.580,continuous_performance_test,2024.2.4,MacIntel,59.88023952,bb493323-7e6f-414d-aa5f-d5933fc61ef1,5,511.3882,513.287,space,1,0.3138,,0,22,22,11,1,L,space,,,,,,,,,,
,,,,,R_4nx6fUwBwTjASgF,001,2025-09-16_14h57.50.580,continuous_performance_test,2024.2.4,MacIntel,59.88023952,bb493323-7e6f-414d-aa5f-d5933fc61ef1,5,513.2883,515.0871,space,1,0.3473,,0,23,23,12,1,M,space,,,,,,,,,,
,,,,,R_4nx6fUwBwTjASgF,001,2025-09-16_14h57.50.580,continuous_performance_test,2024.2.4,MacIntel,59.88023952,bb493323-7e6f-414d-aa5f-d5933fc61ef1,5,515.0887,516.6869,space,1,0.7111,,0,24,24,10,1,K,space,,,,,,,,,,
,,,,,R_4nx6fUwBwTjASgF,001,2025-09-16_14h57.50.580,continuous_performance_test,2024.2.4,MacIntel,59.88023952,bb493323-7e6f-414d-aa5f-d5933fc61ef1,5,516.6875,518.5371,space,1,0.3255,,0,25,25,17,1,R,space,,,,,,,,,,
,,,,,R_4nx6fUwBwTjASgF,001,2025-09-16_14h57.50.580,continuous_performance_test,2024.2.4,MacIntel,59.88023952,bb493323-7e6f-414d-aa5f-d5933fc61ef1,5,518.5381,520.1872,space,1,0.7145,,0,26,26,23,1,Y,space,,,,,,,,,,
,,,,,R_4nx6fUwBwTjASgF,001,2025-09-16_14h57.50.580,continuous_performance_test,2024.2.4,MacIntel,59.88023952,bb493323-7e6f-414d-aa5f-d5933fc61ef1,5,520.1884,522.1874,space,1,0.4125,,0,27,27,13,1,N,space,,,,,,,,,,
,,,,,R_4nx6fUwBwTjASgF,001,2025-09-16_14h57.50.580,continuous_performance_test,2024.2.4,MacIntel,59.88023952,bb493323-7e6f-414d-aa5f-d5933fc61ef1,5,522.1887,524.0875,space,1,0.3974,,0,28,28,4,1,E,space,,,,,,,,,,
,,,,,R_4nx6fUwBwTjASgF,001,2025-09-16_14h57.50.580,continuous_performance_test,2024.2.4,MacIntel,59.88023952,bb493323-7e6f-414d-aa5f-d5933fc61ef1,5,524.0889,525.6375,space,1,0.3817,,0,29,29,21,1,V,space,,,,,,,,,,
,,,,,R_4nx6fUwBwTjASgF,001,2025-09-16_14h57.50.580,continuous_performance_test,2024.2.4,MacIntel,59.88023952,bb493323-7e6f-414d-aa5f-d5933fc61ef1,5,537.5931,539.238,space,1,0.5635,,0,0,0,9,1,J,space,525.6388,537.5885,space,11.9296,,,,,,
,,,,,R_4nx6fUwBwTjASgF,001,2025-09-16_14h57.50.580,continuous_performance_test,2024.2.4,MacIntel,59.88023952,bb493323-7e6f-414d-aa5f-d5933fc61ef1,5,539.2396,540.938,space,0,0.2824,,0,1,1,27,1,X,,,,,,,,,,,
,,,,,R_4nx6fUwBwTjASgF,001,2025-09-16_14h57.50.580,continuous_performance_test,2024.2.4,MacIntel,59.88023952,bb493323-7e6f-414d-aa5f-d5933fc61ef1,5,540.9393,542.5882,space,1,0.3405,,0,2,2,20,1,U,space,,,,,,,,,,
,,,,,R_4nx6fUwBwTjASgF,001,2025-09-16_14h57.50.580,continuous_performance_test,2024.2.4,MacIntel,59.88023952,bb493323-7e6f-414d-aa5f-d5933fc61ef1,5,542.5892,544.2384,space,1,0.3254,,0,3,3,6,1,G,space,,,,,,,,,,
,,,,,R_4nx6fUwBwTjASgF,001,2025-09-16_14h57.50.580,continuous_performance_test,2024.2.4,MacIntel,59.88023952,bb493323-7e6f-414d-aa5f-d5933fc61ef1,5,544.2396,545.888,space,1,0.352,,0,4,4,18,1,S,space,,,,,,,,,,
,,,,,R_4nx6fUwBwTjASgF,001,2025-09-16_14h57.50.580,continuous_performance_test,2024.2.4,MacIntel,59.88023952,bb493323-7e6f-414d-aa5f-d5933fc61ef1,5,545.8897,547.8881,space,1,0.4149,,0,5,5,13,1,N,space,,,,,,,,,,
,,,,,R_4nx6fUwBwTjASgF,001,2025-09-16_14h57.50.580,continuous_performance_test,2024.2.4,MacIntel,59.88023952,bb493323-7e6f-414d-aa5f-d5933fc61ef1,5,547.889,549.7385,,1,,,0,6,6,25,1,X,,,,,,,,,,,
,,,,,R_4nx6fUwBwTjASgF,001,2025-09-16_14h57.50.580,continuous_performance_test,2024.2.4,MacIntel,59.88023952,bb493323-7e6f-414d-aa5f-d5933fc61ef1,5,549.74,551.5884,space,1,0.4538,,0,7,7,22,1,W,space,,,,,,,,,,
,,,,,R_4nx6fUwBwTjASgF,001,2025-09-16_14h57.50.580,continuous_performance_test,2024.2.4,MacIntel,59.88023952,bb493323-7e6f-414d-aa5f-d5933fc61ef1,5,551.5899,553.4886,space,1,0.3921,,0,8,8,0,1,A,space,,,,,,,,,,
,,,,,R_4nx6fUwBwTjASgF,001,2025-09-16_14h57.50.580,continuous_performance_test,2024.2.4,MacIntel,59.88023952,bb493323-7e6f-414d-aa5f-d5933fc61ef1,5,553.4897,555.2385,space,1,0.3308,,0,9,9,16,1,Q,space,,,,,,,,,,
,,,,,R_4nx6fUwBwTjASgF,001,2025-09-16_14h57.50.580,continuous_performance_test,2024.2.4,MacIntel,59.88023952,bb493323-7e6f-414d-aa5f-d5933fc61ef1,5,555.2399,557.0887,,1,,,0,10,10,28,1,X,,,,,,,,,,,
,,,,,R_4nx6fUwBwTjASgF,001,2025-09-16_14h57.50.580,continuous_performance_test,2024.2.4,MacIntel,59.88023952,bb493323-7e6f-414d-aa5f-d5933fc61ef1,5,557.0902,558.6885,space,1,0.5306,,0,11,11,8,1,I,space,,,,,,,,,,
,,,,,R_4nx6fUwBwTjASgF,001,2025-09-16_14h57.50.580,continuous_performance_test,2024.2.4,MacIntel,59.88023952,bb493323-7e6f-414d-aa5f-d5933fc61ef1,5,558.6895,560.5888,,1,,,0,12,12,29,1,X,,,,,,,,,,,
,,,,,R_4nx6fUwBwTjASgF,001,2025-09-16_14h57.50.580,continuous_performance_test,2024.2.4,MacIntel,59.88023952,bb493323-7e6f-414d-aa5f-d5933fc61ef1,5,560.5904,562.1891,space,1,0.4826,,0,13,13,19,1,T,space,,,,,,,,,,
,,,,,R_4nx6fUwBwTjASgF,001,2025-09-16_14h57.50.580,continuous_performance_test,2024.2.4,MacIntel,59.88023952,bb493323-7e6f-414d-aa5f-d5933fc61ef1,5,562.191,563.8386,space,1,0.4292,,0,14,14,17,1,R,space,,,,,,,,,,
,,,,,R_4nx6fUwBwTjASgF,001,2025-09-16_14h57.50.580,continuous_performance_test,2024.2.4,MacIntel,59.88023952,bb493323-7e6f-414d-aa5f-d5933fc61ef1,5,563.839,565.539,space,1,0.3801,,0,15,15,24,1,Z,space,,,,,,,,,,
,,,,,R_4nx6fUwBwTjASgF,001,2025-09-16_14h57.50.580,continuous_performance_test,2024.2.4,MacIntel,59.88023952,bb493323-7e6f-414d-aa5f-d5933fc61ef1,5,565.5416,567.489,space,1,0.3964,,0,16,16,4,1,E,space,,,,,,,,,,
,,,,,R_4nx6fUwBwTjASgF,001,2025-09-16_14h57.50.580,continuous_performance_test,2024.2.4,MacIntel,59.88023952,bb493323-7e6f-414d-aa5f-d5933fc61ef1,5,567.4903,569.0886,space,1,0.483,,0,17,17,10,1,K,space,,,,,,,,,,
,,,,,R_4nx6fUwBwTjASgF,001,2025-09-16_14h57.50.580,continuous_performance_test,2024.2.4,MacIntel,59.88023952,bb493323-7e6f-414d-aa5f-d5933fc61ef1,5,569.089,570.7892,space,1,0.3815,,0,18,18,11,1,L,space,,,,,,,,,,
,,,,,R_4nx6fUwBwTjASgF,001,2025-09-16_14h57.50.580,continuous_performance_test,2024.2.4,MacIntel,59.88023952,bb493323-7e6f-414d-aa5f-d5933fc61ef1,5,570.7904,572.5392,space,1,0.3969,,0,19,19,7,1,H,space,,,,,,,,,,
,,,,,R_4nx6fUwBwTjASgF,001,2025-09-16_14h57.50.580,continuous_performance_test,2024.2.4,MacIntel,59.88023952,bb493323-7e6f-414d-aa5f-d5933fc61ef1,5,572.5405,574.1893,,1,,,0,20,20,26,1,X,,,,,,,,,,,
,,,,,R_4nx6fUwBwTjASgF,001,2025-09-16_14h57.50.580,continuous_performance_test,2024.2.4,MacIntel,59.88023952,bb493323-7e6f-414d-aa5f-d5933fc61ef1,5,574.1905,576.0394,space,1,0.3314,,0,21,21,14,1,O,space,,,,,,,,,,
,,,,,R_4nx6fUwBwTjASgF,001,2025-09-16_14h57.50.580,continuous_performance_test,2024.2.4,MacIntel,59.88023952,bb493323-7e6f-414d-aa5f-d5933fc61ef1,5,576.0406,577.9894,space,1,0.4176,,0,22,22,23,1,Y,space,,,,,,,,,,
,,,,,R_4nx6fUwBwTjASgF,001,2025-09-16_14h57.50.580,continuous_performance_test,2024.2.4,MacIntel,59.88023952,bb493323-7e6f-414d-aa5f-d5933fc61ef1,5,577.9911,579.7881,space,1,0.4141,,0,23,23,1,1,B,space,,,,,,,,,,
,,,,,R_4nx6fUwBwTjASgF,001,2025-09-16_14h57.50.580,continuous_performance_test,2024.2.4,MacIntel,59.88023952,bb493323-7e6f-414d-aa5f-d5933fc61ef1,5,579.7886,581.5895,space,1,0.3804,,0,24,24,2,1,C,space,,,,,,,,,,
,,,,,R_4nx6fUwBwTjASgF,001,2025-09-16_14h57.50.580,continuous_performance_test,2024.2.4,MacIntel,59.88023952,bb493323-7e6f-414d-aa5f-d5933fc61ef1,5,581.5907,583.2895,space,1,0.4471,,0,25,25,21,1,V,space,,,,,,,,,,
,,,,,R_4nx6fUwBwTjASgF,001,2025-09-16_14h57.50.580,continuous_performance_test,2024.2.4,MacIntel,59.88023952,bb493323-7e6f-414d-aa5f-d5933fc61ef1,5,583.2906,584.9895,space,1,0.3415,,0,26,26,3,1,D,space,,,,,,,,,,
,,,,,R_4nx6fUwBwTjASgF,001,2025-09-16_14h57.50.580,continuous_performance_test,2024.2.4,MacIntel,59.88023952,bb493323-7e6f-414d-aa5f-d5933fc61ef1,5,584.9908,586.5396,space,1,0.4668,,0,27,27,5,1,F,space,,,,,,,,,,
,,,,,R_4nx6fUwBwTjASgF,001,2025-09-16_14h57.50.580,continuous_performance_test,2024.2.4,MacIntel,59.88023952,bb493323-7e6f-414d-aa5f-d5933fc61ef1,5,586.5409,588.1897,space,1,0.3811,,0,28,28,12,1,M,space,,,,,,,,,,
,,,,,R_4nx6fUwBwTjASgF,001,2025-09-16_14h57.50.580,continuous_performance_test,2024.2.4,MacIntel,59.88023952,bb493323-7e6f-414d-aa5f-d5933fc61ef1,5,588.1915,589.9895,space,1,0.7351,,0,29,29,15,1,P,space,,,,,,,,,,
,,,,,R_4nx6fUwBwTjASgF,001,2025-09-16_14h57.50.580,continuous_performance_test,2024.2.4,MacIntel,59.88023952,bb493323-7e6f-414d-aa5f-d5933fc61ef1,5,,,,,,,,,,,,,,589.9916,589.9931,,,,589.9955,598.4902,space,8.4662,
