Instructions.started,Instructions.stopped,key_resp.keys,key_resp.rt,key_resp.duration,participant,session,date,expName,psychopyVersion,OS,frameRate,realeye-tester-id,realeye-tester-quality_grade,Trial_noX.started,Trial_noX.stopped,response.keys,response.corr,trials_noX.thisRepN,trials_noX.thisTrialN,trials_noX.thisN,trials_noX.thisIndex,trials_noX.ran,letter,corrAns,response.rt,response.duration,BlockBreak.started,BlockBreak.stopped,key_instruct.keys,key_instruct.rt,key_instruct.duration,End_NoX.started,End_NoX.stopped,key_resp_end_noX.keys,key_resp_end_noX.rt,key_resp_end_noX.duration
0.0004,19.9667,space,19.9535,,R_4Qmvgp1ddD3Qpqs,001,2025-07-29_11h24.10.927,continuous_performance_test,2024.2.4,MacIntel,125,85ef14de-f67e-40ad-a3c6-7ac543db7079,5,,,,,,,,,,,,,,,,,,,,,,,
,,,,,R_4Qmvgp1ddD3Qpqs,001,2025-07-29_11h24.10.927,continuous_performance_test,2024.2.4,MacIntel,125,85ef14de-f67e-40ad-a3c6-7ac543db7079,5,19.9789,21.8276,,0,0,0,0,14,1,O,space,,,,,,,,,,,,
,,,,,R_4Qmvgp1ddD3Qpqs,001,2025-07-29_11h24.10.927,continuous_performance_test,2024.2.4,MacIntel,125,85ef14de-f67e-40ad-a3c6-7ac543db7079,5,21.829,23.8244,space,1,0,1,1,13,1,N,space,0.3088,,,,,,,,,,,
,,,,,R_4Qmvgp1ddD3Qpqs,001,2025-07-29_11h24.10.927,continuous_performance_test,2024.2.4,MacIntel,125,85ef14de-f67e-40ad-a3c6-7ac543db7079,5,23.8254,25.4715,space,1,0,2,2,11,1,L,space,0.3451,,,,,,,,,,,
,,,,,R_4Qmvgp1ddD3Qpqs,001,2025-07-29_11h24.10.927,continuous_performance_test,2024.2.4,MacIntel,125,85ef14de-f67e-40ad-a3c6-7ac543db7079,5,25.4731,27.2169,space,1,0,3,3,16,1,Q,space,0.4281,,,,,,,,,,,
,,,,,R_4Qmvgp1ddD3Qpqs,001,2025-07-29_11h24.10.927,continuous_performance_test,2024.2.4,MacIntel,125,85ef14de-f67e-40ad-a3c6-7ac543db7079,5,27.2192,29.2208,space,1,0,4,4,20,1,U,space,0.2854,,,,,,,,,,,
,,,,,R_4Qmvgp1ddD3Qpqs,001,2025-07-29_11h24.10.927,continuous_performance_test,2024.2.4,MacIntel,125,85ef14de-f67e-40ad-a3c6-7ac543db7079,5,29.2237,30.9206,space,1,0,5,5,22,1,W,space,0.3788,,,,,,,,,,,
,,,,,R_4Qmvgp1ddD3Qpqs,001,2025-07-29_11h24.10.927,continuous_performance_test,2024.2.4,MacIntel,125,85ef14de-f67e-40ad-a3c6-7ac543db7079,5,30.9217,32.7653,space,1,0,6,6,23,1,Y,space,0.3579,,,,,,,,,,,
,,,,,R_4Qmvgp1ddD3Qpqs,001,2025-07-29_11h24.10.927,continuous_performance_test,2024.2.4,MacIntel,125,85ef14de-f67e-40ad-a3c6-7ac543db7079,5,32.7665,34.7123,space,1,0,7,7,6,1,G,space,0.3761,,,,,,,,,,,
,,,,,R_4Qmvgp1ddD3Qpqs,001,2025-07-29_11h24.10.927,continuous_performance_test,2024.2.4,MacIntel,125,85ef14de-f67e-40ad-a3c6-7ac543db7079,5,34.7146,36.2577,space,1,0,8,8,0,1,A,space,0.3569,,,,,,,,,,,
,,,,,R_4Qmvgp1ddD3Qpqs,001,2025-07-29_11h24.10.927,continuous_performance_test,2024.2.4,MacIntel,125,85ef14de-f67e-40ad-a3c6-7ac543db7079,5,36.2586,38.2583,space,1,0,9,9,9,1,J,space,0.3228,,,,,,,,,,,
,,,,,R_4Qmvgp1ddD3Qpqs,001,2025-07-29_11h24.10.927,continuous_performance_test,2024.2.4,MacIntel,125,85ef14de-f67e-40ad-a3c6-7ac543db7079,5,38.2609,39.9069,space,1,0,10,10,3,1,D,space,0.3659,,,,,,,,,,,
,,,,,R_4Qmvgp1ddD3Qpqs,001,2025-07-29_11h24.10.927,continuous_performance_test,2024.2.4,MacIntel,125,85ef14de-f67e-40ad-a3c6-7ac543db7079,5,39.9092,41.9032,space,1,0,11,11,17,1,R,space,0.3521,,,,,,,,,,,
,,,,,R_4Qmvgp1ddD3Qpqs,001,2025-07-29_11h24.10.927,continuous_performance_test,2024.2.4,MacIntel,125,85ef14de-f67e-40ad-a3c6-7ac543db7079,5,41.9048,43.453,space,1,0,12,12,12,1,M,space,0.3676,,,,,,,,,,,
,,,,,R_4Qmvgp1ddD3Qpqs,001,2025-07-29_11h24.10.927,continuous_performance_test,2024.2.4,MacIntel,125,85ef14de-f67e-40ad-a3c6-7ac543db7079,5,43.4557,45.1994,,1,0,13,13,26,1,X,,,,,,,,,,,,,
,,,,,R_4Qmvgp1ddD3Qpqs,001,2025-07-29_11h24.10.927,continuous_performance_test,2024.2.4,MacIntel,125,85ef14de-f67e-40ad-a3c6-7ac543db7079,5,45.2019,47.0461,space,1,0,14,14,19,1,T,space,0.3397,,,,,,,,,,,
,,,,,R_4Qmvgp1ddD3Qpqs,001,2025-07-29_11h24.10.927,continuous_performance_test,2024.2.4,MacIntel,125,85ef14de-f67e-40ad-a3c6-7ac543db7079,5,47.0489,49.0458,space,1,0,15,15,2,1,C,space,0.3047,,,,,,,,,,,
,,,,,R_4Qmvgp1ddD3Qpqs,001,2025-07-29_11h24.10.927,continuous_performance_test,2024.2.4,MacIntel,125,85ef14de-f67e-40ad-a3c6-7ac543db7079,5,49.0481,50.7918,space,1,0,16,16,18,1,S,space,0.3027,,,,,,,,,,,
,,,,,R_4Qmvgp1ddD3Qpqs,001,2025-07-29_11h24.10.927,continuous_performance_test,2024.2.4,MacIntel,125,85ef14de-f67e-40ad-a3c6-7ac543db7079,5,50.793,52.587,space,0,0,17,17,29,1,X,,0.2373,,,,,,,,,,,
,,,,,R_4Qmvgp1ddD3Qpqs,001,2025-07-29_11h24.10.927,continuous_performance_test,2024.2.4,MacIntel,125,85ef14de-f67e-40ad-a3c6-7ac543db7079,5,52.5882,54.533,space,1,0,18,18,5,1,F,space,0.3353,,,,,,,,,,,
,,,,,R_4Qmvgp1ddD3Qpqs,001,2025-07-29_11h24.10.927,continuous_performance_test,2024.2.4,MacIntel,125,85ef14de-f67e-40ad-a3c6-7ac543db7079,5,54.535,56.2294,space,1,0,19,19,8,1,I,space,0.3598,,,,,,,,,,,
,,,,,R_4Qmvgp1ddD3Qpqs,001,2025-07-29_11h24.10.927,continuous_performance_test,2024.2.4,MacIntel,125,85ef14de-f67e-40ad-a3c6-7ac543db7079,5,56.2317,58.0323,space,1,0,20,20,1,1,B,space,0.3361,,,,,,,,,,,
,,,,,R_4Qmvgp1ddD3Qpqs,001,2025-07-29_11h24.10.927,continuous_performance_test,2024.2.4,MacIntel,125,85ef14de-f67e-40ad-a3c6-7ac543db7079,5,58.0343,59.5782,space,1,0,21,21,7,1,H,space,0.3575,,,,,,,,,,,
,,,,,R_4Qmvgp1ddD3Qpqs,001,2025-07-29_11h24.10.927,continuous_performance_test,2024.2.4,MacIntel,125,85ef14de-f67e-40ad-a3c6-7ac543db7079,5,59.5806,61.1749,,1,0,22,22,28,1,X,,,,,,,,,,,,,
,,,,,R_4Qmvgp1ddD3Qpqs,001,2025-07-29_11h24.10.927,continuous_performance_test,2024.2.4,MacIntel,125,85ef14de-f67e-40ad-a3c6-7ac543db7079,5,61.1759,62.9814,space,1,0,23,23,24,1,Z,space,0.3573,,,,,,,,,,,
,,,,,R_4Qmvgp1ddD3Qpqs,001,2025-07-29_11h24.10.927,continuous_performance_test,2024.2.4,MacIntel,125,85ef14de-f67e-40ad-a3c6-7ac543db7079,5,62.9838,64.6317,space,1,0,24,24,4,1,E,space,0.2871,,,,,,,,,,,
,,,,,R_4Qmvgp1ddD3Qpqs,001,2025-07-29_11h24.10.927,continuous_performance_test,2024.2.4,MacIntel,125,85ef14de-f67e-40ad-a3c6-7ac543db7079,5,64.6329,66.3289,,1,0,25,25,25,1,X,,,,,,,,,,,,,
,,,,,R_4Qmvgp1ddD3Qpqs,001,2025-07-29_11h24.10.927,continuous_performance_test,2024.2.4,MacIntel,125,85ef14de-f67e-40ad-a3c6-7ac543db7079,5,66.3297,68.2237,space,0,0,26,26,27,1,X,,0.2985,,,,,,,,,,,
,,,,,R_4Qmvgp1ddD3Qpqs,001,2025-07-29_11h24.10.927,continuous_performance_test,2024.2.4,MacIntel,125,85ef14de-f67e-40ad-a3c6-7ac543db7079,5,68.2258,70.0746,space,1,0,27,27,21,1,V,space,0.3714,,,,,,,,,,,
,,,,,R_4Qmvgp1ddD3Qpqs,001,2025-07-29_11h24.10.927,continuous_performance_test,2024.2.4,MacIntel,125,85ef14de-f67e-40ad-a3c6-7ac543db7079,5,70.0775,71.9704,space,1,0,28,28,10,1,K,space,0.414,,,,,,,,,,,
,,,,,R_4Qmvgp1ddD3Qpqs,001,2025-07-29_11h24.10.927,continuous_performance_test,2024.2.4,MacIntel,125,85ef14de-f67e-40ad-a3c6-7ac543db7079,5,71.9726,73.6655,space,1,0,29,29,15,1,P,space,0.3589,,,,,,,,,,,
,,,,,R_4Qmvgp1ddD3Qpqs,001,2025-07-29_11h24.10.927,continuous_performance_test,2024.2.4,MacIntel,125,85ef14de-f67e-40ad-a3c6-7ac543db7079,5,84.9719,86.9658,space,1,0,0,0,17,1,R,space,0.3848,,73.6663,84.9645,space,11.2864,,,,,,
,,,,,R_4Qmvgp1ddD3Qpqs,001,2025-07-29_11h24.10.927,continuous_performance_test,2024.2.4,MacIntel,125,85ef14de-f67e-40ad-a3c6-7ac543db7079,5,86.9668,88.7127,space,1,0,1,1,11,1,L,space,0.3853,,,,,,,,,,,
,,,,,R_4Qmvgp1ddD3Qpqs,001,2025-07-29_11h24.10.927,continuous_performance_test,2024.2.4,MacIntel,125,85ef14de-f67e-40ad-a3c6-7ac543db7079,5,88.7148,90.6125,space,1,0,2,2,18,1,S,space,0.3082,,,,,,,,,,,
,,,,,R_4Qmvgp1ddD3Qpqs,001,2025-07-29_11h24.10.927,continuous_performance_test,2024.2.4,MacIntel,125,85ef14de-f67e-40ad-a3c6-7ac543db7079,5,90.6135,92.5624,space,1,0,3,3,3,1,D,space,0.2918,,,,,,,,,,,
,,,,,R_4Qmvgp1ddD3Qpqs,001,2025-07-29_11h24.10.927,continuous_performance_test,2024.2.4,MacIntel,125,85ef14de-f67e-40ad-a3c6-7ac543db7079,5,92.5649,94.1082,space,1,0,4,4,1,1,B,space,0.3447,,,,,,,,,,,
,,,,,R_4Qmvgp1ddD3Qpqs,001,2025-07-29_11h24.10.927,continuous_performance_test,2024.2.4,MacIntel,125,85ef14de-f67e-40ad-a3c6-7ac543db7079,5,94.1099,95.7564,space,1,0,5,5,16,1,Q,space,0.3744,,,,,,,,,,,
,,,,,R_4Qmvgp1ddD3Qpqs,001,2025-07-29_11h24.10.927,continuous_performance_test,2024.2.4,MacIntel,125,85ef14de-f67e-40ad-a3c6-7ac543db7079,5,95.7574,97.5045,,1,0,6,6,27,1,X,,,,,,,,,,,,,
,,,,,R_4Qmvgp1ddD3Qpqs,001,2025-07-29_11h24.10.927,continuous_performance_test,2024.2.4,MacIntel,125,85ef14de-f67e-40ad-a3c6-7ac543db7079,5,97.5055,99.4529,space,1,0,7,7,7,1,H,space,0.2612,,,,,,,,,,,
,,,,,R_4Qmvgp1ddD3Qpqs,001,2025-07-29_11h24.10.927,continuous_performance_test,2024.2.4,MacIntel,125,85ef14de-f67e-40ad-a3c6-7ac543db7079,5,99.4547,101.2001,space,1,0,8,8,2,1,C,space,0.2975,,,,,,,,,,,
,,,,,R_4Qmvgp1ddD3Qpqs,001,2025-07-29_11h24.10.927,continuous_performance_test,2024.2.4,MacIntel,125,85ef14de-f67e-40ad-a3c6-7ac543db7079,5,101.2026,102.8957,space,1,0,9,9,5,1,F,space,0.3147,,,,,,,,,,,
,,,,,R_4Qmvgp1ddD3Qpqs,001,2025-07-29_11h24.10.927,continuous_performance_test,2024.2.4,MacIntel,125,85ef14de-f67e-40ad-a3c6-7ac543db7079,5,102.8966,104.4424,space,1,0,10,10,12,1,M,space,0.2788,,,,,,,,,,,
,,,,,R_4Qmvgp1ddD3Qpqs,001,2025-07-29_11h24.10.927,continuous_performance_test,2024.2.4,MacIntel,125,85ef14de-f67e-40ad-a3c6-7ac543db7079,5,104.4449,106.3919,space,1,0,11,11,10,1,K,space,0.4275,,,,,,,,,,,
,,,,,R_4Qmvgp1ddD3Qpqs,001,2025-07-29_11h24.10.927,continuous_performance_test,2024.2.4,MacIntel,125,85ef14de-f67e-40ad-a3c6-7ac543db7079,5,106.3947,108.0407,space,1,0,12,12,20,1,U,space,0.3221,,,,,,,,,,,
,,,,,R_4Qmvgp1ddD3Qpqs,001,2025-07-29_11h24.10.927,continuous_performance_test,2024.2.4,MacIntel,125,85ef14de-f67e-40ad-a3c6-7ac543db7079,5,108.0429,109.6866,space,1,0,13,13,14,1,O,space,0.3457,,,,,,,,,,,
,,,,,R_4Qmvgp1ddD3Qpqs,001,2025-07-29_11h24.10.927,continuous_performance_test,2024.2.4,MacIntel,125,85ef14de-f67e-40ad-a3c6-7ac543db7079,5,109.6888,111.4821,,1,0,14,14,28,1,X,,,,,,,,,,,,,
,,,,,R_4Qmvgp1ddD3Qpqs,001,2025-07-29_11h24.10.927,continuous_performance_test,2024.2.4,MacIntel,125,85ef14de-f67e-40ad-a3c6-7ac543db7079,5,111.4838,113.2794,,1,0,15,15,25,1,X,,,,,,,,,,,,,
,,,,,R_4Qmvgp1ddD3Qpqs,001,2025-07-29_11h24.10.927,continuous_performance_test,2024.2.4,MacIntel,125,85ef14de-f67e-40ad-a3c6-7ac543db7079,5,113.2805,115.2277,space,1,0,16,16,23,1,Y,space,0.4069,,,,,,,,,,,
,,,,,R_4Qmvgp1ddD3Qpqs,001,2025-07-29_11h24.10.927,continuous_performance_test,2024.2.4,MacIntel,125,85ef14de-f67e-40ad-a3c6-7ac543db7079,5,115.23,116.9792,space,1,0,17,17,15,1,P,space,0.2916,,,,,,,,,,,
,,,,,R_4Qmvgp1ddD3Qpqs,001,2025-07-29_11h24.10.927,continuous_performance_test,2024.2.4,MacIntel,125,85ef14de-f67e-40ad-a3c6-7ac543db7079,5,116.9802,118.7742,space,1,0,18,18,8,1,I,space,0.3376,,,,,,,,,,,
,,,,,R_4Qmvgp1ddD3Qpqs,001,2025-07-29_11h24.10.927,continuous_performance_test,2024.2.4,MacIntel,125,85ef14de-f67e-40ad-a3c6-7ac543db7079,5,118.7751,120.7729,,1,0,19,19,29,1,X,,,,,,,,,,,,,
,,,,,R_4Qmvgp1ddD3Qpqs,001,2025-07-29_11h24.10.927,continuous_performance_test,2024.2.4,MacIntel,125,85ef14de-f67e-40ad-a3c6-7ac543db7079,5,120.7742,122.4707,,1,0,20,20,26,1,X,,,,,,,,,,,,,
,,,,,R_4Qmvgp1ddD3Qpqs,001,2025-07-29_11h24.10.927,continuous_performance_test,2024.2.4,MacIntel,125,85ef14de-f67e-40ad-a3c6-7ac543db7079,5,122.4719,124.3701,space,1,0,21,21,4,1,E,space,0.3397,,,,,,,,,,,
,,,,,R_4Qmvgp1ddD3Qpqs,001,2025-07-29_11h24.10.927,continuous_performance_test,2024.2.4,MacIntel,125,85ef14de-f67e-40ad-a3c6-7ac543db7079,5,124.3711,126.1165,space,1,0,22,22,19,1,T,space,0.2977,,,,,,,,,,,
,,,,,R_4Qmvgp1ddD3Qpqs,001,2025-07-29_11h24.10.927,continuous_performance_test,2024.2.4,MacIntel,125,85ef14de-f67e-40ad-a3c6-7ac543db7079,5,126.1174,127.9165,space,1,0,23,23,24,1,Z,space,0.3678,,,,,,,,,,,
,,,,,R_4Qmvgp1ddD3Qpqs,001,2025-07-29_11h24.10.927,continuous_performance_test,2024.2.4,MacIntel,125,85ef14de-f67e-40ad-a3c6-7ac543db7079,5,127.9186,129.9162,space,1,0,24,24,13,1,N,space,0.3169,,,,,,,,,,,
,,,,,R_4Qmvgp1ddD3Qpqs,001,2025-07-29_11h24.10.927,continuous_performance_test,2024.2.4,MacIntel,125,85ef14de-f67e-40ad-a3c6-7ac543db7079,5,129.9184,131.6108,space,1,0,25,25,0,1,A,space,0.3311,,,,,,,,,,,
,,,,,R_4Qmvgp1ddD3Qpqs,001,2025-07-29_11h24.10.927,continuous_performance_test,2024.2.4,MacIntel,125,85ef14de-f67e-40ad-a3c6-7ac543db7079,5,131.6118,133.5084,space,1,0,26,26,21,1,V,space,0.2915,,,,,,,,,,,
,,,,,R_4Qmvgp1ddD3Qpqs,001,2025-07-29_11h24.10.927,continuous_performance_test,2024.2.4,MacIntel,125,85ef14de-f67e-40ad-a3c6-7ac543db7079,5,133.5093,135.5037,space,1,0,27,27,22,1,W,space,0.4042,,,,,,,,,,,
,,,,,R_4Qmvgp1ddD3Qpqs,001,2025-07-29_11h24.10.927,continuous_performance_test,2024.2.4,MacIntel,125,85ef14de-f67e-40ad-a3c6-7ac543db7079,5,135.5047,137.3495,space,1,0,28,28,6,1,G,space,0.3522,,,,,,,,,,,
,,,,,R_4Qmvgp1ddD3Qpqs,001,2025-07-29_11h24.10.927,continuous_performance_test,2024.2.4,MacIntel,125,85ef14de-f67e-40ad-a3c6-7ac543db7079,5,137.3517,139.1958,space,1,0,29,29,9,1,J,space,0.3577,,,,,,,,,,,
,,,,,R_4Qmvgp1ddD3Qpqs,001,2025-07-29_11h24.10.927,continuous_performance_test,2024.2.4,MacIntel,125,85ef14de-f67e-40ad-a3c6-7ac543db7079,5,148.0263,149.8711,space,1,0,0,0,9,1,J,space,0.4003,,139.1975,148.0211,space,8.8117,,,,,,
,,,,,R_4Qmvgp1ddD3Qpqs,001,2025-07-29_11h24.10.927,continuous_performance_test,2024.2.4,MacIntel,125,85ef14de-f67e-40ad-a3c6-7ac543db7079,5,149.8722,151.6166,space,1,0,1,1,10,1,K,space,0.2996,,,,,,,,,,,
,,,,,R_4Qmvgp1ddD3Qpqs,001,2025-07-29_11h24.10.927,continuous_performance_test,2024.2.4,MacIntel,125,85ef14de-f67e-40ad-a3c6-7ac543db7079,5,151.6191,153.4123,space,0,0,2,2,29,1,X,,0.3262,,,,,,,,,,,
,,,,,R_4Qmvgp1ddD3Qpqs,001,2025-07-29_11h24.10.927,continuous_performance_test,2024.2.4,MacIntel,125,85ef14de-f67e-40ad-a3c6-7ac543db7079,5,153.4141,155.0125,,1,0,3,3,25,1,X,,,,,,,,,,,,,
,,,,,R_4Qmvgp1ddD3Qpqs,001,2025-07-29_11h24.10.927,continuous_performance_test,2024.2.4,MacIntel,125,85ef14de-f67e-40ad-a3c6-7ac543db7079,5,155.0134,156.9122,,1,0,4,4,27,1,X,,,,,,,,,,,,,
,,,,,R_4Qmvgp1ddD3Qpqs,001,2025-07-29_11h24.10.927,continuous_performance_test,2024.2.4,MacIntel,125,85ef14de-f67e-40ad-a3c6-7ac543db7079,5,156.9136,158.6621,space,1,0,5,5,5,1,F,space,0.4043,,,,,,,,,,,
,,,,,R_4Qmvgp1ddD3Qpqs,001,2025-07-29_11h24.10.927,continuous_performance_test,2024.2.4,MacIntel,125,85ef14de-f67e-40ad-a3c6-7ac543db7079,5,158.664,160.6662,space,1,0,6,6,11,1,L,space,0.3271,,,,,,,,,,,
,,,,,R_4Qmvgp1ddD3Qpqs,001,2025-07-29_11h24.10.927,continuous_performance_test,2024.2.4,MacIntel,125,85ef14de-f67e-40ad-a3c6-7ac543db7079,5,160.6676,162.5625,space,1,0,7,7,2,1,C,space,0.3643,,,,,,,,,,,
,,,,,R_4Qmvgp1ddD3Qpqs,001,2025-07-29_11h24.10.927,continuous_performance_test,2024.2.4,MacIntel,125,85ef14de-f67e-40ad-a3c6-7ac543db7079,5,162.5649,164.3613,space,1,0,8,8,23,1,Y,space,0.2686,,,,,,,,,,,
,,,,,R_4Qmvgp1ddD3Qpqs,001,2025-07-29_11h24.10.927,continuous_performance_test,2024.2.4,MacIntel,125,85ef14de-f67e-40ad-a3c6-7ac543db7079,5,164.3634,166.1083,space,1,0,9,9,6,1,G,space,0.2741,,,,,,,,,,,
,,,,,R_4Qmvgp1ddD3Qpqs,001,2025-07-29_11h24.10.927,continuous_performance_test,2024.2.4,MacIntel,125,85ef14de-f67e-40ad-a3c6-7ac543db7079,5,166.1095,168.0031,space,1,0,10,10,0,1,A,space,0.3779,,,,,,,,,,,
,,,,,R_4Qmvgp1ddD3Qpqs,001,2025-07-29_11h24.10.927,continuous_performance_test,2024.2.4,MacIntel,125,85ef14de-f67e-40ad-a3c6-7ac543db7079,5,168.004,169.6493,space,1,0,11,11,13,1,N,space,0.3075,,,,,,,,,,,
,,,,,R_4Qmvgp1ddD3Qpqs,001,2025-07-29_11h24.10.927,continuous_performance_test,2024.2.4,MacIntel,125,85ef14de-f67e-40ad-a3c6-7ac543db7079,5,169.6501,171.5443,space,1,0,12,12,22,1,W,space,0.3032,,,,,,,,,,,
,,,,,R_4Qmvgp1ddD3Qpqs,001,2025-07-29_11h24.10.927,continuous_performance_test,2024.2.4,MacIntel,125,85ef14de-f67e-40ad-a3c6-7ac543db7079,5,171.5453,173.2913,space,1,0,13,13,4,1,E,space,0.3781,,,,,,,,,,,
,,,,,R_4Qmvgp1ddD3Qpqs,001,2025-07-29_11h24.10.927,continuous_performance_test,2024.2.4,MacIntel,125,85ef14de-f67e-40ad-a3c6-7ac543db7079,5,173.2923,174.8912,space,1,0,14,14,8,1,I,space,0.3629,,,,,,,,,,,
,,,,,R_4Qmvgp1ddD3Qpqs,001,2025-07-29_11h24.10.927,continuous_performance_test,2024.2.4,MacIntel,125,85ef14de-f67e-40ad-a3c6-7ac543db7079,5,174.892,176.742,space,1,0,15,15,3,1,D,space,0.3365,,,,,,,,,,,
,,,,,R_4Qmvgp1ddD3Qpqs,001,2025-07-29_11h24.10.927,continuous_performance_test,2024.2.4,MacIntel,125,85ef14de-f67e-40ad-a3c6-7ac543db7079,5,176.7439,178.5394,space,1,0,16,16,7,1,H,space,0.377,,,,,,,,,,,
,,,,,R_4Qmvgp1ddD3Qpqs,001,2025-07-29_11h24.10.927,continuous_performance_test,2024.2.4,MacIntel,125,85ef14de-f67e-40ad-a3c6-7ac543db7079,5,178.541,180.0868,,1,0,17,17,28,1,X,,,,,,,,,,,,,
,,,,,R_4Qmvgp1ddD3Qpqs,001,2025-07-29_11h24.10.927,continuous_performance_test,2024.2.4,MacIntel,125,85ef14de-f67e-40ad-a3c6-7ac543db7079,5,180.0888,181.6858,space,1,0,18,18,15,1,P,space,0.3406,,,,,,,,,,,
,,,,,R_4Qmvgp1ddD3Qpqs,001,2025-07-29_11h24.10.927,continuous_performance_test,2024.2.4,MacIntel,125,85ef14de-f67e-40ad-a3c6-7ac543db7079,5,181.6893,183.6367,space,1,0,19,19,18,1,S,space,0.3721,,,,,,,,,,,
,,,,,R_4Qmvgp1ddD3Qpqs,001,2025-07-29_11h24.10.927,continuous_performance_test,2024.2.4,MacIntel,125,85ef14de-f67e-40ad-a3c6-7ac543db7079,5,183.6388,185.5362,space,1,0,20,20,24,1,Z,space,0.3308,,,,,,,,,,,
,,,,,R_4Qmvgp1ddD3Qpqs,001,2025-07-29_11h24.10.927,continuous_performance_test,2024.2.4,MacIntel,125,85ef14de-f67e-40ad-a3c6-7ac543db7079,5,185.5376,187.4874,space,1,0,21,21,21,1,V,space,0.3695,,,,,,,,,,,
,,,,,R_4Qmvgp1ddD3Qpqs,001,2025-07-29_11h24.10.927,continuous_performance_test,2024.2.4,MacIntel,125,85ef14de-f67e-40ad-a3c6-7ac543db7079,5,187.4897,189.4412,space,1,0,22,22,16,1,Q,space,0.3519,,,,,,,,,,,
,,,,,R_4Qmvgp1ddD3Qpqs,001,2025-07-29_11h24.10.927,continuous_performance_test,2024.2.4,MacIntel,125,85ef14de-f67e-40ad-a3c6-7ac543db7079,5,189.4436,191.1918,space,1,0,23,23,19,1,T,space,0.3828,,,,,,,,,,,
,,,,,R_4Qmvgp1ddD3Qpqs,001,2025-07-29_11h24.10.927,continuous_performance_test,2024.2.4,MacIntel,125,85ef14de-f67e-40ad-a3c6-7ac543db7079,5,191.1942,193.1866,space,1,0,24,24,20,1,U,space,0.3372,,,,,,,,,,,
,,,,,R_4Qmvgp1ddD3Qpqs,001,2025-07-29_11h24.10.927,continuous_performance_test,2024.2.4,MacIntel,125,85ef14de-f67e-40ad-a3c6-7ac543db7079,5,193.188,195.1329,space,1,0,25,25,1,1,B,space,0.3135,,,,,,,,,,,
,,,,,R_4Qmvgp1ddD3Qpqs,001,2025-07-29_11h24.10.927,continuous_performance_test,2024.2.4,MacIntel,125,85ef14de-f67e-40ad-a3c6-7ac543db7079,5,195.1352,196.7823,space,1,0,26,26,12,1,M,space,0.3081,,,,,,,,,,,
,,,,,R_4Qmvgp1ddD3Qpqs,001,2025-07-29_11h24.10.927,continuous_performance_test,2024.2.4,MacIntel,125,85ef14de-f67e-40ad-a3c6-7ac543db7079,5,196.7833,198.4317,space,1,0,27,27,17,1,R,space,0.338,,,,,,,,,,,
,,,,,R_4Qmvgp1ddD3Qpqs,001,2025-07-29_11h24.10.927,continuous_performance_test,2024.2.4,MacIntel,125,85ef14de-f67e-40ad-a3c6-7ac543db7079,5,198.4327,200.2827,,1,0,28,28,26,1,X,,,,,,,,,,,,,
,,,,,R_4Qmvgp1ddD3Qpqs,001,2025-07-29_11h24.10.927,continuous_performance_test,2024.2.4,MacIntel,125,85ef14de-f67e-40ad-a3c6-7ac543db7079,5,200.2847,201.9297,space,1,0,29,29,14,1,O,space,0.4378,,,,,,,,,,,
,,,,,R_4Qmvgp1ddD3Qpqs,001,2025-07-29_11h24.10.927,continuous_performance_test,2024.2.4,MacIntel,125,85ef14de-f67e-40ad-a3c6-7ac543db7079,5,215.7821,217.4837,space,1,0,0,0,11,1,L,space,0.8379,,201.9304,215.7789,space,13.8401,,,,,,
,,,,,R_4Qmvgp1ddD3Qpqs,001,2025-07-29_11h24.10.927,continuous_performance_test,2024.2.4,MacIntel,125,85ef14de-f67e-40ad-a3c6-7ac543db7079,5,217.4861,219.3859,space,0,0,1,1,29,1,X,,0.2703,,,,,,,,,,,
,,,,,R_4Qmvgp1ddD3Qpqs,001,2025-07-29_11h24.10.927,continuous_performance_test,2024.2.4,MacIntel,125,85ef14de-f67e-40ad-a3c6-7ac543db7079,5,219.3871,221.1829,space,1,0,2,2,8,1,I,space,0.351,,,,,,,,,,,
,,,,,R_4Qmvgp1ddD3Qpqs,001,2025-07-29_11h24.10.927,continuous_performance_test,2024.2.4,MacIntel,125,85ef14de-f67e-40ad-a3c6-7ac543db7079,5,221.1849,222.8825,space,1,0,3,3,18,1,S,space,0.3245,,,,,,,,,,,
,,,,,R_4Qmvgp1ddD3Qpqs,001,2025-07-29_11h24.10.927,continuous_performance_test,2024.2.4,MacIntel,125,85ef14de-f67e-40ad-a3c6-7ac543db7079,5,222.8835,224.8323,space,1,0,4,4,12,1,M,space,0.3779,,,,,,,,,,,
,,,,,R_4Qmvgp1ddD3Qpqs,001,2025-07-29_11h24.10.927,continuous_performance_test,2024.2.4,MacIntel,125,85ef14de-f67e-40ad-a3c6-7ac543db7079,5,224.8345,226.6287,space,1,0,5,5,22,1,W,space,0.3793,,,,,,,,,,,
,,,,,R_4Qmvgp1ddD3Qpqs,001,2025-07-29_11h24.10.927,continuous_performance_test,2024.2.4,MacIntel,125,85ef14de-f67e-40ad-a3c6-7ac543db7079,5,226.6307,228.5795,space,1,0,6,6,7,1,H,space,0.3492,,,,,,,,,,,
,,,,,R_4Qmvgp1ddD3Qpqs,001,2025-07-29_11h24.10.927,continuous_performance_test,2024.2.4,MacIntel,125,85ef14de-f67e-40ad-a3c6-7ac543db7079,5,228.5815,230.1779,space,1,0,7,7,13,1,N,space,0.3257,,,,,,,,,,,
,,,,,R_4Qmvgp1ddD3Qpqs,001,2025-07-29_11h24.10.927,continuous_performance_test,2024.2.4,MacIntel,125,85ef14de-f67e-40ad-a3c6-7ac543db7079,5,230.1785,231.828,space,1,0,8,8,16,1,Q,space,0.3449,,,,,,,,,,,
,,,,,R_4Qmvgp1ddD3Qpqs,001,2025-07-29_11h24.10.927,continuous_performance_test,2024.2.4,MacIntel,125,85ef14de-f67e-40ad-a3c6-7ac543db7079,5,231.8289,233.8237,space,1,0,9,9,21,1,V,space,0.3331,,,,,,,,,,,
,,,,,R_4Qmvgp1ddD3Qpqs,001,2025-07-29_11h24.10.927,continuous_performance_test,2024.2.4,MacIntel,125,85ef14de-f67e-40ad-a3c6-7ac543db7079,5,233.8254,235.4243,space,1,0,10,10,20,1,U,space,0.3773,,,,,,,,,,,
,,,,,R_4Qmvgp1ddD3Qpqs,001,2025-07-29_11h24.10.927,continuous_performance_test,2024.2.4,MacIntel,125,85ef14de-f67e-40ad-a3c6-7ac543db7079,5,235.4262,237.3712,space,1,0,11,11,17,1,R,space,0.3006,,,,,,,,,,,
,,,,,R_4Qmvgp1ddD3Qpqs,001,2025-07-29_11h24.10.927,continuous_performance_test,2024.2.4,MacIntel,125,85ef14de-f67e-40ad-a3c6-7ac543db7079,5,237.3739,239.1674,,1,0,12,12,28,1,X,,,,,,,,,,,,,
,,,,,R_4Qmvgp1ddD3Qpqs,001,2025-07-29_11h24.10.927,continuous_performance_test,2024.2.4,MacIntel,125,85ef14de-f67e-40ad-a3c6-7ac543db7079,5,239.1682,241.1136,,1,0,13,13,26,1,X,,,,,,,,,,,,,
,,,,,R_4Qmvgp1ddD3Qpqs,001,2025-07-29_11h24.10.927,continuous_performance_test,2024.2.4,MacIntel,125,85ef14de-f67e-40ad-a3c6-7ac543db7079,5,241.1146,242.664,space,1,0,14,14,10,1,K,space,0.3045,,,,,,,,,,,
,,,,,R_4Qmvgp1ddD3Qpqs,001,2025-07-29_11h24.10.927,continuous_performance_test,2024.2.4,MacIntel,125,85ef14de-f67e-40ad-a3c6-7ac543db7079,5,242.6663,244.6161,space,1,0,15,15,6,1,G,space,0.2688,,,,,,,,,,,
,,,,,R_4Qmvgp1ddD3Qpqs,001,2025-07-29_11h24.10.927,continuous_performance_test,2024.2.4,MacIntel,125,85ef14de-f67e-40ad-a3c6-7ac543db7079,5,244.6179,246.412,space,1,0,16,16,0,1,A,space,0.3321,,,,,,,,,,,
,,,,,R_4Qmvgp1ddD3Qpqs,001,2025-07-29_11h24.10.927,continuous_performance_test,2024.2.4,MacIntel,125,85ef14de-f67e-40ad-a3c6-7ac543db7079,5,246.4139,248.012,,1,0,17,17,25,1,X,,,,,,,,,,,,,
,,,,,R_4Qmvgp1ddD3Qpqs,001,2025-07-29_11h24.10.927,continuous_performance_test,2024.2.4,MacIntel,125,85ef14de-f67e-40ad-a3c6-7ac543db7079,5,248.0138,249.6128,space,1,0,18,18,23,1,Y,space,0.3862,,,,,,,,,,,
,,,,,R_4Qmvgp1ddD3Qpqs,001,2025-07-29_11h24.10.927,continuous_performance_test,2024.2.4,MacIntel,125,85ef14de-f67e-40ad-a3c6-7ac543db7079,5,249.6149,251.2615,space,1,0,19,19,2,1,C,space,0.2796,,,,,,,,,,,
,,,,,R_4Qmvgp1ddD3Qpqs,001,2025-07-29_11h24.10.927,continuous_performance_test,2024.2.4,MacIntel,125,85ef14de-f67e-40ad-a3c6-7ac543db7079,5,251.2625,253.1607,,1,0,20,20,27,1,X,,,,,,,,,,,,,
,,,,,R_4Qmvgp1ddD3Qpqs,001,2025-07-29_11h24.10.927,continuous_performance_test,2024.2.4,MacIntel,125,85ef14de-f67e-40ad-a3c6-7ac543db7079,5,253.1627,254.8062,space,1,0,21,21,4,1,E,space,0.3494,,,,,,,,,,,
,,,,,R_4Qmvgp1ddD3Qpqs,001,2025-07-29_11h24.10.927,continuous_performance_test,2024.2.4,MacIntel,125,85ef14de-f67e-40ad-a3c6-7ac543db7079,5,254.8081,256.8044,space,1,0,22,22,14,1,O,space,0.2672,,,,,,,,,,,
,,,,,R_4Qmvgp1ddD3Qpqs,001,2025-07-29_11h24.10.927,continuous_performance_test,2024.2.4,MacIntel,125,85ef14de-f67e-40ad-a3c6-7ac543db7079,5,256.8056,258.6088,space,1,0,23,23,3,1,D,space,0.3515,,,,,,,,,,,
,,,,,R_4Qmvgp1ddD3Qpqs,001,2025-07-29_11h24.10.927,continuous_performance_test,2024.2.4,MacIntel,125,85ef14de-f67e-40ad-a3c6-7ac543db7079,5,258.6107,260.1628,space,1,0,24,24,24,1,Z,space,0.2962,,,,,,,,,,,
,,,,,R_4Qmvgp1ddD3Qpqs,001,2025-07-29_11h24.10.927,continuous_performance_test,2024.2.4,MacIntel,125,85ef14de-f67e-40ad-a3c6-7ac543db7079,5,260.1645,261.966,space,1,0,25,25,9,1,J,space,0.3942,,,,,,,,,,,
,,,,,R_4Qmvgp1ddD3Qpqs,001,2025-07-29_11h24.10.927,continuous_performance_test,2024.2.4,MacIntel,125,85ef14de-f67e-40ad-a3c6-7ac543db7079,5,261.9683,263.7205,space,1,0,26,26,15,1,P,space,0.4106,,,,,,,,,,,
,,,,,R_4Qmvgp1ddD3Qpqs,001,2025-07-29_11h24.10.927,continuous_performance_test,2024.2.4,MacIntel,125,85ef14de-f67e-40ad-a3c6-7ac543db7079,5,263.7214,265.6655,space,1,0,27,27,19,1,T,space,0.3209,,,,,,,,,,,
,,,,,R_4Qmvgp1ddD3Qpqs,001,2025-07-29_11h24.10.927,continuous_performance_test,2024.2.4,MacIntel,125,85ef14de-f67e-40ad-a3c6-7ac543db7079,5,265.6665,267.3653,space,1,0,28,28,1,1,B,space,0.3152,,,,,,,,,,,
,,,,,R_4Qmvgp1ddD3Qpqs,001,2025-07-29_11h24.10.927,continuous_performance_test,2024.2.4,MacIntel,125,85ef14de-f67e-40ad-a3c6-7ac543db7079,5,267.3663,269.2116,space,1,0,29,29,5,1,F,space,0.3374,,,,,,,,,,,
,,,,,R_4Qmvgp1ddD3Qpqs,001,2025-07-29_11h24.10.927,continuous_performance_test,2024.2.4,MacIntel,125,85ef14de-f67e-40ad-a3c6-7ac543db7079,5,282.6792,284.4229,space,1,0,0,0,4,1,E,space,0.3532,,269.2125,282.674,space,13.446,,,,,,
,,,,,R_4Qmvgp1ddD3Qpqs,001,2025-07-29_11h24.10.927,continuous_performance_test,2024.2.4,MacIntel,125,85ef14de-f67e-40ad-a3c6-7ac543db7079,5,284.4242,286.217,space,1,0,1,1,8,1,I,space,0.3779,,,,,,,,,,,
,,,,,R_4Qmvgp1ddD3Qpqs,001,2025-07-29_11h24.10.927,continuous_performance_test,2024.2.4,MacIntel,125,85ef14de-f67e-40ad-a3c6-7ac543db7079,5,286.2181,288.2154,space,1,0,2,2,15,1,P,space,0.3304,,,,,,,,,,,
,,,,,R_4Qmvgp1ddD3Qpqs,001,2025-07-29_11h24.10.927,continuous_performance_test,2024.2.4,MacIntel,125,85ef14de-f67e-40ad-a3c6-7ac543db7079,5,288.2162,289.9121,space,1,0,3,3,18,1,S,space,0.3375,,,,,,,,,,,
,,,,,R_4Qmvgp1ddD3Qpqs,001,2025-07-29_11h24.10.927,continuous_performance_test,2024.2.4,MacIntel,125,85ef14de-f67e-40ad-a3c6-7ac543db7079,5,289.913,291.5571,space,1,0,4,4,2,1,C,space,0.3073,,,,,,,,,,,
,,,,,R_4Qmvgp1ddD3Qpqs,001,2025-07-29_11h24.10.927,continuous_performance_test,2024.2.4,MacIntel,125,85ef14de-f67e-40ad-a3c6-7ac543db7079,5,291.558,293.3544,space,0,0,5,5,28,1,X,,0.2774,,,,,,,,,,,
,,,,,R_4Qmvgp1ddD3Qpqs,001,2025-07-29_11h24.10.927,continuous_performance_test,2024.2.4,MacIntel,125,85ef14de-f67e-40ad-a3c6-7ac543db7079,5,293.3555,295.0526,space,1,0,6,6,0,1,A,space,0.3254,,,,,,,,,,,
,,,,,R_4Qmvgp1ddD3Qpqs,001,2025-07-29_11h24.10.927,continuous_performance_test,2024.2.4,MacIntel,125,85ef14de-f67e-40ad-a3c6-7ac543db7079,5,295.055,296.7999,space,1,0,7,7,1,1,B,space,0.3336,,,,,,,,,,,
,,,,,R_4Qmvgp1ddD3Qpqs,001,2025-07-29_11h24.10.927,continuous_performance_test,2024.2.4,MacIntel,125,85ef14de-f67e-40ad-a3c6-7ac543db7079,5,296.8007,298.4956,,1,0,8,8,25,1,X,,,,,,,,,,,,,
,,,,,R_4Qmvgp1ddD3Qpqs,001,2025-07-29_11h24.10.927,continuous_performance_test,2024.2.4,MacIntel,125,85ef14de-f67e-40ad-a3c6-7ac543db7079,5,298.4966,300.0405,space,1,0,9,9,5,1,F,space,0.3924,,,,,,,,,,,
,,,,,R_4Qmvgp1ddD3Qpqs,001,2025-07-29_11h24.10.927,continuous_performance_test,2024.2.4,MacIntel,125,85ef14de-f67e-40ad-a3c6-7ac543db7079,5,300.0415,301.8872,space,1,0,10,10,7,1,H,space,0.3894,,,,,,,,,,,
,,,,,R_4Qmvgp1ddD3Qpqs,001,2025-07-29_11h24.10.927,continuous_performance_test,2024.2.4,MacIntel,125,85ef14de-f67e-40ad-a3c6-7ac543db7079,5,301.8881,303.4828,space,1,0,11,11,14,1,O,space,0.3665,,,,,,,,,,,
,,,,,R_4Qmvgp1ddD3Qpqs,001,2025-07-29_11h24.10.927,continuous_performance_test,2024.2.4,MacIntel,125,85ef14de-f67e-40ad-a3c6-7ac543db7079,5,303.4838,305.0782,space,1,0,12,12,10,1,K,space,0.3739,,,,,,,,,,,
,,,,,R_4Qmvgp1ddD3Qpqs,001,2025-07-29_11h24.10.927,continuous_performance_test,2024.2.4,MacIntel,125,85ef14de-f67e-40ad-a3c6-7ac543db7079,5,305.0801,306.7747,space,1,0,13,13,11,1,L,space,0.36,,,,,,,,,,,
,,,,,R_4Qmvgp1ddD3Qpqs,001,2025-07-29_11h24.10.927,continuous_performance_test,2024.2.4,MacIntel,125,85ef14de-f67e-40ad-a3c6-7ac543db7079,5,306.7766,308.3781,space,1,0,14,14,22,1,W,space,0.4429,,,,,,,,,,,
,,,,,R_4Qmvgp1ddD3Qpqs,001,2025-07-29_11h24.10.927,continuous_performance_test,2024.2.4,MacIntel,125,85ef14de-f67e-40ad-a3c6-7ac543db7079,5,308.3801,310.073,space,1,0,15,15,6,1,G,space,0.3667,,,,,,,,,,,
,,,,,R_4Qmvgp1ddD3Qpqs,001,2025-07-29_11h24.10.927,continuous_performance_test,2024.2.4,MacIntel,125,85ef14de-f67e-40ad-a3c6-7ac543db7079,5,310.0747,311.7236,,1,0,16,16,29,1,X,,,,,,,,,,,,,
,,,,,R_4Qmvgp1ddD3Qpqs,001,2025-07-29_11h24.10.927,continuous_performance_test,2024.2.4,MacIntel,125,85ef14de-f67e-40ad-a3c6-7ac543db7079,5,311.7244,313.2749,,1,0,17,17,27,1,X,,,,,,,,,,,,,
,,,,,R_4Qmvgp1ddD3Qpqs,001,2025-07-29_11h24.10.927,continuous_performance_test,2024.2.4,MacIntel,125,85ef14de-f67e-40ad-a3c6-7ac543db7079,5,313.2775,315.1703,space,1,0,18,18,23,1,Y,space,0.4233,,,,,,,,,,,
,,,,,R_4Qmvgp1ddD3Qpqs,001,2025-07-29_11h24.10.927,continuous_performance_test,2024.2.4,MacIntel,125,85ef14de-f67e-40ad-a3c6-7ac543db7079,5,315.1712,317.07,space,1,0,19,19,24,1,Z,space,0.2599,,,,,,,,,,,
,,,,,R_4Qmvgp1ddD3Qpqs,001,2025-07-29_11h24.10.927,continuous_performance_test,2024.2.4,MacIntel,125,85ef14de-f67e-40ad-a3c6-7ac543db7079,5,317.0709,318.966,space,1,0,20,20,21,1,V,space,0.3478,,,,,,,,,,,
,,,,,R_4Qmvgp1ddD3Qpqs,001,2025-07-29_11h24.10.927,continuous_performance_test,2024.2.4,MacIntel,125,85ef14de-f67e-40ad-a3c6-7ac543db7079,5,318.967,320.5106,space,1,0,21,21,16,1,Q,space,0.4336,,,,,,,,,,,
,,,,,R_4Qmvgp1ddD3Qpqs,001,2025-07-29_11h24.10.927,continuous_performance_test,2024.2.4,MacIntel,125,85ef14de-f67e-40ad-a3c6-7ac543db7079,5,320.513,322.3055,space,1,0,22,22,17,1,R,space,0.2453,,,,,,,,,,,
,,,,,R_4Qmvgp1ddD3Qpqs,001,2025-07-29_11h24.10.927,continuous_performance_test,2024.2.4,MacIntel,125,85ef14de-f67e-40ad-a3c6-7ac543db7079,5,322.3067,324.3027,space,1,0,23,23,12,1,M,space,0.3671,,,,,,,,,,,
,,,,,R_4Qmvgp1ddD3Qpqs,001,2025-07-29_11h24.10.927,continuous_performance_test,2024.2.4,MacIntel,125,85ef14de-f67e-40ad-a3c6-7ac543db7079,5,324.3036,325.9532,space,1,0,24,24,20,1,U,space,0.3961,,,,,,,,,,,
,,,,,R_4Qmvgp1ddD3Qpqs,001,2025-07-29_11h24.10.927,continuous_performance_test,2024.2.4,MacIntel,125,85ef14de-f67e-40ad-a3c6-7ac543db7079,5,325.9551,327.5033,space,1,0,25,25,9,1,J,space,0.3383,,,,,,,,,,,
,,,,,R_4Qmvgp1ddD3Qpqs,001,2025-07-29_11h24.10.927,continuous_performance_test,2024.2.4,MacIntel,125,85ef14de-f67e-40ad-a3c6-7ac543db7079,5,327.5052,329.1528,space,1,0,26,26,19,1,T,space,0.3066,,,,,,,,,,,
,,,,,R_4Qmvgp1ddD3Qpqs,001,2025-07-29_11h24.10.927,continuous_performance_test,2024.2.4,MacIntel,125,85ef14de-f67e-40ad-a3c6-7ac543db7079,5,329.1532,330.8537,space,1,0,27,27,3,1,D,space,0.3223,,,,,,,,,,,
,,,,,R_4Qmvgp1ddD3Qpqs,001,2025-07-29_11h24.10.927,continuous_performance_test,2024.2.4,MacIntel,125,85ef14de-f67e-40ad-a3c6-7ac543db7079,5,330.8555,332.4515,space,1,0,28,28,13,1,N,space,0.3638,,,,,,,,,,,
,,,,,R_4Qmvgp1ddD3Qpqs,001,2025-07-29_11h24.10.927,continuous_performance_test,2024.2.4,MacIntel,125,85ef14de-f67e-40ad-a3c6-7ac543db7079,5,332.454,334.0005,,1,0,29,29,26,1,X,,,,,,,,,,,,,
,,,,,R_4Qmvgp1ddD3Qpqs,001,2025-07-29_11h24.10.927,continuous_performance_test,2024.2.4,MacIntel,125,85ef14de-f67e-40ad-a3c6-7ac543db7079,5,343.8515,345.4989,space,1,0,0,0,17,1,R,space,0.4915,,334.0028,343.8478,space,9.8328,,,,,,
,,,,,R_4Qmvgp1ddD3Qpqs,001,2025-07-29_11h24.10.927,continuous_performance_test,2024.2.4,MacIntel,125,85ef14de-f67e-40ad-a3c6-7ac543db7079,5,345.5017,347.4449,space,1,0,1,1,4,1,E,space,0.3452,,,,,,,,,,,
,,,,,R_4Qmvgp1ddD3Qpqs,001,2025-07-29_11h24.10.927,continuous_performance_test,2024.2.4,MacIntel,125,85ef14de-f67e-40ad-a3c6-7ac543db7079,5,347.4474,349.1454,space,1,0,2,2,14,1,O,space,0.3743,,,,,,,,,,,
,,,,,R_4Qmvgp1ddD3Qpqs,001,2025-07-29_11h24.10.927,continuous_performance_test,2024.2.4,MacIntel,125,85ef14de-f67e-40ad-a3c6-7ac543db7079,5,349.1472,351.0913,space,1,0,3,3,6,1,G,space,0.3215,,,,,,,,,,,
,,,,,R_4Qmvgp1ddD3Qpqs,001,2025-07-29_11h24.10.927,continuous_performance_test,2024.2.4,MacIntel,125,85ef14de-f67e-40ad-a3c6-7ac543db7079,5,351.0923,352.737,space,1,0,4,4,23,1,Y,space,0.479,,,,,,,,,,,
,,,,,R_4Qmvgp1ddD3Qpqs,001,2025-07-29_11h24.10.927,continuous_performance_test,2024.2.4,MacIntel,125,85ef14de-f67e-40ad-a3c6-7ac543db7079,5,352.7391,354.7404,space,1,0,5,5,15,1,P,space,0.2616,,,,,,,,,,,
,,,,,R_4Qmvgp1ddD3Qpqs,001,2025-07-29_11h24.10.927,continuous_performance_test,2024.2.4,MacIntel,125,85ef14de-f67e-40ad-a3c6-7ac543db7079,5,354.7424,356.6361,space,1,0,6,6,21,1,V,space,0.3419,,,,,,,,,,,
,,,,,R_4Qmvgp1ddD3Qpqs,001,2025-07-29_11h24.10.927,continuous_performance_test,2024.2.4,MacIntel,125,85ef14de-f67e-40ad-a3c6-7ac543db7079,5,356.6373,358.5364,space,1,0,7,7,11,1,L,space,0.2955,,,,,,,,,,,
,,,,,R_4Qmvgp1ddD3Qpqs,001,2025-07-29_11h24.10.927,continuous_performance_test,2024.2.4,MacIntel,125,85ef14de-f67e-40ad-a3c6-7ac543db7079,5,358.5385,360.1344,space,1,0,8,8,3,1,D,space,0.3119,,,,,,,,,,,
,,,,,R_4Qmvgp1ddD3Qpqs,001,2025-07-29_11h24.10.927,continuous_performance_test,2024.2.4,MacIntel,125,85ef14de-f67e-40ad-a3c6-7ac543db7079,5,360.1351,362.136,,1,0,9,9,29,1,X,,,,,,,,,,,,,
,,,,,R_4Qmvgp1ddD3Qpqs,001,2025-07-29_11h24.10.927,continuous_performance_test,2024.2.4,MacIntel,125,85ef14de-f67e-40ad-a3c6-7ac543db7079,5,362.1368,364.0801,space,1,0,10,10,9,1,J,space,0.3594,,,,,,,,,,,
,,,,,R_4Qmvgp1ddD3Qpqs,001,2025-07-29_11h24.10.927,continuous_performance_test,2024.2.4,MacIntel,125,85ef14de-f67e-40ad-a3c6-7ac543db7079,5,364.0811,365.6792,space,1,0,11,11,20,1,U,space,0.3283,,,,,,,,,,,
,,,,,R_4Qmvgp1ddD3Qpqs,001,2025-07-29_11h24.10.927,continuous_performance_test,2024.2.4,MacIntel,125,85ef14de-f67e-40ad-a3c6-7ac543db7079,5,365.68,367.2774,space,1,0,12,12,2,1,C,space,0.3205,,,,,,,,,,,
,,,,,R_4Qmvgp1ddD3Qpqs,001,2025-07-29_11h24.10.927,continuous_performance_test,2024.2.4,MacIntel,125,85ef14de-f67e-40ad-a3c6-7ac543db7079,5,367.2784,369.1247,space,1,0,13,13,10,1,K,space,0.3422,,,,,,,,,,,
,,,,,R_4Qmvgp1ddD3Qpqs,001,2025-07-29_11h24.10.927,continuous_performance_test,2024.2.4,MacIntel,125,85ef14de-f67e-40ad-a3c6-7ac543db7079,5,369.1267,370.8694,space,1,0,14,14,22,1,W,space,0.3201,,,,,,,,,,,
,,,,,R_4Qmvgp1ddD3Qpqs,001,2025-07-29_11h24.10.927,continuous_performance_test,2024.2.4,MacIntel,125,85ef14de-f67e-40ad-a3c6-7ac543db7079,5,370.8704,372.765,space,1,0,15,15,18,1,S,space,0.3864,,,,,,,,,,,
,,,,,R_4Qmvgp1ddD3Qpqs,001,2025-07-29_11h24.10.927,continuous_performance_test,2024.2.4,MacIntel,125,85ef14de-f67e-40ad-a3c6-7ac543db7079,5,372.766,374.465,space,1,0,16,16,19,1,T,space,0.3411,,,,,,,,,,,
,,,,,R_4Qmvgp1ddD3Qpqs,001,2025-07-29_11h24.10.927,continuous_performance_test,2024.2.4,MacIntel,125,85ef14de-f67e-40ad-a3c6-7ac543db7079,5,374.4658,376.4652,space,1,0,17,17,1,1,B,space,0.2999,,,,,,,,,,,
,,,,,R_4Qmvgp1ddD3Qpqs,001,2025-07-29_11h24.10.927,continuous_performance_test,2024.2.4,MacIntel,125,85ef14de-f67e-40ad-a3c6-7ac543db7079,5,376.466,378.462,space,0,0,18,18,25,1,X,,0.2683,,,,,,,,,,,
,,,,,R_4Qmvgp1ddD3Qpqs,001,2025-07-29_11h24.10.927,continuous_performance_test,2024.2.4,MacIntel,125,85ef14de-f67e-40ad-a3c6-7ac543db7079,5,378.463,380.0613,space,1,0,19,19,8,1,I,space,0.3377,,,,,,,,,,,
,,,,,R_4Qmvgp1ddD3Qpqs,001,2025-07-29_11h24.10.927,continuous_performance_test,2024.2.4,MacIntel,125,85ef14de-f67e-40ad-a3c6-7ac543db7079,5,380.0631,381.7117,,1,0,20,20,26,1,X,,,,,,,,,,,,,
,,,,,R_4Qmvgp1ddD3Qpqs,001,2025-07-29_11h24.10.927,continuous_performance_test,2024.2.4,MacIntel,125,85ef14de-f67e-40ad-a3c6-7ac543db7079,5,381.7136,383.2618,space,1,0,21,21,13,1,N,space,0.3626,,,,,,,,,,,
,,,,,R_4Qmvgp1ddD3Qpqs,001,2025-07-29_11h24.10.927,continuous_performance_test,2024.2.4,MacIntel,125,85ef14de-f67e-40ad-a3c6-7ac543db7079,5,383.264,385.1624,space,1,0,22,22,16,1,Q,space,0.3871,,,,,,,,,,,
,,,,,R_4Qmvgp1ddD3Qpqs,001,2025-07-29_11h24.10.927,continuous_performance_test,2024.2.4,MacIntel,125,85ef14de-f67e-40ad-a3c6-7ac543db7079,5,385.1644,387.1127,space,1,0,23,23,5,1,F,space,0.3395,,,,,,,,,,,
,,,,,R_4Qmvgp1ddD3Qpqs,001,2025-07-29_11h24.10.927,continuous_performance_test,2024.2.4,MacIntel,125,85ef14de-f67e-40ad-a3c6-7ac543db7079,5,387.1136,388.7573,space,1,0,24,24,12,1,M,space,0.393,,,,,,,,,,,
,,,,,R_4Qmvgp1ddD3Qpqs,001,2025-07-29_11h24.10.927,continuous_performance_test,2024.2.4,MacIntel,125,85ef14de-f67e-40ad-a3c6-7ac543db7079,5,388.7594,390.557,space,0,0,25,25,27,1,X,,0.2908,,,,,,,,,,,
,,,,,R_4Qmvgp1ddD3Qpqs,001,2025-07-29_11h24.10.927,continuous_performance_test,2024.2.4,MacIntel,125,85ef14de-f67e-40ad-a3c6-7ac543db7079,5,390.5581,392.1064,space,1,0,26,26,7,1,H,space,0.3995,,,,,,,,,,,
,,,,,R_4Qmvgp1ddD3Qpqs,001,2025-07-29_11h24.10.927,continuous_performance_test,2024.2.4,MacIntel,125,85ef14de-f67e-40ad-a3c6-7ac543db7079,5,392.1088,393.8539,space,1,0,27,27,24,1,Z,space,0.389,,,,,,,,,,,
,,,,,R_4Qmvgp1ddD3Qpqs,001,2025-07-29_11h24.10.927,continuous_performance_test,2024.2.4,MacIntel,125,85ef14de-f67e-40ad-a3c6-7ac543db7079,5,393.8561,395.5076,,1,0,28,28,28,1,X,,,,,,,,,,,,,
,,,,,R_4Qmvgp1ddD3Qpqs,001,2025-07-29_11h24.10.927,continuous_performance_test,2024.2.4,MacIntel,125,85ef14de-f67e-40ad-a3c6-7ac543db7079,5,395.5102,397.0597,space,1,0,29,29,0,1,A,space,0.4263,,,,,,,,,,,
,,,,,R_4Qmvgp1ddD3Qpqs,001,2025-07-29_11h24.10.927,continuous_performance_test,2024.2.4,MacIntel,125,85ef14de-f67e-40ad-a3c6-7ac543db7079,5,400.8623,402.4069,space,1,0,0,0,19,1,T,space,0.4403,,397.0604,400.8574,space,3.7865,,,,,,
,,,,,R_4Qmvgp1ddD3Qpqs,001,2025-07-29_11h24.10.927,continuous_performance_test,2024.2.4,MacIntel,125,85ef14de-f67e-40ad-a3c6-7ac543db7079,5,402.4078,404.2029,space,1,0,1,1,8,1,I,space,0.3655,,,,,,,,,,,
,,,,,R_4Qmvgp1ddD3Qpqs,001,2025-07-29_11h24.10.927,continuous_performance_test,2024.2.4,MacIntel,125,85ef14de-f67e-40ad-a3c6-7ac543db7079,5,404.2055,406.1529,space,1,0,2,2,5,1,F,space,0.3709,,,,,,,,,,,
,,,,,R_4Qmvgp1ddD3Qpqs,001,2025-07-29_11h24.10.927,continuous_performance_test,2024.2.4,MacIntel,125,85ef14de-f67e-40ad-a3c6-7ac543db7079,5,406.154,408.054,space,1,0,3,3,14,1,O,space,0.3654,,,,,,,,,,,
,,,,,R_4Qmvgp1ddD3Qpqs,001,2025-07-29_11h24.10.927,continuous_performance_test,2024.2.4,MacIntel,125,85ef14de-f67e-40ad-a3c6-7ac543db7079,5,408.0562,410.0054,,1,0,4,4,29,1,X,,,,,,,,,,,,,
,,,,,R_4Qmvgp1ddD3Qpqs,001,2025-07-29_11h24.10.927,continuous_performance_test,2024.2.4,MacIntel,125,85ef14de-f67e-40ad-a3c6-7ac543db7079,5,410.0065,411.6025,,1,0,5,5,26,1,X,,,,,,,,,,,,,
,,,,,R_4Qmvgp1ddD3Qpqs,001,2025-07-29_11h24.10.927,continuous_performance_test,2024.2.4,MacIntel,125,85ef14de-f67e-40ad-a3c6-7ac543db7079,5,411.6031,413.6047,,1,0,6,6,28,1,X,,,,,,,,,,,,,
,,,,,R_4Qmvgp1ddD3Qpqs,001,2025-07-29_11h24.10.927,continuous_performance_test,2024.2.4,MacIntel,125,85ef14de-f67e-40ad-a3c6-7ac543db7079,5,413.6058,415.4072,space,1,0,7,7,21,1,V,space,0.4241,,,,,,,,,,,
,,,,,R_4Qmvgp1ddD3Qpqs,001,2025-07-29_11h24.10.927,continuous_performance_test,2024.2.4,MacIntel,125,85ef14de-f67e-40ad-a3c6-7ac543db7079,5,415.4095,417.2072,,1,0,8,8,25,1,X,,,,,,,,,,,,,
,,,,,R_4Qmvgp1ddD3Qpqs,001,2025-07-29_11h24.10.927,continuous_performance_test,2024.2.4,MacIntel,125,85ef14de-f67e-40ad-a3c6-7ac543db7079,5,417.2092,419.1577,space,1,0,9,9,0,1,A,space,0.3858,,,,,,,,,,,
,,,,,R_4Qmvgp1ddD3Qpqs,001,2025-07-29_11h24.10.927,continuous_performance_test,2024.2.4,MacIntel,125,85ef14de-f67e-40ad-a3c6-7ac543db7079,5,419.1597,420.7581,space,1,0,10,10,13,1,N,space,0.3787,,,,,,,,,,,
,,,,,R_4Qmvgp1ddD3Qpqs,001,2025-07-29_11h24.10.927,continuous_performance_test,2024.2.4,MacIntel,125,85ef14de-f67e-40ad-a3c6-7ac543db7079,5,420.7601,422.3579,space,1,0,11,11,1,1,B,space,0.3783,,,,,,,,,,,
,,,,,R_4Qmvgp1ddD3Qpqs,001,2025-07-29_11h24.10.927,continuous_performance_test,2024.2.4,MacIntel,125,85ef14de-f67e-40ad-a3c6-7ac543db7079,5,422.36,424.0535,space,1,0,12,12,2,1,C,space,0.3736,,,,,,,,,,,
,,,,,R_4Qmvgp1ddD3Qpqs,001,2025-07-29_11h24.10.927,continuous_performance_test,2024.2.4,MacIntel,125,85ef14de-f67e-40ad-a3c6-7ac543db7079,5,424.0553,425.5993,space,1,0,13,13,18,1,S,space,0.3374,,,,,,,,,,,
,,,,,R_4Qmvgp1ddD3Qpqs,001,2025-07-29_11h24.10.927,continuous_performance_test,2024.2.4,MacIntel,125,85ef14de-f67e-40ad-a3c6-7ac543db7079,5,425.6002,427.5495,space,1,0,14,14,16,1,Q,space,0.4489,,,,,,,,,,,
,,,,,R_4Qmvgp1ddD3Qpqs,001,2025-07-29_11h24.10.927,continuous_performance_test,2024.2.4,MacIntel,125,85ef14de-f67e-40ad-a3c6-7ac543db7079,5,427.5518,429.4954,space,1,0,15,15,24,1,Z,space,0.5627,,,,,,,,,,,
,,,,,R_4Qmvgp1ddD3Qpqs,001,2025-07-29_11h24.10.927,continuous_performance_test,2024.2.4,MacIntel,125,85ef14de-f67e-40ad-a3c6-7ac543db7079,5,429.4965,431.0405,space,1,0,16,16,17,1,R,space,0.3287,,,,,,,,,,,
,,,,,R_4Qmvgp1ddD3Qpqs,001,2025-07-29_11h24.10.927,continuous_performance_test,2024.2.4,MacIntel,125,85ef14de-f67e-40ad-a3c6-7ac543db7079,5,431.0413,432.9356,space,1,0,17,17,3,1,D,space,0.2859,,,,,,,,,,,
,,,,,R_4Qmvgp1ddD3Qpqs,001,2025-07-29_11h24.10.927,continuous_performance_test,2024.2.4,MacIntel,125,85ef14de-f67e-40ad-a3c6-7ac543db7079,5,432.9366,434.7821,space,1,0,18,18,7,1,H,space,0.4021,,,,,,,,,,,
,,,,,R_4Qmvgp1ddD3Qpqs,001,2025-07-29_11h24.10.927,continuous_performance_test,2024.2.4,MacIntel,125,85ef14de-f67e-40ad-a3c6-7ac543db7079,5,434.7842,436.7351,space,1,0,19,19,10,1,K,space,0.4056,,,,,,,,,,,
,,,,,R_4Qmvgp1ddD3Qpqs,001,2025-07-29_11h24.10.927,continuous_performance_test,2024.2.4,MacIntel,125,85ef14de-f67e-40ad-a3c6-7ac543db7079,5,436.7359,438.3303,space,1,0,20,20,15,1,P,space,0.3626,,,,,,,,,,,
,,,,,R_4Qmvgp1ddD3Qpqs,001,2025-07-29_11h24.10.927,continuous_performance_test,2024.2.4,MacIntel,125,85ef14de-f67e-40ad-a3c6-7ac543db7079,5,438.3327,440.2334,,1,0,21,21,27,1,X,,,,,,,,,,,,,
,,,,,R_4Qmvgp1ddD3Qpqs,001,2025-07-29_11h24.10.927,continuous_performance_test,2024.2.4,MacIntel,125,85ef14de-f67e-40ad-a3c6-7ac543db7079,5,440.2356,441.878,space,1,0,22,22,4,1,E,space,0.3104,,,,,,,,,,,
,,,,,R_4Qmvgp1ddD3Qpqs,001,2025-07-29_11h24.10.927,continuous_performance_test,2024.2.4,MacIntel,125,85ef14de-f67e-40ad-a3c6-7ac543db7079,5,441.8805,443.5743,space,1,0,23,23,12,1,M,space,0.3282,,,,,,,,,,,
,,,,,R_4Qmvgp1ddD3Qpqs,001,2025-07-29_11h24.10.927,continuous_performance_test,2024.2.4,MacIntel,125,85ef14de-f67e-40ad-a3c6-7ac543db7079,5,443.5767,445.5247,space,1,0,24,24,6,1,G,space,0.3377,,,,,,,,,,,
,,,,,R_4Qmvgp1ddD3Qpqs,001,2025-07-29_11h24.10.927,continuous_performance_test,2024.2.4,MacIntel,125,85ef14de-f67e-40ad-a3c6-7ac543db7079,5,445.5265,447.1199,space,1,0,25,25,11,1,L,space,0.336,,,,,,,,,,,
,,,,,R_4Qmvgp1ddD3Qpqs,001,2025-07-29_11h24.10.927,continuous_performance_test,2024.2.4,MacIntel,125,85ef14de-f67e-40ad-a3c6-7ac543db7079,5,447.1223,448.9613,space,1,0,26,26,23,1,Y,space,0.3358,,,,,,,,,,,
,,,,,R_4Qmvgp1ddD3Qpqs,001,2025-07-29_11h24.10.927,continuous_performance_test,2024.2.4,MacIntel,125,85ef14de-f67e-40ad-a3c6-7ac543db7079,5,448.9623,450.7602,space,1,0,27,27,20,1,U,space,0.4078,,,,,,,,,,,
,,,,,R_4Qmvgp1ddD3Qpqs,001,2025-07-29_11h24.10.927,continuous_performance_test,2024.2.4,MacIntel,125,85ef14de-f67e-40ad-a3c6-7ac543db7079,5,450.7622,452.4569,space,1,0,28,28,9,1,J,space,0.4,,,,,,,,,,,
,,,,,R_4Qmvgp1ddD3Qpqs,001,2025-07-29_11h24.10.927,continuous_performance_test,2024.2.4,MacIntel,125,85ef14de-f67e-40ad-a3c6-7ac543db7079,5,452.4595,454.01,space,1,0,29,29,22,1,W,space,0.3483,,,,,,,,,,,
,,,,,R_4Qmvgp1ddD3Qpqs,001,2025-07-29_11h24.10.927,continuous_performance_test,2024.2.4,MacIntel,125,85ef14de-f67e-40ad-a3c6-7ac543db7079,5,462.7628,464.6576,space,1,0,0,0,24,1,Z,space,0.6444,,454.0106,462.7563,space,8.7393,,,,,,
,,,,,R_4Qmvgp1ddD3Qpqs,001,2025-07-29_11h24.10.927,continuous_performance_test,2024.2.4,MacIntel,125,85ef14de-f67e-40ad-a3c6-7ac543db7079,5,464.6597,466.206,space,1,0,1,1,15,1,P,space,0.3268,,,,,,,,,,,
,,,,,R_4Qmvgp1ddD3Qpqs,001,2025-07-29_11h24.10.927,continuous_performance_test,2024.2.4,MacIntel,125,85ef14de-f67e-40ad-a3c6-7ac543db7079,5,466.2084,468.2031,space,1,0,2,2,19,1,T,space,0.2863,,,,,,,,,,,
,,,,,R_4Qmvgp1ddD3Qpqs,001,2025-07-29_11h24.10.927,continuous_performance_test,2024.2.4,MacIntel,125,85ef14de-f67e-40ad-a3c6-7ac543db7079,5,468.2052,470.0986,space,1,0,3,3,18,1,S,space,0.3124,,,,,,,,,,,
,,,,,R_4Qmvgp1ddD3Qpqs,001,2025-07-29_11h24.10.927,continuous_performance_test,2024.2.4,MacIntel,125,85ef14de-f67e-40ad-a3c6-7ac543db7079,5,470.1005,471.6485,,1,0,4,4,29,1,X,,,,,,,,,,,,,
,,,,,R_4Qmvgp1ddD3Qpqs,001,2025-07-29_11h24.10.927,continuous_performance_test,2024.2.4,MacIntel,125,85ef14de-f67e-40ad-a3c6-7ac543db7079,5,471.6507,473.5446,space,1,0,5,5,7,1,H,space,0.4547,,,,,,,,,,,
,,,,,R_4Qmvgp1ddD3Qpqs,001,2025-07-29_11h24.10.927,continuous_performance_test,2024.2.4,MacIntel,125,85ef14de-f67e-40ad-a3c6-7ac543db7079,5,473.5468,475.1442,space,1,0,6,6,13,1,N,space,0.333,,,,,,,,,,,
,,,,,R_4Qmvgp1ddD3Qpqs,001,2025-07-29_11h24.10.927,continuous_performance_test,2024.2.4,MacIntel,125,85ef14de-f67e-40ad-a3c6-7ac543db7079,5,475.1452,476.8411,space,1,0,7,7,20,1,U,space,0.3794,,,,,,,,,,,
,,,,,R_4Qmvgp1ddD3Qpqs,001,2025-07-29_11h24.10.927,continuous_performance_test,2024.2.4,MacIntel,125,85ef14de-f67e-40ad-a3c6-7ac543db7079,5,476.842,478.4386,space,1,0,8,8,9,1,J,space,0.3707,,,,,,,,,,,
,,,,,R_4Qmvgp1ddD3Qpqs,001,2025-07-29_11h24.10.927,continuous_performance_test,2024.2.4,MacIntel,125,85ef14de-f67e-40ad-a3c6-7ac543db7079,5,478.4398,480.3892,space,1,0,9,9,3,1,D,space,0.3946,,,,,,,,,,,
,,,,,R_4Qmvgp1ddD3Qpqs,001,2025-07-29_11h24.10.927,continuous_performance_test,2024.2.4,MacIntel,125,85ef14de-f67e-40ad-a3c6-7ac543db7079,5,480.3901,482.1358,space,1,0,10,10,2,1,C,space,0.3546,,,,,,,,,,,
,,,,,R_4Qmvgp1ddD3Qpqs,001,2025-07-29_11h24.10.927,continuous_performance_test,2024.2.4,MacIntel,125,85ef14de-f67e-40ad-a3c6-7ac543db7079,5,482.1366,484.1317,,1,0,11,11,27,1,X,,,,,,,,,,,,,
,,,,,R_4Qmvgp1ddD3Qpqs,001,2025-07-29_11h24.10.927,continuous_performance_test,2024.2.4,MacIntel,125,85ef14de-f67e-40ad-a3c6-7ac543db7079,5,484.1325,485.7273,space,1,0,12,12,5,1,F,space,0.3169,,,,,,,,,,,
,,,,,R_4Qmvgp1ddD3Qpqs,001,2025-07-29_11h24.10.927,continuous_performance_test,2024.2.4,MacIntel,125,85ef14de-f67e-40ad-a3c6-7ac543db7079,5,485.7285,487.6785,space,0,0,13,13,25,1,X,,0.3205,,,,,,,,,,,
,,,,,R_4Qmvgp1ddD3Qpqs,001,2025-07-29_11h24.10.927,continuous_performance_test,2024.2.4,MacIntel,125,85ef14de-f67e-40ad-a3c6-7ac543db7079,5,487.6794,489.3286,space,1,0,14,14,1,1,B,space,0.2721,,,,,,,,,,,
,,,,,R_4Qmvgp1ddD3Qpqs,001,2025-07-29_11h24.10.927,continuous_performance_test,2024.2.4,MacIntel,125,85ef14de-f67e-40ad-a3c6-7ac543db7079,5,489.3308,490.9774,space,1,0,15,15,11,1,L,space,0.3343,,,,,,,,,,,
,,,,,R_4Qmvgp1ddD3Qpqs,001,2025-07-29_11h24.10.927,continuous_performance_test,2024.2.4,MacIntel,125,85ef14de-f67e-40ad-a3c6-7ac543db7079,5,490.9797,492.9779,space,1,0,16,16,10,1,K,space,0.3817,,,,,,,,,,,
,,,,,R_4Qmvgp1ddD3Qpqs,001,2025-07-29_11h24.10.927,continuous_performance_test,2024.2.4,MacIntel,125,85ef14de-f67e-40ad-a3c6-7ac543db7079,5,492.9801,494.8777,,1,0,17,17,26,1,X,,,,,,,,,,,,,
,,,,,R_4Qmvgp1ddD3Qpqs,001,2025-07-29_11h24.10.927,continuous_performance_test,2024.2.4,MacIntel,125,85ef14de-f67e-40ad-a3c6-7ac543db7079,5,494.8794,496.6724,space,1,0,18,18,21,1,V,space,0.2926,,,,,,,,,,,
,,,,,R_4Qmvgp1ddD3Qpqs,001,2025-07-29_11h24.10.927,continuous_performance_test,2024.2.4,MacIntel,125,85ef14de-f67e-40ad-a3c6-7ac543db7079,5,496.674,498.4694,space,1,0,19,19,6,1,G,space,0.3511,,,,,,,,,,,
,,,,,R_4Qmvgp1ddD3Qpqs,001,2025-07-29_11h24.10.927,continuous_performance_test,2024.2.4,MacIntel,125,85ef14de-f67e-40ad-a3c6-7ac543db7079,5,498.4722,500.2649,space,1,0,20,20,23,1,Y,space,0.4879,,,,,,,,,,,
,,,,,R_4Qmvgp1ddD3Qpqs,001,2025-07-29_11h24.10.927,continuous_performance_test,2024.2.4,MacIntel,125,85ef14de-f67e-40ad-a3c6-7ac543db7079,5,500.266,502.011,space,1,0,21,21,12,1,M,space,0.3826,,,,,,,,,,,
,,,,,R_4Qmvgp1ddD3Qpqs,001,2025-07-29_11h24.10.927,continuous_performance_test,2024.2.4,MacIntel,125,85ef14de-f67e-40ad-a3c6-7ac543db7079,5,502.0136,504.0082,space,1,0,22,22,16,1,Q,space,0.3608,,,,,,,,,,,
,,,,,R_4Qmvgp1ddD3Qpqs,001,2025-07-29_11h24.10.927,continuous_performance_test,2024.2.4,MacIntel,125,85ef14de-f67e-40ad-a3c6-7ac543db7079,5,504.01,506.0038,space,1,0,23,23,14,1,O,space,0.3355,,,,,,,,,,,
,,,,,R_4Qmvgp1ddD3Qpqs,001,2025-07-29_11h24.10.927,continuous_performance_test,2024.2.4,MacIntel,125,85ef14de-f67e-40ad-a3c6-7ac543db7079,5,506.0059,507.7496,space,1,0,24,24,8,1,I,space,0.3409,,,,,,,,,,,
,,,,,R_4Qmvgp1ddD3Qpqs,001,2025-07-29_11h24.10.927,continuous_performance_test,2024.2.4,MacIntel,125,85ef14de-f67e-40ad-a3c6-7ac543db7079,5,507.7521,509.5983,,1,0,25,25,28,1,X,,,,,,,,,,,,,
,,,,,R_4Qmvgp1ddD3Qpqs,001,2025-07-29_11h24.10.927,continuous_performance_test,2024.2.4,MacIntel,125,85ef14de-f67e-40ad-a3c6-7ac543db7079,5,509.5994,511.1997,space,1,0,26,26,22,1,W,space,0.3248,,,,,,,,,,,
,,,,,R_4Qmvgp1ddD3Qpqs,001,2025-07-29_11h24.10.927,continuous_performance_test,2024.2.4,MacIntel,125,85ef14de-f67e-40ad-a3c6-7ac543db7079,5,511.202,512.9449,space,1,0,27,27,17,1,R,space,0.408,,,,,,,,,,,
,,,,,R_4Qmvgp1ddD3Qpqs,001,2025-07-29_11h24.10.927,continuous_performance_test,2024.2.4,MacIntel,125,85ef14de-f67e-40ad-a3c6-7ac543db7079,5,512.947,514.5399,space,1,0,28,28,0,1,A,space,0.2901,,,,,,,,,,,
,,,,,R_4Qmvgp1ddD3Qpqs,001,2025-07-29_11h24.10.927,continuous_performance_test,2024.2.4,MacIntel,125,85ef14de-f67e-40ad-a3c6-7ac543db7079,5,514.5422,516.0861,space,1,0,29,29,4,1,E,space,0.309,,,,,,,,,,,
,,,,,R_4Qmvgp1ddD3Qpqs,001,2025-07-29_11h24.10.927,continuous_performance_test,2024.2.4,MacIntel,125,85ef14de-f67e-40ad-a3c6-7ac543db7079,5,524.9656,526.5654,space,1,0,0,0,1,1,B,space,0.288,,516.0871,524.9611,space,8.8626,,,,,,
,,,,,R_4Qmvgp1ddD3Qpqs,001,2025-07-29_11h24.10.927,continuous_performance_test,2024.2.4,MacIntel,125,85ef14de-f67e-40ad-a3c6-7ac543db7079,5,526.5676,528.4113,,1,0,1,1,29,1,X,,,,,,,,,,,,,
,,,,,R_4Qmvgp1ddD3Qpqs,001,2025-07-29_11h24.10.927,continuous_performance_test,2024.2.4,MacIntel,125,85ef14de-f67e-40ad-a3c6-7ac543db7079,5,528.4121,530.4131,space,1,0,2,2,5,1,F,space,0.4158,,,,,,,,,,,
,,,,,R_4Qmvgp1ddD3Qpqs,001,2025-07-29_11h24.10.927,continuous_performance_test,2024.2.4,MacIntel,125,85ef14de-f67e-40ad-a3c6-7ac543db7079,5,530.4161,532.0117,space,1,0,3,3,17,1,R,space,0.341,,,,,,,,,,,
,,,,,R_4Qmvgp1ddD3Qpqs,001,2025-07-29_11h24.10.927,continuous_performance_test,2024.2.4,MacIntel,125,85ef14de-f67e-40ad-a3c6-7ac543db7079,5,532.014,534.0112,space,1,0,4,4,4,1,E,space,0.3716,,,,,,,,,,,
,,,,,R_4Qmvgp1ddD3Qpqs,001,2025-07-29_11h24.10.927,continuous_performance_test,2024.2.4,MacIntel,125,85ef14de-f67e-40ad-a3c6-7ac543db7079,5,534.0132,536.0067,space,1,0,5,5,2,1,C,space,0.3564,,,,,,,,,,,
,,,,,R_4Qmvgp1ddD3Qpqs,001,2025-07-29_11h24.10.927,continuous_performance_test,2024.2.4,MacIntel,125,85ef14de-f67e-40ad-a3c6-7ac543db7079,5,536.0088,537.6071,space,1,0,6,6,22,1,W,space,0.3535,,,,,,,,,,,
,,,,,R_4Qmvgp1ddD3Qpqs,001,2025-07-29_11h24.10.927,continuous_performance_test,2024.2.4,MacIntel,125,85ef14de-f67e-40ad-a3c6-7ac543db7079,5,537.6094,539.3046,space,1,0,7,7,18,1,S,space,0.3597,,,,,,,,,,,
,,,,,R_4Qmvgp1ddD3Qpqs,001,2025-07-29_11h24.10.927,continuous_performance_test,2024.2.4,MacIntel,125,85ef14de-f67e-40ad-a3c6-7ac543db7079,5,539.3065,540.9023,space,1,0,8,8,10,1,K,space,0.374,,,,,,,,,,,
,,,,,R_4Qmvgp1ddD3Qpqs,001,2025-07-29_11h24.10.927,continuous_performance_test,2024.2.4,MacIntel,125,85ef14de-f67e-40ad-a3c6-7ac543db7079,5,540.9031,542.8994,space,1,0,9,9,13,1,N,space,0.3486,,,,,,,,,,,
,,,,,R_4Qmvgp1ddD3Qpqs,001,2025-07-29_11h24.10.927,continuous_performance_test,2024.2.4,MacIntel,125,85ef14de-f67e-40ad-a3c6-7ac543db7079,5,542.9007,544.8524,space,1,0,10,10,16,1,Q,space,0.3434,,,,,,,,,,,
,,,,,R_4Qmvgp1ddD3Qpqs,001,2025-07-29_11h24.10.927,continuous_performance_test,2024.2.4,MacIntel,125,85ef14de-f67e-40ad-a3c6-7ac543db7079,5,544.8537,546.5983,space,1,0,11,11,7,1,H,space,0.3819,,,,,,,,,,,
,,,,,R_4Qmvgp1ddD3Qpqs,001,2025-07-29_11h24.10.927,continuous_performance_test,2024.2.4,MacIntel,125,85ef14de-f67e-40ad-a3c6-7ac543db7079,5,546.6005,548.5494,,1,0,12,12,26,1,X,,,,,,,,,,,,,
,,,,,R_4Qmvgp1ddD3Qpqs,001,2025-07-29_11h24.10.927,continuous_performance_test,2024.2.4,MacIntel,125,85ef14de-f67e-40ad-a3c6-7ac543db7079,5,548.551,550.1019,space,1,0,13,13,0,1,A,space,0.3327,,,,,,,,,,,
,,,,,R_4Qmvgp1ddD3Qpqs,001,2025-07-29_11h24.10.927,continuous_performance_test,2024.2.4,MacIntel,125,85ef14de-f67e-40ad-a3c6-7ac543db7079,5,550.1038,551.8996,space,1,0,14,14,19,1,T,space,0.3427,,,,,,,,,,,
,,,,,R_4Qmvgp1ddD3Qpqs,001,2025-07-29_11h24.10.927,continuous_performance_test,2024.2.4,MacIntel,125,85ef14de-f67e-40ad-a3c6-7ac543db7079,5,551.9016,553.8946,,1,0,15,15,27,1,X,,,,,,,,,,,,,
,,,,,R_4Qmvgp1ddD3Qpqs,001,2025-07-29_11h24.10.927,continuous_performance_test,2024.2.4,MacIntel,125,85ef14de-f67e-40ad-a3c6-7ac543db7079,5,553.8962,555.7453,space,1,0,16,16,23,1,Y,space,0.3972,,,,,,,,,,,
,,,,,R_4Qmvgp1ddD3Qpqs,001,2025-07-29_11h24.10.927,continuous_performance_test,2024.2.4,MacIntel,125,85ef14de-f67e-40ad-a3c6-7ac543db7079,5,555.7474,557.3898,space,1,0,17,17,11,1,L,space,0.3817,,,,,,,,,,,
,,,,,R_4Qmvgp1ddD3Qpqs,001,2025-07-29_11h24.10.927,continuous_performance_test,2024.2.4,MacIntel,125,85ef14de-f67e-40ad-a3c6-7ac543db7079,5,557.3908,559.0357,space,0,0,18,18,25,1,X,,0.2671,,,,,,,,,,,
,,,,,R_4Qmvgp1ddD3Qpqs,001,2025-07-29_11h24.10.927,continuous_performance_test,2024.2.4,MacIntel,125,85ef14de-f67e-40ad-a3c6-7ac543db7079,5,559.0366,560.6317,space,1,0,19,19,12,1,M,space,0.4276,,,,,,,,,,,
,,,,,R_4Qmvgp1ddD3Qpqs,001,2025-07-29_11h24.10.927,continuous_performance_test,2024.2.4,MacIntel,125,85ef14de-f67e-40ad-a3c6-7ac543db7079,5,560.6338,562.3326,space,1,0,20,20,8,1,I,space,0.3435,,,,,,,,,,,
,,,,,R_4Qmvgp1ddD3Qpqs,001,2025-07-29_11h24.10.927,continuous_performance_test,2024.2.4,MacIntel,125,85ef14de-f67e-40ad-a3c6-7ac543db7079,5,562.3339,564.2818,space,1,0,21,21,9,1,J,space,0.3281,,,,,,,,,,,
,,,,,R_4Qmvgp1ddD3Qpqs,001,2025-07-29_11h24.10.927,continuous_performance_test,2024.2.4,MacIntel,125,85ef14de-f67e-40ad-a3c6-7ac543db7079,5,564.2837,565.8275,space,1,0,22,22,21,1,V,space,0.3392,,,,,,,,,,,
,,,,,R_4Qmvgp1ddD3Qpqs,001,2025-07-29_11h24.10.927,continuous_performance_test,2024.2.4,MacIntel,125,85ef14de-f67e-40ad-a3c6-7ac543db7079,5,565.8295,567.4732,,1,0,23,23,28,1,X,,,,,,,,,,,,,
,,,,,R_4Qmvgp1ddD3Qpqs,001,2025-07-29_11h24.10.927,continuous_performance_test,2024.2.4,MacIntel,125,85ef14de-f67e-40ad-a3c6-7ac543db7079,5,567.4741,569.0256,space,1,0,24,24,24,1,Z,space,0.367,,,,,,,,,,,
,,,,,R_4Qmvgp1ddD3Qpqs,001,2025-07-29_11h24.10.927,continuous_performance_test,2024.2.4,MacIntel,125,85ef14de-f67e-40ad-a3c6-7ac543db7079,5,569.0261,570.7208,space,1,0,25,25,20,1,U,space,0.3459,,,,,,,,,,,
,,,,,R_4Qmvgp1ddD3Qpqs,001,2025-07-29_11h24.10.927,continuous_performance_test,2024.2.4,MacIntel,125,85ef14de-f67e-40ad-a3c6-7ac543db7079,5,570.7229,572.4231,space,1,0,26,26,15,1,P,space,0.3435,,,,,,,,,,,
,,,,,R_4Qmvgp1ddD3Qpqs,001,2025-07-29_11h24.10.927,continuous_performance_test,2024.2.4,MacIntel,125,85ef14de-f67e-40ad-a3c6-7ac543db7079,5,572.4241,573.9741,space,1,0,27,27,14,1,O,space,0.2795,,,,,,,,,,,
,,,,,R_4Qmvgp1ddD3Qpqs,001,2025-07-29_11h24.10.927,continuous_performance_test,2024.2.4,MacIntel,125,85ef14de-f67e-40ad-a3c6-7ac543db7079,5,573.975,575.7188,space,1,0,28,28,6,1,G,space,0.386,,,,,,,,,,,
,,,,,R_4Qmvgp1ddD3Qpqs,001,2025-07-29_11h24.10.927,continuous_performance_test,2024.2.4,MacIntel,125,85ef14de-f67e-40ad-a3c6-7ac543db7079,5,575.7196,577.365,space,1,0,29,29,3,1,D,space,0.3212,,,,,,,,,,,
,,,,,R_4Qmvgp1ddD3Qpqs,001,2025-07-29_11h24.10.927,continuous_performance_test,2024.2.4,MacIntel,125,85ef14de-f67e-40ad-a3c6-7ac543db7079,5,591.351,592.9475,space,1,0,0,0,7,1,H,space,0.3625,,577.3675,591.3468,space,13.9686,,,,,,
,,,,,R_4Qmvgp1ddD3Qpqs,001,2025-07-29_11h24.10.927,continuous_performance_test,2024.2.4,MacIntel,125,85ef14de-f67e-40ad-a3c6-7ac543db7079,5,592.9485,594.4913,space,1,0,1,1,11,1,L,space,0.3655,,,,,,,,,,,
,,,,,R_4Qmvgp1ddD3Qpqs,001,2025-07-29_11h24.10.927,continuous_performance_test,2024.2.4,MacIntel,125,85ef14de-f67e-40ad-a3c6-7ac543db7079,5,594.4922,596.2368,space,1,0,2,2,12,1,M,space,0.3387,,,,,,,,,,,
,,,,,R_4Qmvgp1ddD3Qpqs,001,2025-07-29_11h24.10.927,continuous_performance_test,2024.2.4,MacIntel,125,85ef14de-f67e-40ad-a3c6-7ac543db7079,5,596.2389,597.9316,space,1,0,3,3,1,1,B,space,0.3459,,,,,,,,,,,
,,,,,R_4Qmvgp1ddD3Qpqs,001,2025-07-29_11h24.10.927,continuous_performance_test,2024.2.4,MacIntel,125,85ef14de-f67e-40ad-a3c6-7ac543db7079,5,597.9324,599.8326,space,1,0,4,4,19,1,T,space,0.354,,,,,,,,,,,
,,,,,R_4Qmvgp1ddD3Qpqs,001,2025-07-29_11h24.10.927,continuous_performance_test,2024.2.4,MacIntel,125,85ef14de-f67e-40ad-a3c6-7ac543db7079,5,599.8346,601.6274,space,1,0,5,5,3,1,D,space,0.3453,,,,,,,,,,,
,,,,,R_4Qmvgp1ddD3Qpqs,001,2025-07-29_11h24.10.927,continuous_performance_test,2024.2.4,MacIntel,125,85ef14de-f67e-40ad-a3c6-7ac543db7079,5,601.6282,603.4777,,1,0,6,6,25,1,X,,,,,,,,,,,,,
,,,,,R_4Qmvgp1ddD3Qpqs,001,2025-07-29_11h24.10.927,continuous_performance_test,2024.2.4,MacIntel,125,85ef14de-f67e-40ad-a3c6-7ac543db7079,5,603.48,605.2786,space,1,0,7,7,8,1,I,space,0.3638,,,,,,,,,,,
,,,,,R_4Qmvgp1ddD3Qpqs,001,2025-07-29_11h24.10.927,continuous_performance_test,2024.2.4,MacIntel,125,85ef14de-f67e-40ad-a3c6-7ac543db7079,5,605.2795,606.8736,space,1,0,8,8,6,1,G,space,0.4558,,,,,,,,,,,
,,,,,R_4Qmvgp1ddD3Qpqs,001,2025-07-29_11h24.10.927,continuous_performance_test,2024.2.4,MacIntel,125,85ef14de-f67e-40ad-a3c6-7ac543db7079,5,606.8746,608.5219,space,1,0,9,9,4,1,E,space,0.4205,,,,,,,,,,,
,,,,,R_4Qmvgp1ddD3Qpqs,001,2025-07-29_11h24.10.927,continuous_performance_test,2024.2.4,MacIntel,125,85ef14de-f67e-40ad-a3c6-7ac543db7079,5,608.5229,610.1755,space,1,0,10,10,20,1,U,space,0.3325,,,,,,,,,,,
,,,,,R_4Qmvgp1ddD3Qpqs,001,2025-07-29_11h24.10.927,continuous_performance_test,2024.2.4,MacIntel,125,85ef14de-f67e-40ad-a3c6-7ac543db7079,5,610.1762,611.9689,space,1,0,11,11,21,1,V,space,0.3966,,,,,,,,,,,
,,,,,R_4Qmvgp1ddD3Qpqs,001,2025-07-29_11h24.10.927,continuous_performance_test,2024.2.4,MacIntel,125,85ef14de-f67e-40ad-a3c6-7ac543db7079,5,611.9698,613.8696,space,1,0,12,12,10,1,K,space,0.3788,,,,,,,,,,,
,,,,,R_4Qmvgp1ddD3Qpqs,001,2025-07-29_11h24.10.927,continuous_performance_test,2024.2.4,MacIntel,125,85ef14de-f67e-40ad-a3c6-7ac543db7079,5,613.8707,615.4703,space,1,0,13,13,23,1,Y,space,0.4381,,,,,,,,,,,
,,,,,R_4Qmvgp1ddD3Qpqs,001,2025-07-29_11h24.10.927,continuous_performance_test,2024.2.4,MacIntel,125,85ef14de-f67e-40ad-a3c6-7ac543db7079,5,615.4731,617.3736,space,1,0,14,14,9,1,J,space,0.4159,,,,,,,,,,,
,,,,,R_4Qmvgp1ddD3Qpqs,001,2025-07-29_11h24.10.927,continuous_performance_test,2024.2.4,MacIntel,125,85ef14de-f67e-40ad-a3c6-7ac543db7079,5,617.3754,619.1744,,1,0,15,15,29,1,X,,,,,,,,,,,,,
,,,,,R_4Qmvgp1ddD3Qpqs,001,2025-07-29_11h24.10.927,continuous_performance_test,2024.2.4,MacIntel,125,85ef14de-f67e-40ad-a3c6-7ac543db7079,5,619.1762,620.8769,,1,0,16,16,26,1,X,,,,,,,,,,,,,
,,,,,R_4Qmvgp1ddD3Qpqs,001,2025-07-29_11h24.10.927,continuous_performance_test,2024.2.4,MacIntel,125,85ef14de-f67e-40ad-a3c6-7ac543db7079,5,620.878,622.5786,space,1,0,17,17,0,1,A,space,0.2905,,,,,,,,,,,
,,,,,R_4Qmvgp1ddD3Qpqs,001,2025-07-29_11h24.10.927,continuous_performance_test,2024.2.4,MacIntel,125,85ef14de-f67e-40ad-a3c6-7ac543db7079,5,622.5808,624.3743,space,1,0,18,18,14,1,O,space,0.2959,,,,,,,,,,,
,,,,,R_4Qmvgp1ddD3Qpqs,001,2025-07-29_11h24.10.927,continuous_performance_test,2024.2.4,MacIntel,125,85ef14de-f67e-40ad-a3c6-7ac543db7079,5,624.3754,626.2201,space,1,0,19,19,24,1,Z,space,0.3458,,,,,,,,,,,
,,,,,R_4Qmvgp1ddD3Qpqs,001,2025-07-29_11h24.10.927,continuous_performance_test,2024.2.4,MacIntel,125,85ef14de-f67e-40ad-a3c6-7ac543db7079,5,626.2221,627.97,space,1,0,20,20,13,1,N,space,0.3246,,,,,,,,,,,
,,,,,R_4Qmvgp1ddD3Qpqs,001,2025-07-29_11h24.10.927,continuous_performance_test,2024.2.4,MacIntel,125,85ef14de-f67e-40ad-a3c6-7ac543db7079,5,627.9723,629.7684,,1,0,21,21,27,1,X,,,,,,,,,,,,,
,,,,,R_4Qmvgp1ddD3Qpqs,001,2025-07-29_11h24.10.927,continuous_performance_test,2024.2.4,MacIntel,125,85ef14de-f67e-40ad-a3c6-7ac543db7079,5,629.7693,631.5197,space,1,0,22,22,2,1,C,space,0.3595,,,,,,,,,,,
,,,,,R_4Qmvgp1ddD3Qpqs,001,2025-07-29_11h24.10.927,continuous_performance_test,2024.2.4,MacIntel,125,85ef14de-f67e-40ad-a3c6-7ac543db7079,5,631.5204,633.4194,space,1,0,23,23,5,1,F,space,0.2944,,,,,,,,,,,
,,,,,R_4Qmvgp1ddD3Qpqs,001,2025-07-29_11h24.10.927,continuous_performance_test,2024.2.4,MacIntel,125,85ef14de-f67e-40ad-a3c6-7ac543db7079,5,633.4211,634.9705,space,1,0,24,24,22,1,W,space,0.3426,,,,,,,,,,,
,,,,,R_4Qmvgp1ddD3Qpqs,001,2025-07-29_11h24.10.927,continuous_performance_test,2024.2.4,MacIntel,125,85ef14de-f67e-40ad-a3c6-7ac543db7079,5,634.9716,636.673,space,1,0,25,25,17,1,R,space,0.2979,,,,,,,,,,,
,,,,,R_4Qmvgp1ddD3Qpqs,001,2025-07-29_11h24.10.927,continuous_performance_test,2024.2.4,MacIntel,125,85ef14de-f67e-40ad-a3c6-7ac543db7079,5,636.6751,638.5157,space,1,0,26,26,18,1,S,space,0.2724,,,,,,,,,,,
,,,,,R_4Qmvgp1ddD3Qpqs,001,2025-07-29_11h24.10.927,continuous_performance_test,2024.2.4,MacIntel,125,85ef14de-f67e-40ad-a3c6-7ac543db7079,5,638.5162,640.512,space,1,0,27,27,15,1,P,space,0.3643,,,,,,,,,,,
,,,,,R_4Qmvgp1ddD3Qpqs,001,2025-07-29_11h24.10.927,continuous_performance_test,2024.2.4,MacIntel,125,85ef14de-f67e-40ad-a3c6-7ac543db7079,5,640.514,642.4572,space,0,0,28,28,28,1,X,,0.443,,,,,,,,,,,
,,,,,R_4Qmvgp1ddD3Qpqs,001,2025-07-29_11h24.10.927,continuous_performance_test,2024.2.4,MacIntel,125,85ef14de-f67e-40ad-a3c6-7ac543db7079,5,642.4584,644.3611,space,1,0,29,29,16,1,Q,space,0.234,,,,,,,,,,,
,,,,,R_4Qmvgp1ddD3Qpqs,001,2025-07-29_11h24.10.927,continuous_performance_test,2024.2.4,MacIntel,125,85ef14de-f67e-40ad-a3c6-7ac543db7079,5,,,,,,,,,,,,,,644.363,644.3656,,,,644.3661,650.0738,space,5.6955,
