Instructions.started,Instructions.stopped,key_resp.keys,key_resp.rt,key_resp.duration,participant,session,date,expName,psychopyVersion,OS,frameRate,realeye-tester-id,realeye-tester-quality_grade,Trial_noX.started,Trial_noX.stopped,response.keys,response.corr,response.rt,response.duration,trials_noX.thisRepN,trials_noX.thisTrialN,trials_noX.thisN,trials_noX.thisIndex,trials_noX.ran,letter,corrAns,BlockBreak.started,BlockBreak.stopped,key_instruct.keys,key_instruct.rt,key_instruct.duration,End_NoX.started,End_NoX.stopped,key_resp_end_noX.keys,key_resp_end_noX.rt,key_resp_end_noX.duration
0.0003,11.4977,space,11.4723,,R_4rYE6BWOo41b5s7,001,2025-07-22_10h13.58.543,continuous_performance_test,2024.2.4,MacIntel,59.88023952,21d6dbd5-aae4-4ba3-94f3-eea097e2ee66,5,,,,,,,,,,,,,,,,,,,,,,,
,,,,,R_4rYE6BWOo41b5s7,001,2025-07-22_10h13.58.543,continuous_performance_test,2024.2.4,MacIntel,59.88023952,21d6dbd5-aae4-4ba3-94f3-eea097e2ee66,5,11.5188,13.2147,space,1,0.4062,,0,0,0,23,1,Y,space,,,,,,,,,,
,,,,,R_4rYE6BWOo41b5s7,001,2025-07-22_10h13.58.543,continuous_performance_test,2024.2.4,MacIntel,59.88023952,21d6dbd5-aae4-4ba3-94f3-eea097e2ee66,5,13.2158,15.1146,space,1,0.3103,,0,1,1,21,1,V,space,,,,,,,,,,
,,,,,R_4rYE6BWOo41b5s7,001,2025-07-22_10h13.58.543,continuous_performance_test,2024.2.4,MacIntel,59.88023952,21d6dbd5-aae4-4ba3-94f3-eea097e2ee66,5,15.1162,16.7142,space,1,0.3812,,0,2,2,9,1,J,space,,,,,,,,,,
,,,,,R_4rYE6BWOo41b5s7,001,2025-07-22_10h13.58.543,continuous_performance_test,2024.2.4,MacIntel,59.88023952,21d6dbd5-aae4-4ba3-94f3-eea097e2ee66,5,16.7158,18.5646,space,1,0.309,,0,3,3,0,1,A,space,,,,,,,,,,
,,,,,R_4rYE6BWOo41b5s7,001,2025-07-22_10h13.58.543,continuous_performance_test,2024.2.4,MacIntel,59.88023952,21d6dbd5-aae4-4ba3-94f3-eea097e2ee66,5,18.5663,20.2137,space,0,0.3579,,0,4,4,27,1,X,,,,,,,,,,,
,,,,,R_4rYE6BWOo41b5s7,001,2025-07-22_10h13.58.543,continuous_performance_test,2024.2.4,MacIntel,59.88023952,21d6dbd5-aae4-4ba3-94f3-eea097e2ee66,5,20.2151,21.9663,space,1,0.2573,,0,5,5,12,1,M,space,,,,,,,,,,
,,,,,R_4rYE6BWOo41b5s7,001,2025-07-22_10h13.58.543,continuous_performance_test,2024.2.4,MacIntel,59.88023952,21d6dbd5-aae4-4ba3-94f3-eea097e2ee66,5,21.967,23.6147,space,1,0.2997,,0,6,6,10,1,K,space,,,,,,,,,,
,,,,,R_4rYE6BWOo41b5s7,001,2025-07-22_10h13.58.543,continuous_performance_test,2024.2.4,MacIntel,59.88023952,21d6dbd5-aae4-4ba3-94f3-eea097e2ee66,5,23.6162,25.5646,space,1,0.2577,,0,7,7,14,1,O,space,,,,,,,,,,
,,,,,R_4rYE6BWOo41b5s7,001,2025-07-22_10h13.58.543,continuous_performance_test,2024.2.4,MacIntel,59.88023952,21d6dbd5-aae4-4ba3-94f3-eea097e2ee66,5,25.5661,27.2647,space,1,0.2497,,0,8,8,7,1,H,space,,,,,,,,,,
,,,,,R_4rYE6BWOo41b5s7,001,2025-07-22_10h13.58.543,continuous_performance_test,2024.2.4,MacIntel,59.88023952,21d6dbd5-aae4-4ba3-94f3-eea097e2ee66,5,27.2661,29.2649,space,1,0.2484,,0,9,9,24,1,Z,space,,,,,,,,,,
,,,,,R_4rYE6BWOo41b5s7,001,2025-07-22_10h13.58.543,continuous_performance_test,2024.2.4,MacIntel,59.88023952,21d6dbd5-aae4-4ba3-94f3-eea097e2ee66,5,29.2663,31.1148,space,1,0.3436,,0,10,10,19,1,T,space,,,,,,,,,,
,,,,,R_4rYE6BWOo41b5s7,001,2025-07-22_10h13.58.543,continuous_performance_test,2024.2.4,MacIntel,59.88023952,21d6dbd5-aae4-4ba3-94f3-eea097e2ee66,5,31.1161,32.715,space,0,0.316,,0,11,11,28,1,X,,,,,,,,,,,
,,,,,R_4rYE6BWOo41b5s7,001,2025-07-22_10h13.58.543,continuous_performance_test,2024.2.4,MacIntel,59.88023952,21d6dbd5-aae4-4ba3-94f3-eea097e2ee66,5,32.7166,34.2648,space,1,0.427,,0,12,12,2,1,C,space,,,,,,,,,,
,,,,,R_4rYE6BWOo41b5s7,001,2025-07-22_10h13.58.543,continuous_performance_test,2024.2.4,MacIntel,59.88023952,21d6dbd5-aae4-4ba3-94f3-eea097e2ee66,5,34.2662,35.9651,space,0,0.2926,,0,13,13,29,1,X,,,,,,,,,,,
,,,,,R_4rYE6BWOo41b5s7,001,2025-07-22_10h13.58.543,continuous_performance_test,2024.2.4,MacIntel,59.88023952,21d6dbd5-aae4-4ba3-94f3-eea097e2ee66,5,35.9663,37.7139,,1,,,0,14,14,25,1,X,,,,,,,,,,,
,,,,,R_4rYE6BWOo41b5s7,001,2025-07-22_10h13.58.543,continuous_performance_test,2024.2.4,MacIntel,59.88023952,21d6dbd5-aae4-4ba3-94f3-eea097e2ee66,5,37.7151,39.615,space,1,0.2919,,0,15,15,17,1,R,space,,,,,,,,,,
,,,,,R_4rYE6BWOo41b5s7,001,2025-07-22_10h13.58.543,continuous_performance_test,2024.2.4,MacIntel,59.88023952,21d6dbd5-aae4-4ba3-94f3-eea097e2ee66,5,39.6168,41.5646,space,1,0.2873,,0,16,16,3,1,D,space,,,,,,,,,,
,,,,,R_4rYE6BWOo41b5s7,001,2025-07-22_10h13.58.543,continuous_performance_test,2024.2.4,MacIntel,59.88023952,21d6dbd5-aae4-4ba3-94f3-eea097e2ee66,5,41.5661,43.1149,space,1,0.507,,0,17,17,22,1,W,space,,,,,,,,,,
,,,,,R_4rYE6BWOo41b5s7,001,2025-07-22_10h13.58.543,continuous_performance_test,2024.2.4,MacIntel,59.88023952,21d6dbd5-aae4-4ba3-94f3-eea097e2ee66,5,43.1163,45.1151,space,1,0.2767,,0,18,18,15,1,P,space,,,,,,,,,,
,,,,,R_4rYE6BWOo41b5s7,001,2025-07-22_10h13.58.543,continuous_performance_test,2024.2.4,MacIntel,59.88023952,21d6dbd5-aae4-4ba3-94f3-eea097e2ee66,5,45.117,46.815,space,1,0.2939,,0,19,19,4,1,E,space,,,,,,,,,,
,,,,,R_4rYE6BWOo41b5s7,001,2025-07-22_10h13.58.543,continuous_performance_test,2024.2.4,MacIntel,59.88023952,21d6dbd5-aae4-4ba3-94f3-eea097e2ee66,5,46.8165,48.815,space,1,0.2277,,0,20,20,6,1,G,space,,,,,,,,,,
,,,,,R_4rYE6BWOo41b5s7,001,2025-07-22_10h13.58.543,continuous_performance_test,2024.2.4,MacIntel,59.88023952,21d6dbd5-aae4-4ba3-94f3-eea097e2ee66,5,48.8164,50.5645,space,1,0.274,,0,21,21,18,1,S,space,,,,,,,,,,
,,,,,R_4rYE6BWOo41b5s7,001,2025-07-22_10h13.58.543,continuous_performance_test,2024.2.4,MacIntel,59.88023952,21d6dbd5-aae4-4ba3-94f3-eea097e2ee66,5,50.5661,52.3651,space,1,0.2864,,0,22,22,16,1,Q,space,,,,,,,,,,
,,,,,R_4rYE6BWOo41b5s7,001,2025-07-22_10h13.58.543,continuous_performance_test,2024.2.4,MacIntel,59.88023952,21d6dbd5-aae4-4ba3-94f3-eea097e2ee66,5,52.3665,53.9143,space,1,0.2938,,0,23,23,1,1,B,space,,,,,,,,,,
,,,,,R_4rYE6BWOo41b5s7,001,2025-07-22_10h13.58.543,continuous_performance_test,2024.2.4,MacIntel,59.88023952,21d6dbd5-aae4-4ba3-94f3-eea097e2ee66,5,53.9159,55.515,space,1,0.2786,,0,24,24,8,1,I,space,,,,,,,,,,
,,,,,R_4rYE6BWOo41b5s7,001,2025-07-22_10h13.58.543,continuous_performance_test,2024.2.4,MacIntel,59.88023952,21d6dbd5-aae4-4ba3-94f3-eea097e2ee66,5,55.516,57.2154,space,1,0.2804,,0,25,25,11,1,L,space,,,,,,,,,,
,,,,,R_4rYE6BWOo41b5s7,001,2025-07-22_10h13.58.543,continuous_performance_test,2024.2.4,MacIntel,59.88023952,21d6dbd5-aae4-4ba3-94f3-eea097e2ee66,5,57.217,59.1643,space,1,0.2991,,0,26,26,20,1,U,space,,,,,,,,,,
,,,,,R_4rYE6BWOo41b5s7,001,2025-07-22_10h13.58.543,continuous_performance_test,2024.2.4,MacIntel,59.88023952,21d6dbd5-aae4-4ba3-94f3-eea097e2ee66,5,59.1661,60.8654,space,0,0.563,,0,27,27,26,1,X,,,,,,,,,,,
,,,,,R_4rYE6BWOo41b5s7,001,2025-07-22_10h13.58.543,continuous_performance_test,2024.2.4,MacIntel,59.88023952,21d6dbd5-aae4-4ba3-94f3-eea097e2ee66,5,60.8671,62.5155,space,1,0.2963,,0,28,28,13,1,N,space,,,,,,,,,,
,,,,,R_4rYE6BWOo41b5s7,001,2025-07-22_10h13.58.543,continuous_performance_test,2024.2.4,MacIntel,59.88023952,21d6dbd5-aae4-4ba3-94f3-eea097e2ee66,5,62.5173,64.0653,space,1,0.2813,,0,29,29,5,1,F,space,,,,,,,,,,
,,,,,R_4rYE6BWOo41b5s7,001,2025-07-22_10h13.58.543,continuous_performance_test,2024.2.4,MacIntel,59.88023952,21d6dbd5-aae4-4ba3-94f3-eea097e2ee66,5,68.4446,70.3822,space,1,0.3006,,0,0,0,7,1,H,space,64.0658,68.4327,space,4.3412,,,,,,
,,,,,R_4rYE6BWOo41b5s7,001,2025-07-22_10h13.58.543,continuous_performance_test,2024.2.4,MacIntel,59.88023952,21d6dbd5-aae4-4ba3-94f3-eea097e2ee66,5,70.3835,71.9321,space,1,0.248,,0,1,1,9,1,J,space,,,,,,,,,,
,,,,,R_4rYE6BWOo41b5s7,001,2025-07-22_10h13.58.543,continuous_performance_test,2024.2.4,MacIntel,59.88023952,21d6dbd5-aae4-4ba3-94f3-eea097e2ee66,5,71.9334,73.4812,space,1,0.2702,,0,2,2,21,1,V,space,,,,,,,,,,
,,,,,R_4rYE6BWOo41b5s7,001,2025-07-22_10h13.58.543,continuous_performance_test,2024.2.4,MacIntel,59.88023952,21d6dbd5-aae4-4ba3-94f3-eea097e2ee66,5,73.4825,75.4323,space,1,0.0658,,0,3,3,14,1,O,space,,,,,,,,,,
,,,,,R_4rYE6BWOo41b5s7,001,2025-07-22_10h13.58.543,continuous_performance_test,2024.2.4,MacIntel,59.88023952,21d6dbd5-aae4-4ba3-94f3-eea097e2ee66,5,75.4338,77.3322,space,1,0.2356,,0,4,4,16,1,Q,space,,,,,,,,,,
,,,,,R_4rYE6BWOo41b5s7,001,2025-07-22_10h13.58.543,continuous_performance_test,2024.2.4,MacIntel,59.88023952,21d6dbd5-aae4-4ba3-94f3-eea097e2ee66,5,77.3335,79.2823,space,1,0.0004,,0,5,5,23,1,Y,space,,,,,,,,,,
,,,,,R_4rYE6BWOo41b5s7,001,2025-07-22_10h13.58.543,continuous_performance_test,2024.2.4,MacIntel,59.88023952,21d6dbd5-aae4-4ba3-94f3-eea097e2ee66,5,79.2836,81.2825,space,0,0.2461,,0,6,6,28,1,X,,,,,,,,,,,
,,,,,R_4rYE6BWOo41b5s7,001,2025-07-22_10h13.58.543,continuous_performance_test,2024.2.4,MacIntel,59.88023952,21d6dbd5-aae4-4ba3-94f3-eea097e2ee66,5,81.2839,83.0316,space,1,0.3131,,0,7,7,15,1,P,space,,,,,,,,,,
,,,,,R_4rYE6BWOo41b5s7,001,2025-07-22_10h13.58.543,continuous_performance_test,2024.2.4,MacIntel,59.88023952,21d6dbd5-aae4-4ba3-94f3-eea097e2ee66,5,83.0331,84.8826,space,0,0.3266,,0,8,8,26,1,X,,,,,,,,,,,
,,,,,R_4rYE6BWOo41b5s7,001,2025-07-22_10h13.58.543,continuous_performance_test,2024.2.4,MacIntel,59.88023952,21d6dbd5-aae4-4ba3-94f3-eea097e2ee66,5,84.8842,86.8817,space,1,0.5477,,0,9,9,11,1,L,space,,,,,,,,,,
,,,,,R_4rYE6BWOo41b5s7,001,2025-07-22_10h13.58.543,continuous_performance_test,2024.2.4,MacIntel,59.88023952,21d6dbd5-aae4-4ba3-94f3-eea097e2ee66,5,86.8835,88.8315,,0,,,0,10,10,18,1,S,space,,,,,,,,,,
,,,,,R_4rYE6BWOo41b5s7,001,2025-07-22_10h13.58.543,continuous_performance_test,2024.2.4,MacIntel,59.88023952,21d6dbd5-aae4-4ba3-94f3-eea097e2ee66,5,88.8329,90.6328,space,0,0.4642,,0,11,11,27,1,X,,,,,,,,,,,
,,,,,R_4rYE6BWOo41b5s7,001,2025-07-22_10h13.58.543,continuous_performance_test,2024.2.4,MacIntel,59.88023952,21d6dbd5-aae4-4ba3-94f3-eea097e2ee66,5,90.6341,92.5825,,0,,,0,12,12,5,1,F,space,,,,,,,,,,
,,,,,R_4rYE6BWOo41b5s7,001,2025-07-22_10h13.58.543,continuous_performance_test,2024.2.4,MacIntel,59.88023952,21d6dbd5-aae4-4ba3-94f3-eea097e2ee66,5,92.5836,94.5326,space,1,0.3624,,0,13,13,20,1,U,space,,,,,,,,,,
,,,,,R_4rYE6BWOo41b5s7,001,2025-07-22_10h13.58.543,continuous_performance_test,2024.2.4,MacIntel,59.88023952,21d6dbd5-aae4-4ba3-94f3-eea097e2ee66,5,94.5339,96.1319,space,1,0.4159,,0,14,14,4,1,E,space,,,,,,,,,,
,,,,,R_4rYE6BWOo41b5s7,001,2025-07-22_10h13.58.543,continuous_performance_test,2024.2.4,MacIntel,59.88023952,21d6dbd5-aae4-4ba3-94f3-eea097e2ee66,5,96.1333,97.9828,space,1,0.3014,,0,15,15,19,1,T,space,,,,,,,,,,
,,,,,R_4rYE6BWOo41b5s7,001,2025-07-22_10h13.58.543,continuous_performance_test,2024.2.4,MacIntel,59.88023952,21d6dbd5-aae4-4ba3-94f3-eea097e2ee66,5,97.9842,99.9828,space,1,0.3162,,0,16,16,10,1,K,space,,,,,,,,,,
,,,,,R_4rYE6BWOo41b5s7,001,2025-07-22_10h13.58.543,continuous_performance_test,2024.2.4,MacIntel,59.88023952,21d6dbd5-aae4-4ba3-94f3-eea097e2ee66,5,99.9843,101.6828,space,0,0.3583,,0,17,17,29,1,X,,,,,,,,,,,
,,,,,R_4rYE6BWOo41b5s7,001,2025-07-22_10h13.58.543,continuous_performance_test,2024.2.4,MacIntel,59.88023952,21d6dbd5-aae4-4ba3-94f3-eea097e2ee66,5,101.6844,103.2327,space,1,0.9001,,0,18,18,8,1,I,space,,,,,,,,,,
,,,,,R_4rYE6BWOo41b5s7,001,2025-07-22_10h13.58.543,continuous_performance_test,2024.2.4,MacIntel,59.88023952,21d6dbd5-aae4-4ba3-94f3-eea097e2ee66,5,103.234,104.8829,,0,,,0,19,19,6,1,G,space,,,,,,,,,,
,,,,,R_4rYE6BWOo41b5s7,001,2025-07-22_10h13.58.543,continuous_performance_test,2024.2.4,MacIntel,59.88023952,21d6dbd5-aae4-4ba3-94f3-eea097e2ee66,5,104.8841,106.4829,space,1,0.6888,,0,20,20,12,1,M,space,,,,,,,,,,
,,,,,R_4rYE6BWOo41b5s7,001,2025-07-22_10h13.58.543,continuous_performance_test,2024.2.4,MacIntel,59.88023952,21d6dbd5-aae4-4ba3-94f3-eea097e2ee66,5,106.4841,108.3319,space,1,0.2801,,0,21,21,2,1,C,space,,,,,,,,,,
,,,,,R_4rYE6BWOo41b5s7,001,2025-07-22_10h13.58.543,continuous_performance_test,2024.2.4,MacIntel,59.88023952,21d6dbd5-aae4-4ba3-94f3-eea097e2ee66,5,108.3331,110.2831,space,1,0.2768,,0,22,22,13,1,N,space,,,,,,,,,,
,,,,,R_4rYE6BWOo41b5s7,001,2025-07-22_10h13.58.543,continuous_performance_test,2024.2.4,MacIntel,59.88023952,21d6dbd5-aae4-4ba3-94f3-eea097e2ee66,5,110.2845,112.1328,space,1,0.3316,,0,23,23,22,1,W,space,,,,,,,,,,
,,,,,R_4rYE6BWOo41b5s7,001,2025-07-22_10h13.58.543,continuous_performance_test,2024.2.4,MacIntel,59.88023952,21d6dbd5-aae4-4ba3-94f3-eea097e2ee66,5,112.1342,114.0329,space,1,0.314,,0,24,24,3,1,D,space,,,,,,,,,,
,,,,,R_4rYE6BWOo41b5s7,001,2025-07-22_10h13.58.543,continuous_performance_test,2024.2.4,MacIntel,59.88023952,21d6dbd5-aae4-4ba3-94f3-eea097e2ee66,5,114.0342,116.033,space,1,0.3146,,0,25,25,0,1,A,space,,,,,,,,,,
,,,,,R_4rYE6BWOo41b5s7,001,2025-07-22_10h13.58.543,continuous_performance_test,2024.2.4,MacIntel,59.88023952,21d6dbd5-aae4-4ba3-94f3-eea097e2ee66,5,116.0343,117.733,space,0,0.4319,,0,26,26,25,1,X,,,,,,,,,,,
,,,,,R_4rYE6BWOo41b5s7,001,2025-07-22_10h13.58.543,continuous_performance_test,2024.2.4,MacIntel,59.88023952,21d6dbd5-aae4-4ba3-94f3-eea097e2ee66,5,117.7343,119.7321,space,1,0.2983,,0,27,27,17,1,R,space,,,,,,,,,,
,,,,,R_4rYE6BWOo41b5s7,001,2025-07-22_10h13.58.543,continuous_performance_test,2024.2.4,MacIntel,59.88023952,21d6dbd5-aae4-4ba3-94f3-eea097e2ee66,5,119.7334,121.6321,space,1,0.3574,,0,28,28,24,1,Z,space,,,,,,,,,,
,,,,,R_4rYE6BWOo41b5s7,001,2025-07-22_10h13.58.543,continuous_performance_test,2024.2.4,MacIntel,59.88023952,21d6dbd5-aae4-4ba3-94f3-eea097e2ee66,5,121.6331,123.5332,space,1,0.3846,,0,29,29,1,1,B,space,,,,,,,,,,
,,,,,R_4rYE6BWOo41b5s7,001,2025-07-22_10h13.58.543,continuous_performance_test,2024.2.4,MacIntel,59.88023952,21d6dbd5-aae4-4ba3-94f3-eea097e2ee66,5,134.4755,136.4665,space,1,0.2743,,0,0,0,0,1,A,space,123.5345,134.4671,space,10.9102,,,,,,
,,,,,R_4rYE6BWOo41b5s7,001,2025-07-22_10h13.58.543,continuous_performance_test,2024.2.4,MacIntel,59.88023952,21d6dbd5-aae4-4ba3-94f3-eea097e2ee66,5,136.4673,138.4666,space,1,0.2968,,0,1,1,21,1,V,space,,,,,,,,,,
,,,,,R_4rYE6BWOo41b5s7,001,2025-07-22_10h13.58.543,continuous_performance_test,2024.2.4,MacIntel,59.88023952,21d6dbd5-aae4-4ba3-94f3-eea097e2ee66,5,138.4679,140.3662,space,1,0.3098,,0,2,2,18,1,S,space,,,,,,,,,,
,,,,,R_4rYE6BWOo41b5s7,001,2025-07-22_10h13.58.543,continuous_performance_test,2024.2.4,MacIntel,59.88023952,21d6dbd5-aae4-4ba3-94f3-eea097e2ee66,5,140.3675,142.0657,space,1,0.2935,,0,3,3,17,1,R,space,,,,,,,,,,
,,,,,R_4rYE6BWOo41b5s7,001,2025-07-22_10h13.58.543,continuous_performance_test,2024.2.4,MacIntel,59.88023952,21d6dbd5-aae4-4ba3-94f3-eea097e2ee66,5,142.067,143.8167,space,1,0.2819,,0,4,4,4,1,E,space,,,,,,,,,,
,,,,,R_4rYE6BWOo41b5s7,001,2025-07-22_10h13.58.543,continuous_performance_test,2024.2.4,MacIntel,59.88023952,21d6dbd5-aae4-4ba3-94f3-eea097e2ee66,5,143.8179,145.4167,space,1,0.2982,,0,5,5,9,1,J,space,,,,,,,,,,
,,,,,R_4rYE6BWOo41b5s7,001,2025-07-22_10h13.58.543,continuous_performance_test,2024.2.4,MacIntel,59.88023952,21d6dbd5-aae4-4ba3-94f3-eea097e2ee66,5,145.4178,147.0165,space,1,0.2761,,0,6,6,5,1,F,space,,,,,,,,,,
,,,,,R_4rYE6BWOo41b5s7,001,2025-07-22_10h13.58.543,continuous_performance_test,2024.2.4,MacIntel,59.88023952,21d6dbd5-aae4-4ba3-94f3-eea097e2ee66,5,147.0175,148.6169,space,1,0.264,,0,7,7,22,1,W,space,,,,,,,,,,
,,,,,R_4rYE6BWOo41b5s7,001,2025-07-22_10h13.58.543,continuous_performance_test,2024.2.4,MacIntel,59.88023952,21d6dbd5-aae4-4ba3-94f3-eea097e2ee66,5,148.6181,150.4171,space,1,0.2799,,0,8,8,13,1,N,space,,,,,,,,,,
,,,,,R_4rYE6BWOo41b5s7,001,2025-07-22_10h13.58.543,continuous_performance_test,2024.2.4,MacIntel,59.88023952,21d6dbd5-aae4-4ba3-94f3-eea097e2ee66,5,150.4186,151.9671,space,1,0.2808,,0,9,9,24,1,Z,space,,,,,,,,,,
,,,,,R_4rYE6BWOo41b5s7,001,2025-07-22_10h13.58.543,continuous_performance_test,2024.2.4,MacIntel,59.88023952,21d6dbd5-aae4-4ba3-94f3-eea097e2ee66,5,151.9685,153.767,space,1,0.2135,,0,10,10,14,1,O,space,,,,,,,,,,
,,,,,R_4rYE6BWOo41b5s7,001,2025-07-22_10h13.58.543,continuous_performance_test,2024.2.4,MacIntel,59.88023952,21d6dbd5-aae4-4ba3-94f3-eea097e2ee66,5,153.7685,155.617,space,1,0.2707,,0,11,11,10,1,K,space,,,,,,,,,,
,,,,,R_4rYE6BWOo41b5s7,001,2025-07-22_10h13.58.543,continuous_performance_test,2024.2.4,MacIntel,59.88023952,21d6dbd5-aae4-4ba3-94f3-eea097e2ee66,5,155.6184,157.3169,space,1,0.2637,,0,12,12,8,1,I,space,,,,,,,,,,
,,,,,R_4rYE6BWOo41b5s7,001,2025-07-22_10h13.58.543,continuous_performance_test,2024.2.4,MacIntel,59.88023952,21d6dbd5-aae4-4ba3-94f3-eea097e2ee66,5,157.3181,158.917,space,1,0.2876,,0,13,13,6,1,G,space,,,,,,,,,,
,,,,,R_4rYE6BWOo41b5s7,001,2025-07-22_10h13.58.543,continuous_performance_test,2024.2.4,MacIntel,59.88023952,21d6dbd5-aae4-4ba3-94f3-eea097e2ee66,5,158.9183,160.5669,space,1,0.2801,,0,14,14,2,1,C,space,,,,,,,,,,
,,,,,R_4rYE6BWOo41b5s7,001,2025-07-22_10h13.58.543,continuous_performance_test,2024.2.4,MacIntel,59.88023952,21d6dbd5-aae4-4ba3-94f3-eea097e2ee66,5,160.5682,162.5171,space,1,0.2466,,0,15,15,11,1,L,space,,,,,,,,,,
,,,,,R_4rYE6BWOo41b5s7,001,2025-07-22_10h13.58.543,continuous_performance_test,2024.2.4,MacIntel,59.88023952,21d6dbd5-aae4-4ba3-94f3-eea097e2ee66,5,162.5185,164.1167,space,1,0.2818,,0,16,16,20,1,U,space,,,,,,,,,,
,,,,,R_4rYE6BWOo41b5s7,001,2025-07-22_10h13.58.543,continuous_performance_test,2024.2.4,MacIntel,59.88023952,21d6dbd5-aae4-4ba3-94f3-eea097e2ee66,5,164.1174,166.1171,space,0,0.2813,,0,17,17,27,1,X,,,,,,,,,,,
,,,,,R_4rYE6BWOo41b5s7,001,2025-07-22_10h13.58.543,continuous_performance_test,2024.2.4,MacIntel,59.88023952,21d6dbd5-aae4-4ba3-94f3-eea097e2ee66,5,166.118,167.9171,space,1,0.2645,,0,18,18,3,1,D,space,,,,,,,,,,
,,,,,R_4rYE6BWOo41b5s7,001,2025-07-22_10h13.58.543,continuous_performance_test,2024.2.4,MacIntel,59.88023952,21d6dbd5-aae4-4ba3-94f3-eea097e2ee66,5,167.9182,169.7663,space,0,0.2626,,0,19,19,29,1,X,,,,,,,,,,,
,,,,,R_4rYE6BWOo41b5s7,001,2025-07-22_10h13.58.543,continuous_performance_test,2024.2.4,MacIntel,59.88023952,21d6dbd5-aae4-4ba3-94f3-eea097e2ee66,5,169.7675,171.5672,space,1,0.2939,,0,20,20,16,1,Q,space,,,,,,,,,,
,,,,,R_4rYE6BWOo41b5s7,001,2025-07-22_10h13.58.543,continuous_performance_test,2024.2.4,MacIntel,59.88023952,21d6dbd5-aae4-4ba3-94f3-eea097e2ee66,5,171.5687,173.2163,,1,,,0,21,21,28,1,X,,,,,,,,,,,
,,,,,R_4rYE6BWOo41b5s7,001,2025-07-22_10h13.58.543,continuous_performance_test,2024.2.4,MacIntel,59.88023952,21d6dbd5-aae4-4ba3-94f3-eea097e2ee66,5,173.2185,175.0162,space,1,0.4479,,0,22,22,1,1,B,space,,,,,,,,,,
,,,,,R_4rYE6BWOo41b5s7,001,2025-07-22_10h13.58.543,continuous_performance_test,2024.2.4,MacIntel,59.88023952,21d6dbd5-aae4-4ba3-94f3-eea097e2ee66,5,175.0175,176.7673,space,1,0.3131,,0,23,23,23,1,Y,space,,,,,,,,,,
,,,,,R_4rYE6BWOo41b5s7,001,2025-07-22_10h13.58.543,continuous_performance_test,2024.2.4,MacIntel,59.88023952,21d6dbd5-aae4-4ba3-94f3-eea097e2ee66,5,176.7687,178.7172,,1,,,0,24,24,26,1,X,,,,,,,,,,,
,,,,,R_4rYE6BWOo41b5s7,001,2025-07-22_10h13.58.543,continuous_performance_test,2024.2.4,MacIntel,59.88023952,21d6dbd5-aae4-4ba3-94f3-eea097e2ee66,5,178.7182,180.6673,space,0,0.3008,,0,25,25,25,1,X,,,,,,,,,,,
,,,,,R_4rYE6BWOo41b5s7,001,2025-07-22_10h13.58.543,continuous_performance_test,2024.2.4,MacIntel,59.88023952,21d6dbd5-aae4-4ba3-94f3-eea097e2ee66,5,180.6691,182.2673,space,1,0.3985,,0,26,26,12,1,M,space,,,,,,,,,,
,,,,,R_4rYE6BWOo41b5s7,001,2025-07-22_10h13.58.543,continuous_performance_test,2024.2.4,MacIntel,59.88023952,21d6dbd5-aae4-4ba3-94f3-eea097e2ee66,5,182.2686,183.8174,space,1,0.3804,,0,27,27,7,1,H,space,,,,,,,,,,
,,,,,R_4rYE6BWOo41b5s7,001,2025-07-22_10h13.58.543,continuous_performance_test,2024.2.4,MacIntel,59.88023952,21d6dbd5-aae4-4ba3-94f3-eea097e2ee66,5,183.8186,185.3675,space,1,0.3844,,0,28,28,15,1,P,space,,,,,,,,,,
,,,,,R_4rYE6BWOo41b5s7,001,2025-07-22_10h13.58.543,continuous_performance_test,2024.2.4,MacIntel,59.88023952,21d6dbd5-aae4-4ba3-94f3-eea097e2ee66,5,185.3689,187.1168,space,1,0.3978,,0,29,29,19,1,T,space,,,,,,,,,,
,,,,,R_4rYE6BWOo41b5s7,001,2025-07-22_10h13.58.543,continuous_performance_test,2024.2.4,MacIntel,59.88023952,21d6dbd5-aae4-4ba3-94f3-eea097e2ee66,5,201.4259,203.1178,space,1,0.4397,,0,0,0,22,1,W,space,187.1179,201.4177,space,14.2784,,,,,,
,,,,,R_4rYE6BWOo41b5s7,001,2025-07-22_10h13.58.543,continuous_performance_test,2024.2.4,MacIntel,59.88023952,21d6dbd5-aae4-4ba3-94f3-eea097e2ee66,5,203.1192,204.8668,space,1,0.2655,,0,1,1,10,1,K,space,,,,,,,,,,
,,,,,R_4rYE6BWOo41b5s7,001,2025-07-22_10h13.58.543,continuous_performance_test,2024.2.4,MacIntel,59.88023952,21d6dbd5-aae4-4ba3-94f3-eea097e2ee66,5,204.8683,206.7681,space,1,0.266,,0,2,2,18,1,S,space,,,,,,,,,,
,,,,,R_4rYE6BWOo41b5s7,001,2025-07-22_10h13.58.543,continuous_performance_test,2024.2.4,MacIntel,59.88023952,21d6dbd5-aae4-4ba3-94f3-eea097e2ee66,5,206.7699,208.7677,space,1,0.2643,,0,3,3,21,1,V,space,,,,,,,,,,
,,,,,R_4rYE6BWOo41b5s7,001,2025-07-22_10h13.58.543,continuous_performance_test,2024.2.4,MacIntel,59.88023952,21d6dbd5-aae4-4ba3-94f3-eea097e2ee66,5,208.7689,210.3678,space,1,0.2651,,0,4,4,0,1,A,space,,,,,,,,,,
,,,,,R_4rYE6BWOo41b5s7,001,2025-07-22_10h13.58.543,continuous_performance_test,2024.2.4,MacIntel,59.88023952,21d6dbd5-aae4-4ba3-94f3-eea097e2ee66,5,210.3692,212.3179,space,1,0.2809,,0,5,5,14,1,O,space,,,,,,,,,,
,,,,,R_4rYE6BWOo41b5s7,001,2025-07-22_10h13.58.543,continuous_performance_test,2024.2.4,MacIntel,59.88023952,21d6dbd5-aae4-4ba3-94f3-eea097e2ee66,5,212.3193,213.9678,space,0,0.2805,,0,6,6,29,1,X,,,,,,,,,,,
,,,,,R_4rYE6BWOo41b5s7,001,2025-07-22_10h13.58.543,continuous_performance_test,2024.2.4,MacIntel,59.88023952,21d6dbd5-aae4-4ba3-94f3-eea097e2ee66,5,213.9689,215.8178,space,1,0.348,,0,7,7,15,1,P,space,,,,,,,,,,
,,,,,R_4rYE6BWOo41b5s7,001,2025-07-22_10h13.58.543,continuous_performance_test,2024.2.4,MacIntel,59.88023952,21d6dbd5-aae4-4ba3-94f3-eea097e2ee66,5,215.8193,217.7676,space,0,0.2954,,0,8,8,26,1,X,,,,,,,,,,,
,,,,,R_4rYE6BWOo41b5s7,001,2025-07-22_10h13.58.543,continuous_performance_test,2024.2.4,MacIntel,59.88023952,21d6dbd5-aae4-4ba3-94f3-eea097e2ee66,5,217.7688,219.3679,space,1,0.4304,,0,9,9,11,1,L,space,,,,,,,,,,
,,,,,R_4rYE6BWOo41b5s7,001,2025-07-22_10h13.58.543,continuous_performance_test,2024.2.4,MacIntel,59.88023952,21d6dbd5-aae4-4ba3-94f3-eea097e2ee66,5,219.3692,220.918,space,1,0.2808,,0,10,10,13,1,N,space,,,,,,,,,,
,,,,,R_4rYE6BWOo41b5s7,001,2025-07-22_10h13.58.543,continuous_performance_test,2024.2.4,MacIntel,59.88023952,21d6dbd5-aae4-4ba3-94f3-eea097e2ee66,5,220.9193,222.868,space,1,0.2925,,0,11,11,7,1,H,space,,,,,,,,,,
,,,,,R_4rYE6BWOo41b5s7,001,2025-07-22_10h13.58.543,continuous_performance_test,2024.2.4,MacIntel,59.88023952,21d6dbd5-aae4-4ba3-94f3-eea097e2ee66,5,222.8696,224.518,space,0,0.2911,,0,12,12,25,1,X,,,,,,,,,,,
,,,,,R_4rYE6BWOo41b5s7,001,2025-07-22_10h13.58.543,continuous_performance_test,2024.2.4,MacIntel,59.88023952,21d6dbd5-aae4-4ba3-94f3-eea097e2ee66,5,224.5193,226.3675,space,1,0.281,,0,13,13,4,1,E,space,,,,,,,,,,
,,,,,R_4rYE6BWOo41b5s7,001,2025-07-22_10h13.58.543,continuous_performance_test,2024.2.4,MacIntel,59.88023952,21d6dbd5-aae4-4ba3-94f3-eea097e2ee66,5,226.369,228.217,space,1,0.279,,0,14,14,2,1,C,space,,,,,,,,,,
,,,,,R_4rYE6BWOo41b5s7,001,2025-07-22_10h13.58.543,continuous_performance_test,2024.2.4,MacIntel,59.88023952,21d6dbd5-aae4-4ba3-94f3-eea097e2ee66,5,228.2184,230.168,space,1,0.2786,,0,15,15,12,1,M,space,,,,,,,,,,
,,,,,R_4rYE6BWOo41b5s7,001,2025-07-22_10h13.58.543,continuous_performance_test,2024.2.4,MacIntel,59.88023952,21d6dbd5-aae4-4ba3-94f3-eea097e2ee66,5,230.1694,231.8671,space,1,0.2811,,0,16,16,1,1,B,space,,,,,,,,,,
,,,,,R_4rYE6BWOo41b5s7,001,2025-07-22_10h13.58.543,continuous_performance_test,2024.2.4,MacIntel,59.88023952,21d6dbd5-aae4-4ba3-94f3-eea097e2ee66,5,231.8686,233.8181,space,1,0.2772,,0,17,17,9,1,J,space,,,,,,,,,,
,,,,,R_4rYE6BWOo41b5s7,001,2025-07-22_10h13.58.543,continuous_performance_test,2024.2.4,MacIntel,59.88023952,21d6dbd5-aae4-4ba3-94f3-eea097e2ee66,5,233.8197,235.418,space,1,0.2974,,0,18,18,8,1,I,space,,,,,,,,,,
,,,,,R_4rYE6BWOo41b5s7,001,2025-07-22_10h13.58.543,continuous_performance_test,2024.2.4,MacIntel,59.88023952,21d6dbd5-aae4-4ba3-94f3-eea097e2ee66,5,235.4192,237.0172,space,1,0.2807,,0,19,19,16,1,Q,space,,,,,,,,,,
,,,,,R_4rYE6BWOo41b5s7,001,2025-07-22_10h13.58.543,continuous_performance_test,2024.2.4,MacIntel,59.88023952,21d6dbd5-aae4-4ba3-94f3-eea097e2ee66,5,237.0187,238.7681,space,1,0.2814,,0,20,20,5,1,F,space,,,,,,,,,,
,,,,,R_4rYE6BWOo41b5s7,001,2025-07-22_10h13.58.543,continuous_performance_test,2024.2.4,MacIntel,59.88023952,21d6dbd5-aae4-4ba3-94f3-eea097e2ee66,5,238.7694,240.7182,space,1,0.2798,,0,21,21,3,1,D,space,,,,,,,,,,
,,,,,R_4rYE6BWOo41b5s7,001,2025-07-22_10h13.58.543,continuous_performance_test,2024.2.4,MacIntel,59.88023952,21d6dbd5-aae4-4ba3-94f3-eea097e2ee66,5,240.7197,242.2683,space,1,0.2931,,0,22,22,19,1,T,space,,,,,,,,,,
,,,,,R_4rYE6BWOo41b5s7,001,2025-07-22_10h13.58.543,continuous_performance_test,2024.2.4,MacIntel,59.88023952,21d6dbd5-aae4-4ba3-94f3-eea097e2ee66,5,242.2697,243.8183,space,0,0.2645,,0,23,23,28,1,X,,,,,,,,,,,
,,,,,R_4rYE6BWOo41b5s7,001,2025-07-22_10h13.58.543,continuous_performance_test,2024.2.4,MacIntel,59.88023952,21d6dbd5-aae4-4ba3-94f3-eea097e2ee66,5,243.8198,245.4673,space,1,0.2922,,0,24,24,6,1,G,space,,,,,,,,,,
,,,,,R_4rYE6BWOo41b5s7,001,2025-07-22_10h13.58.543,continuous_performance_test,2024.2.4,MacIntel,59.88023952,21d6dbd5-aae4-4ba3-94f3-eea097e2ee66,5,245.4684,247.1181,space,1,0.2971,,0,25,25,20,1,U,space,,,,,,,,,,
,,,,,R_4rYE6BWOo41b5s7,001,2025-07-22_10h13.58.543,continuous_performance_test,2024.2.4,MacIntel,59.88023952,21d6dbd5-aae4-4ba3-94f3-eea097e2ee66,5,247.1189,248.8683,space,1,0.2833,,0,26,26,23,1,Y,space,,,,,,,,,,
,,,,,R_4rYE6BWOo41b5s7,001,2025-07-22_10h13.58.543,continuous_performance_test,2024.2.4,MacIntel,59.88023952,21d6dbd5-aae4-4ba3-94f3-eea097e2ee66,5,248.8698,250.8183,space,1,0.3596,,0,27,27,24,1,Z,space,,,,,,,,,,
,,,,,R_4rYE6BWOo41b5s7,001,2025-07-22_10h13.58.543,continuous_performance_test,2024.2.4,MacIntel,59.88023952,21d6dbd5-aae4-4ba3-94f3-eea097e2ee66,5,250.8196,252.3684,space,1,0.3472,,0,28,28,17,1,R,space,,,,,,,,,,
,,,,,R_4rYE6BWOo41b5s7,001,2025-07-22_10h13.58.543,continuous_performance_test,2024.2.4,MacIntel,59.88023952,21d6dbd5-aae4-4ba3-94f3-eea097e2ee66,5,252.3696,253.9686,,1,,,0,29,29,27,1,X,,,,,,,,,,,
,,,,,R_4rYE6BWOo41b5s7,001,2025-07-22_10h13.58.543,continuous_performance_test,2024.2.4,MacIntel,59.88023952,21d6dbd5-aae4-4ba3-94f3-eea097e2ee66,5,268.9765,270.5188,,0,,,0,0,0,5,1,F,space,253.9703,268.969,,,,,,,,
,,,,,R_4rYE6BWOo41b5s7,001,2025-07-22_10h13.58.543,continuous_performance_test,2024.2.4,MacIntel,59.88023952,21d6dbd5-aae4-4ba3-94f3-eea097e2ee66,5,270.5204,272.2689,,0,,,0,1,1,9,1,J,space,,,,,,,,,,
,,,,,R_4rYE6BWOo41b5s7,001,2025-07-22_10h13.58.543,continuous_performance_test,2024.2.4,MacIntel,59.88023952,21d6dbd5-aae4-4ba3-94f3-eea097e2ee66,5,272.2704,274.2689,space,1,0.7181,,0,2,2,18,1,S,space,,,,,,,,,,
,,,,,R_4rYE6BWOo41b5s7,001,2025-07-22_10h13.58.543,continuous_performance_test,2024.2.4,MacIntel,59.88023952,21d6dbd5-aae4-4ba3-94f3-eea097e2ee66,5,274.2702,276.0689,space,1,0.7678,,0,3,3,12,1,M,space,,,,,,,,,,
,,,,,R_4rYE6BWOo41b5s7,001,2025-07-22_10h13.58.543,continuous_performance_test,2024.2.4,MacIntel,59.88023952,21d6dbd5-aae4-4ba3-94f3-eea097e2ee66,5,276.0701,277.6179,space,1,0.2819,,0,4,4,24,1,Z,space,,,,,,,,,,
,,,,,R_4rYE6BWOo41b5s7,001,2025-07-22_10h13.58.543,continuous_performance_test,2024.2.4,MacIntel,59.88023952,21d6dbd5-aae4-4ba3-94f3-eea097e2ee66,5,277.6191,279.418,space,1,0.2609,,0,5,5,11,1,L,space,,,,,,,,,,
,,,,,R_4rYE6BWOo41b5s7,001,2025-07-22_10h13.58.543,continuous_performance_test,2024.2.4,MacIntel,59.88023952,21d6dbd5-aae4-4ba3-94f3-eea097e2ee66,5,279.4191,281.219,space,1,0.248,,0,6,6,3,1,D,space,,,,,,,,,,
,,,,,R_4rYE6BWOo41b5s7,001,2025-07-22_10h13.58.543,continuous_performance_test,2024.2.4,MacIntel,59.88023952,21d6dbd5-aae4-4ba3-94f3-eea097e2ee66,5,281.2205,283.1191,space,1,0.2458,,0,7,7,2,1,C,space,,,,,,,,,,
,,,,,R_4rYE6BWOo41b5s7,001,2025-07-22_10h13.58.543,continuous_performance_test,2024.2.4,MacIntel,59.88023952,21d6dbd5-aae4-4ba3-94f3-eea097e2ee66,5,283.1203,284.7692,space,0,0.252,,0,8,8,25,1,X,,,,,,,,,,,
,,,,,R_4rYE6BWOo41b5s7,001,2025-07-22_10h13.58.543,continuous_performance_test,2024.2.4,MacIntel,59.88023952,21d6dbd5-aae4-4ba3-94f3-eea097e2ee66,5,284.7704,286.619,space,0,0.2506,,0,9,9,27,1,X,,,,,,,,,,,
,,,,,R_4rYE6BWOo41b5s7,001,2025-07-22_10h13.58.543,continuous_performance_test,2024.2.4,MacIntel,59.88023952,21d6dbd5-aae4-4ba3-94f3-eea097e2ee66,5,286.6203,288.2193,space,1,0.3087,,0,10,10,20,1,U,space,,,,,,,,,,
,,,,,R_4rYE6BWOo41b5s7,001,2025-07-22_10h13.58.543,continuous_performance_test,2024.2.4,MacIntel,59.88023952,21d6dbd5-aae4-4ba3-94f3-eea097e2ee66,5,288.2206,290.1692,space,1,0.3773,,0,11,11,4,1,E,space,,,,,,,,,,
,,,,,R_4rYE6BWOo41b5s7,001,2025-07-22_10h13.58.543,continuous_performance_test,2024.2.4,MacIntel,59.88023952,21d6dbd5-aae4-4ba3-94f3-eea097e2ee66,5,290.1706,291.7193,space,1,0.2968,,0,12,12,6,1,G,space,,,,,,,,,,
,,,,,R_4rYE6BWOo41b5s7,001,2025-07-22_10h13.58.543,continuous_performance_test,2024.2.4,MacIntel,59.88023952,21d6dbd5-aae4-4ba3-94f3-eea097e2ee66,5,291.7209,293.5192,space,1,0.2806,,0,13,13,19,1,T,space,,,,,,,,,,
,,,,,R_4rYE6BWOo41b5s7,001,2025-07-22_10h13.58.543,continuous_performance_test,2024.2.4,MacIntel,59.88023952,21d6dbd5-aae4-4ba3-94f3-eea097e2ee66,5,293.5204,295.1191,space,1,0.2875,,0,14,14,15,1,P,space,,,,,,,,,,
,,,,,R_4rYE6BWOo41b5s7,001,2025-07-22_10h13.58.543,continuous_performance_test,2024.2.4,MacIntel,59.88023952,21d6dbd5-aae4-4ba3-94f3-eea097e2ee66,5,295.1205,296.9183,space,1,0.2487,,0,15,15,0,1,A,space,,,,,,,,,,
,,,,,R_4rYE6BWOo41b5s7,001,2025-07-22_10h13.58.543,continuous_performance_test,2024.2.4,MacIntel,59.88023952,21d6dbd5-aae4-4ba3-94f3-eea097e2ee66,5,296.92,298.569,space,1,0.2687,,0,16,16,10,1,K,space,,,,,,,,,,
,,,,,R_4rYE6BWOo41b5s7,001,2025-07-22_10h13.58.543,continuous_performance_test,2024.2.4,MacIntel,59.88023952,21d6dbd5-aae4-4ba3-94f3-eea097e2ee66,5,298.5702,300.2695,space,1,0.2665,,0,17,17,21,1,V,space,,,,,,,,,,
,,,,,R_4rYE6BWOo41b5s7,001,2025-07-22_10h13.58.543,continuous_performance_test,2024.2.4,MacIntel,59.88023952,21d6dbd5-aae4-4ba3-94f3-eea097e2ee66,5,300.271,301.8695,space,1,0.2754,,0,18,18,13,1,N,space,,,,,,,,,,
,,,,,R_4rYE6BWOo41b5s7,001,2025-07-22_10h13.58.543,continuous_performance_test,2024.2.4,MacIntel,59.88023952,21d6dbd5-aae4-4ba3-94f3-eea097e2ee66,5,301.8709,303.8683,space,1,0.2327,,0,19,19,8,1,I,space,,,,,,,,,,
,,,,,R_4rYE6BWOo41b5s7,001,2025-07-22_10h13.58.543,continuous_performance_test,2024.2.4,MacIntel,59.88023952,21d6dbd5-aae4-4ba3-94f3-eea097e2ee66,5,303.8693,305.4194,space,1,0.3181,,0,20,20,17,1,R,space,,,,,,,,,,
,,,,,R_4rYE6BWOo41b5s7,001,2025-07-22_10h13.58.543,continuous_performance_test,2024.2.4,MacIntel,59.88023952,21d6dbd5-aae4-4ba3-94f3-eea097e2ee66,5,305.4206,307.4195,space,0,0.2965,,0,21,21,26,1,X,,,,,,,,,,,
,,,,,R_4rYE6BWOo41b5s7,001,2025-07-22_10h13.58.543,continuous_performance_test,2024.2.4,MacIntel,59.88023952,21d6dbd5-aae4-4ba3-94f3-eea097e2ee66,5,307.4204,309.1687,space,0,0.2541,,0,22,22,28,1,X,,,,,,,,,,,
,,,,,R_4rYE6BWOo41b5s7,001,2025-07-22_10h13.58.543,continuous_performance_test,2024.2.4,MacIntel,59.88023952,21d6dbd5-aae4-4ba3-94f3-eea097e2ee66,5,309.1698,311.1696,space,1,0.2692,,0,23,23,16,1,Q,space,,,,,,,,,,
,,,,,R_4rYE6BWOo41b5s7,001,2025-07-22_10h13.58.543,continuous_performance_test,2024.2.4,MacIntel,59.88023952,21d6dbd5-aae4-4ba3-94f3-eea097e2ee66,5,311.1709,312.9196,space,1,0.2786,,0,24,24,1,1,B,space,,,,,,,,,,
,,,,,R_4rYE6BWOo41b5s7,001,2025-07-22_10h13.58.543,continuous_performance_test,2024.2.4,MacIntel,59.88023952,21d6dbd5-aae4-4ba3-94f3-eea097e2ee66,5,312.9208,314.7697,space,1,0.2813,,0,25,25,14,1,O,space,,,,,,,,,,
,,,,,R_4rYE6BWOo41b5s7,001,2025-07-22_10h13.58.543,continuous_performance_test,2024.2.4,MacIntel,59.88023952,21d6dbd5-aae4-4ba3-94f3-eea097e2ee66,5,314.7712,316.5195,space,1,0.2978,,0,26,26,23,1,Y,space,,,,,,,,,,
,,,,,R_4rYE6BWOo41b5s7,001,2025-07-22_10h13.58.543,continuous_performance_test,2024.2.4,MacIntel,59.88023952,21d6dbd5-aae4-4ba3-94f3-eea097e2ee66,5,316.5208,318.3197,space,0,0.2858,,0,27,27,29,1,X,,,,,,,,,,,
,,,,,R_4rYE6BWOo41b5s7,001,2025-07-22_10h13.58.543,continuous_performance_test,2024.2.4,MacIntel,59.88023952,21d6dbd5-aae4-4ba3-94f3-eea097e2ee66,5,318.3213,320.2198,space,1,0.2701,,0,28,28,22,1,W,space,,,,,,,,,,
,,,,,R_4rYE6BWOo41b5s7,001,2025-07-22_10h13.58.543,continuous_performance_test,2024.2.4,MacIntel,59.88023952,21d6dbd5-aae4-4ba3-94f3-eea097e2ee66,5,320.2212,321.9687,space,1,0.2814,,0,29,29,7,1,H,space,,,,,,,,,,
,,,,,R_4rYE6BWOo41b5s7,001,2025-07-22_10h13.58.543,continuous_performance_test,2024.2.4,MacIntel,59.88023952,21d6dbd5-aae4-4ba3-94f3-eea097e2ee66,5,330.8102,332.6032,space,1,0.2785,,0,0,0,23,1,Y,space,321.9696,330.8029,space,8.8107,,,,,,
,,,,,R_4rYE6BWOo41b5s7,001,2025-07-22_10h13.58.543,continuous_performance_test,2024.2.4,MacIntel,59.88023952,21d6dbd5-aae4-4ba3-94f3-eea097e2ee66,5,332.6044,334.4033,space,1,0.066,,0,1,1,7,1,H,space,,,,,,,,,,
,,,,,R_4rYE6BWOo41b5s7,001,2025-07-22_10h13.58.543,continuous_performance_test,2024.2.4,MacIntel,59.88023952,21d6dbd5-aae4-4ba3-94f3-eea097e2ee66,5,334.4044,336.0033,space,0,0.2865,,0,2,2,25,1,X,,,,,,,,,,,
,,,,,R_4rYE6BWOo41b5s7,001,2025-07-22_10h13.58.543,continuous_performance_test,2024.2.4,MacIntel,59.88023952,21d6dbd5-aae4-4ba3-94f3-eea097e2ee66,5,336.0045,337.5529,space,1,0.2966,,0,3,3,16,1,Q,space,,,,,,,,,,
,,,,,R_4rYE6BWOo41b5s7,001,2025-07-22_10h13.58.543,continuous_performance_test,2024.2.4,MacIntel,59.88023952,21d6dbd5-aae4-4ba3-94f3-eea097e2ee66,5,337.5542,339.1533,space,1,0.2513,,0,4,4,6,1,G,space,,,,,,,,,,
,,,,,R_4rYE6BWOo41b5s7,001,2025-07-22_10h13.58.543,continuous_performance_test,2024.2.4,MacIntel,59.88023952,21d6dbd5-aae4-4ba3-94f3-eea097e2ee66,5,339.1546,340.7523,space,1,0.2415,,0,5,5,21,1,V,space,,,,,,,,,,
,,,,,R_4rYE6BWOo41b5s7,001,2025-07-22_10h13.58.543,continuous_performance_test,2024.2.4,MacIntel,59.88023952,21d6dbd5-aae4-4ba3-94f3-eea097e2ee66,5,340.7536,342.4024,space,1,0.2758,,0,6,6,15,1,P,space,,,,,,,,,,
,,,,,R_4rYE6BWOo41b5s7,001,2025-07-22_10h13.58.543,continuous_performance_test,2024.2.4,MacIntel,59.88023952,21d6dbd5-aae4-4ba3-94f3-eea097e2ee66,5,342.4036,343.9536,space,0,0.2658,,0,7,7,26,1,X,,,,,,,,,,,
,,,,,R_4rYE6BWOo41b5s7,001,2025-07-22_10h13.58.543,continuous_performance_test,2024.2.4,MacIntel,59.88023952,21d6dbd5-aae4-4ba3-94f3-eea097e2ee66,5,343.955,345.8534,space,1,0.2987,,0,8,8,20,1,U,space,,,,,,,,,,
,,,,,R_4rYE6BWOo41b5s7,001,2025-07-22_10h13.58.543,continuous_performance_test,2024.2.4,MacIntel,59.88023952,21d6dbd5-aae4-4ba3-94f3-eea097e2ee66,5,345.8547,347.5034,space,1,0.3169,,0,9,9,8,1,I,space,,,,,,,,,,
,,,,,R_4rYE6BWOo41b5s7,001,2025-07-22_10h13.58.543,continuous_performance_test,2024.2.4,MacIntel,59.88023952,21d6dbd5-aae4-4ba3-94f3-eea097e2ee66,5,347.5045,349.5034,space,1,0.2662,,0,10,10,18,1,S,space,,,,,,,,,,
,,,,,R_4rYE6BWOo41b5s7,001,2025-07-22_10h13.58.543,continuous_performance_test,2024.2.4,MacIntel,59.88023952,21d6dbd5-aae4-4ba3-94f3-eea097e2ee66,5,349.5045,351.1035,space,1,0.2646,,0,11,11,22,1,W,space,,,,,,,,,,
,,,,,R_4rYE6BWOo41b5s7,001,2025-07-22_10h13.58.543,continuous_performance_test,2024.2.4,MacIntel,59.88023952,21d6dbd5-aae4-4ba3-94f3-eea097e2ee66,5,351.1047,352.8035,space,1,0.3582,,0,12,12,9,1,J,space,,,,,,,,,,
,,,,,R_4rYE6BWOo41b5s7,001,2025-07-22_10h13.58.543,continuous_performance_test,2024.2.4,MacIntel,59.88023952,21d6dbd5-aae4-4ba3-94f3-eea097e2ee66,5,352.8048,354.5033,space,1,0.3303,,0,13,13,13,1,N,space,,,,,,,,,,
,,,,,R_4rYE6BWOo41b5s7,001,2025-07-22_10h13.58.543,continuous_performance_test,2024.2.4,MacIntel,59.88023952,21d6dbd5-aae4-4ba3-94f3-eea097e2ee66,5,354.5045,356.2536,space,1,0.3001,,0,14,14,10,1,K,space,,,,,,,,,,
,,,,,R_4rYE6BWOo41b5s7,001,2025-07-22_10h13.58.543,continuous_performance_test,2024.2.4,MacIntel,59.88023952,21d6dbd5-aae4-4ba3-94f3-eea097e2ee66,5,356.2549,358.0026,space,1,0.2947,,0,15,15,5,1,F,space,,,,,,,,,,
,,,,,R_4rYE6BWOo41b5s7,001,2025-07-22_10h13.58.543,continuous_performance_test,2024.2.4,MacIntel,59.88023952,21d6dbd5-aae4-4ba3-94f3-eea097e2ee66,5,358.0038,360.0036,space,0,0.2659,,0,16,16,28,1,X,,,,,,,,,,,
,,,,,R_4rYE6BWOo41b5s7,001,2025-07-22_10h13.58.543,continuous_performance_test,2024.2.4,MacIntel,59.88023952,21d6dbd5-aae4-4ba3-94f3-eea097e2ee66,5,360.0049,362.0035,space,1,0.2342,,0,17,17,12,1,M,space,,,,,,,,,,
,,,,,R_4rYE6BWOo41b5s7,001,2025-07-22_10h13.58.543,continuous_performance_test,2024.2.4,MacIntel,59.88023952,21d6dbd5-aae4-4ba3-94f3-eea097e2ee66,5,362.0043,363.9038,space,1,0.2804,,0,18,18,0,1,A,space,,,,,,,,,,
,,,,,R_4rYE6BWOo41b5s7,001,2025-07-22_10h13.58.543,continuous_performance_test,2024.2.4,MacIntel,59.88023952,21d6dbd5-aae4-4ba3-94f3-eea097e2ee66,5,363.9051,365.9038,space,1,0.3939,,0,19,19,17,1,R,space,,,,,,,,,,
,,,,,R_4rYE6BWOo41b5s7,001,2025-07-22_10h13.58.543,continuous_performance_test,2024.2.4,MacIntel,59.88023952,21d6dbd5-aae4-4ba3-94f3-eea097e2ee66,5,365.9051,367.5537,space,0,0.2895,,0,20,20,27,1,X,,,,,,,,,,,
,,,,,R_4rYE6BWOo41b5s7,001,2025-07-22_10h13.58.543,continuous_performance_test,2024.2.4,MacIntel,59.88023952,21d6dbd5-aae4-4ba3-94f3-eea097e2ee66,5,367.5549,369.553,space,1,0.2934,,0,21,21,19,1,T,space,,,,,,,,,,
,,,,,R_4rYE6BWOo41b5s7,001,2025-07-22_10h13.58.543,continuous_performance_test,2024.2.4,MacIntel,59.88023952,21d6dbd5-aae4-4ba3-94f3-eea097e2ee66,5,369.5544,371.1039,space,1,0.3426,,0,22,22,24,1,Z,space,,,,,,,,,,
,,,,,R_4rYE6BWOo41b5s7,001,2025-07-22_10h13.58.543,continuous_performance_test,2024.2.4,MacIntel,59.88023952,21d6dbd5-aae4-4ba3-94f3-eea097e2ee66,5,371.1053,372.7539,space,1,0.2457,,0,23,23,4,1,E,space,,,,,,,,,,
,,,,,R_4rYE6BWOo41b5s7,001,2025-07-22_10h13.58.543,continuous_performance_test,2024.2.4,MacIntel,59.88023952,21d6dbd5-aae4-4ba3-94f3-eea097e2ee66,5,372.7551,374.5529,space,1,0.3653,,0,24,24,11,1,L,space,,,,,,,,,,
,,,,,R_4rYE6BWOo41b5s7,001,2025-07-22_10h13.58.543,continuous_performance_test,2024.2.4,MacIntel,59.88023952,21d6dbd5-aae4-4ba3-94f3-eea097e2ee66,5,374.5542,376.4038,space,1,0.3428,,0,25,25,1,1,B,space,,,,,,,,,,
,,,,,R_4rYE6BWOo41b5s7,001,2025-07-22_10h13.58.543,continuous_performance_test,2024.2.4,MacIntel,59.88023952,21d6dbd5-aae4-4ba3-94f3-eea097e2ee66,5,376.4049,378.1539,,1,,,0,26,26,29,1,X,,,,,,,,,,,
,,,,,R_4rYE6BWOo41b5s7,001,2025-07-22_10h13.58.543,continuous_performance_test,2024.2.4,MacIntel,59.88023952,21d6dbd5-aae4-4ba3-94f3-eea097e2ee66,5,378.1553,380.0039,space,1,0.41,,0,27,27,3,1,D,space,,,,,,,,,,
,,,,,R_4rYE6BWOo41b5s7,001,2025-07-22_10h13.58.543,continuous_performance_test,2024.2.4,MacIntel,59.88023952,21d6dbd5-aae4-4ba3-94f3-eea097e2ee66,5,380.0053,381.604,space,1,0.4276,,0,28,28,14,1,O,space,,,,,,,,,,
,,,,,R_4rYE6BWOo41b5s7,001,2025-07-22_10h13.58.543,continuous_performance_test,2024.2.4,MacIntel,59.88023952,21d6dbd5-aae4-4ba3-94f3-eea097e2ee66,5,381.6053,383.604,space,1,0.4446,,0,29,29,2,1,C,space,,,,,,,,,,
,,,,,R_4rYE6BWOo41b5s7,001,2025-07-22_10h13.58.543,continuous_performance_test,2024.2.4,MacIntel,59.88023952,21d6dbd5-aae4-4ba3-94f3-eea097e2ee66,5,391.1089,393.0041,space,0,0.3457,,0,0,0,25,1,X,,383.6053,391.1032,space,7.4798,,,,,,
,,,,,R_4rYE6BWOo41b5s7,001,2025-07-22_10h13.58.543,continuous_performance_test,2024.2.4,MacIntel,59.88023952,21d6dbd5-aae4-4ba3-94f3-eea097e2ee66,5,393.0056,394.8542,space,1,0.3071,,0,1,1,6,1,G,space,,,,,,,,,,
,,,,,R_4rYE6BWOo41b5s7,001,2025-07-22_10h13.58.543,continuous_performance_test,2024.2.4,MacIntel,59.88023952,21d6dbd5-aae4-4ba3-94f3-eea097e2ee66,5,394.8554,396.8042,space,1,0.3173,,0,2,2,20,1,U,space,,,,,,,,,,
,,,,,R_4rYE6BWOo41b5s7,001,2025-07-22_10h13.58.543,continuous_performance_test,2024.2.4,MacIntel,59.88023952,21d6dbd5-aae4-4ba3-94f3-eea097e2ee66,5,396.8055,398.3533,space,0,0.2926,,0,3,3,27,1,X,,,,,,,,,,,
,,,,,R_4rYE6BWOo41b5s7,001,2025-07-22_10h13.58.543,continuous_performance_test,2024.2.4,MacIntel,59.88023952,21d6dbd5-aae4-4ba3-94f3-eea097e2ee66,5,398.3544,400.0541,space,0,0.3173,,0,4,4,26,1,X,,,,,,,,,,,
,,,,,R_4rYE6BWOo41b5s7,001,2025-07-22_10h13.58.543,continuous_performance_test,2024.2.4,MacIntel,59.88023952,21d6dbd5-aae4-4ba3-94f3-eea097e2ee66,5,400.0549,401.6045,space,1,0.3028,,0,5,5,2,1,C,space,,,,,,,,,,
,,,,,R_4rYE6BWOo41b5s7,001,2025-07-22_10h13.58.543,continuous_performance_test,2024.2.4,MacIntel,59.88023952,21d6dbd5-aae4-4ba3-94f3-eea097e2ee66,5,401.6069,403.5533,space,1,0.2856,,0,6,6,0,1,A,space,,,,,,,,,,
,,,,,R_4rYE6BWOo41b5s7,001,2025-07-22_10h13.58.543,continuous_performance_test,2024.2.4,MacIntel,59.88023952,21d6dbd5-aae4-4ba3-94f3-eea097e2ee66,5,403.5541,405.1043,space,1,0.4303,,0,7,7,7,1,H,space,,,,,,,,,,
,,,,,R_4rYE6BWOo41b5s7,001,2025-07-22_10h13.58.543,continuous_performance_test,2024.2.4,MacIntel,59.88023952,21d6dbd5-aae4-4ba3-94f3-eea097e2ee66,5,405.106,406.9544,space,1,0.2594,,0,8,8,12,1,M,space,,,,,,,,,,
,,,,,R_4rYE6BWOo41b5s7,001,2025-07-22_10h13.58.543,continuous_performance_test,2024.2.4,MacIntel,59.88023952,21d6dbd5-aae4-4ba3-94f3-eea097e2ee66,5,406.9559,408.5044,space,1,0.4302,,0,9,9,5,1,F,space,,,,,,,,,,
,,,,,R_4rYE6BWOo41b5s7,001,2025-07-22_10h13.58.543,continuous_performance_test,2024.2.4,MacIntel,59.88023952,21d6dbd5-aae4-4ba3-94f3-eea097e2ee66,5,408.5058,410.3534,space,1,0.2915,,0,10,10,10,1,K,space,,,,,,,,,,
,,,,,R_4rYE6BWOo41b5s7,001,2025-07-22_10h13.58.543,continuous_performance_test,2024.2.4,MacIntel,59.88023952,21d6dbd5-aae4-4ba3-94f3-eea097e2ee66,5,410.355,412.1043,space,1,0.2991,,0,11,11,14,1,O,space,,,,,,,,,,
,,,,,R_4rYE6BWOo41b5s7,001,2025-07-22_10h13.58.543,continuous_performance_test,2024.2.4,MacIntel,59.88023952,21d6dbd5-aae4-4ba3-94f3-eea097e2ee66,5,412.1059,413.7545,space,1,0.3982,,0,12,12,22,1,W,space,,,,,,,,,,
,,,,,R_4rYE6BWOo41b5s7,001,2025-07-22_10h13.58.543,continuous_performance_test,2024.2.4,MacIntel,59.88023952,21d6dbd5-aae4-4ba3-94f3-eea097e2ee66,5,413.7558,415.5045,space,1,0.36,,0,13,13,4,1,E,space,,,,,,,,,,
,,,,,R_4rYE6BWOo41b5s7,001,2025-07-22_10h13.58.543,continuous_performance_test,2024.2.4,MacIntel,59.88023952,21d6dbd5-aae4-4ba3-94f3-eea097e2ee66,5,415.5058,417.1546,space,1,0.285,,0,14,14,21,1,V,space,,,,,,,,,,
,,,,,R_4rYE6BWOo41b5s7,001,2025-07-22_10h13.58.543,continuous_performance_test,2024.2.4,MacIntel,59.88023952,21d6dbd5-aae4-4ba3-94f3-eea097e2ee66,5,417.156,418.7045,space,1,0.3133,,0,15,15,11,1,L,space,,,,,,,,,,
,,,,,R_4rYE6BWOo41b5s7,001,2025-07-22_10h13.58.543,continuous_performance_test,2024.2.4,MacIntel,59.88023952,21d6dbd5-aae4-4ba3-94f3-eea097e2ee66,5,418.7056,420.3536,space,1,0.2804,,0,16,16,17,1,R,space,,,,,,,,,,
,,,,,R_4rYE6BWOo41b5s7,001,2025-07-22_10h13.58.543,continuous_performance_test,2024.2.4,MacIntel,59.88023952,21d6dbd5-aae4-4ba3-94f3-eea097e2ee66,5,420.3552,422.1546,space,1,0.2883,,0,17,17,18,1,S,space,,,,,,,,,,
,,,,,R_4rYE6BWOo41b5s7,001,2025-07-22_10h13.58.543,continuous_performance_test,2024.2.4,MacIntel,59.88023952,21d6dbd5-aae4-4ba3-94f3-eea097e2ee66,5,422.156,423.8546,space,0,0.2636,,0,18,18,28,1,X,,,,,,,,,,,
,,,,,R_4rYE6BWOo41b5s7,001,2025-07-22_10h13.58.543,continuous_performance_test,2024.2.4,MacIntel,59.88023952,21d6dbd5-aae4-4ba3-94f3-eea097e2ee66,5,423.8561,425.6547,space,1,0.2652,,0,19,19,1,1,B,space,,,,,,,,,,
,,,,,R_4rYE6BWOo41b5s7,001,2025-07-22_10h13.58.543,continuous_performance_test,2024.2.4,MacIntel,59.88023952,21d6dbd5-aae4-4ba3-94f3-eea097e2ee66,5,425.656,427.5546,space,1,0.2952,,0,20,20,24,1,Z,space,,,,,,,,,,
,,,,,R_4rYE6BWOo41b5s7,001,2025-07-22_10h13.58.543,continuous_performance_test,2024.2.4,MacIntel,59.88023952,21d6dbd5-aae4-4ba3-94f3-eea097e2ee66,5,427.5558,429.3048,space,1,0.4326,,0,21,21,9,1,J,space,,,,,,,,,,
,,,,,R_4rYE6BWOo41b5s7,001,2025-07-22_10h13.58.543,continuous_performance_test,2024.2.4,MacIntel,59.88023952,21d6dbd5-aae4-4ba3-94f3-eea097e2ee66,5,429.3061,431.0547,space,1,0.292,,0,22,22,8,1,I,space,,,,,,,,,,
,,,,,R_4rYE6BWOo41b5s7,001,2025-07-22_10h13.58.543,continuous_performance_test,2024.2.4,MacIntel,59.88023952,21d6dbd5-aae4-4ba3-94f3-eea097e2ee66,5,431.0561,432.6033,space,1,0.428,,0,23,23,15,1,P,space,,,,,,,,,,
,,,,,R_4rYE6BWOo41b5s7,001,2025-07-22_10h13.58.543,continuous_performance_test,2024.2.4,MacIntel,59.88023952,21d6dbd5-aae4-4ba3-94f3-eea097e2ee66,5,432.6041,434.4547,space,1,0.2989,,0,24,24,16,1,Q,space,,,,,,,,,,
,,,,,R_4rYE6BWOo41b5s7,001,2025-07-22_10h13.58.543,continuous_performance_test,2024.2.4,MacIntel,59.88023952,21d6dbd5-aae4-4ba3-94f3-eea097e2ee66,5,434.4561,436.1546,space,1,0.2844,,0,25,25,3,1,D,space,,,,,,,,,,
,,,,,R_4rYE6BWOo41b5s7,001,2025-07-22_10h13.58.543,continuous_performance_test,2024.2.4,MacIntel,59.88023952,21d6dbd5-aae4-4ba3-94f3-eea097e2ee66,5,436.1558,437.8048,space,1,0.2795,,0,26,26,23,1,Y,space,,,,,,,,,,
,,,,,R_4rYE6BWOo41b5s7,001,2025-07-22_10h13.58.543,continuous_performance_test,2024.2.4,MacIntel,59.88023952,21d6dbd5-aae4-4ba3-94f3-eea097e2ee66,5,437.8062,439.4538,space,0,0.2923,,0,27,27,29,1,X,,,,,,,,,,,
,,,,,R_4rYE6BWOo41b5s7,001,2025-07-22_10h13.58.543,continuous_performance_test,2024.2.4,MacIntel,59.88023952,21d6dbd5-aae4-4ba3-94f3-eea097e2ee66,5,439.4551,441.1539,space,1,0.3823,,0,28,28,13,1,N,space,,,,,,,,,,
,,,,,R_4rYE6BWOo41b5s7,001,2025-07-22_10h13.58.543,continuous_performance_test,2024.2.4,MacIntel,59.88023952,21d6dbd5-aae4-4ba3-94f3-eea097e2ee66,5,441.1555,443.005,space,1,0.2775,,0,29,29,19,1,T,space,,,,,,,,,,
,,,,,R_4rYE6BWOo41b5s7,001,2025-07-22_10h13.58.543,continuous_performance_test,2024.2.4,MacIntel,59.88023952,21d6dbd5-aae4-4ba3-94f3-eea097e2ee66,5,451.5436,453.1884,space,1,0.5126,,0,0,0,24,1,Z,space,443.0065,451.5384,space,8.5094,,,,,,
,,,,,R_4rYE6BWOo41b5s7,001,2025-07-22_10h13.58.543,continuous_performance_test,2024.2.4,MacIntel,59.88023952,21d6dbd5-aae4-4ba3-94f3-eea097e2ee66,5,453.1899,454.9884,space,0,0.3235,,0,1,1,27,1,X,,,,,,,,,,,
,,,,,R_4rYE6BWOo41b5s7,001,2025-07-22_10h13.58.543,continuous_performance_test,2024.2.4,MacIntel,59.88023952,21d6dbd5-aae4-4ba3-94f3-eea097e2ee66,5,454.9895,456.8385,space,0,0.3003,,0,2,2,25,1,X,,,,,,,,,,,
,,,,,R_4rYE6BWOo41b5s7,001,2025-07-22_10h13.58.543,continuous_performance_test,2024.2.4,MacIntel,59.88023952,21d6dbd5-aae4-4ba3-94f3-eea097e2ee66,5,456.8401,458.5385,space,1,0.3148,,0,3,3,8,1,I,space,,,,,,,,,,
,,,,,R_4rYE6BWOo41b5s7,001,2025-07-22_10h13.58.543,continuous_performance_test,2024.2.4,MacIntel,59.88023952,21d6dbd5-aae4-4ba3-94f3-eea097e2ee66,5,458.5398,460.0886,space,1,0.3309,,0,4,4,4,1,E,space,,,,,,,,,,
,,,,,R_4rYE6BWOo41b5s7,001,2025-07-22_10h13.58.543,continuous_performance_test,2024.2.4,MacIntel,59.88023952,21d6dbd5-aae4-4ba3-94f3-eea097e2ee66,5,460.09,462.0385,space,1,0.2805,,0,5,5,1,1,B,space,,,,,,,,,,
,,,,,R_4rYE6BWOo41b5s7,001,2025-07-22_10h13.58.543,continuous_performance_test,2024.2.4,MacIntel,59.88023952,21d6dbd5-aae4-4ba3-94f3-eea097e2ee66,5,462.0399,463.5887,,1,,,0,6,6,28,1,X,,,,,,,,,,,
,,,,,R_4rYE6BWOo41b5s7,001,2025-07-22_10h13.58.543,continuous_performance_test,2024.2.4,MacIntel,59.88023952,21d6dbd5-aae4-4ba3-94f3-eea097e2ee66,5,463.5901,465.3387,space,1,0.3468,,0,7,7,17,1,R,space,,,,,,,,,,
,,,,,R_4rYE6BWOo41b5s7,001,2025-07-22_10h13.58.543,continuous_performance_test,2024.2.4,MacIntel,59.88023952,21d6dbd5-aae4-4ba3-94f3-eea097e2ee66,5,465.3401,466.9887,space,1,0.3223,,0,8,8,3,1,D,space,,,,,,,,,,
,,,,,R_4rYE6BWOo41b5s7,001,2025-07-22_10h13.58.543,continuous_performance_test,2024.2.4,MacIntel,59.88023952,21d6dbd5-aae4-4ba3-94f3-eea097e2ee66,5,466.99,468.6887,space,1,0.3782,,0,9,9,13,1,N,space,,,,,,,,,,
,,,,,R_4rYE6BWOo41b5s7,001,2025-07-22_10h13.58.543,continuous_performance_test,2024.2.4,MacIntel,59.88023952,21d6dbd5-aae4-4ba3-94f3-eea097e2ee66,5,468.6897,470.5888,space,1,0.2922,,0,10,10,22,1,W,space,,,,,,,,,,
,,,,,R_4rYE6BWOo41b5s7,001,2025-07-22_10h13.58.543,continuous_performance_test,2024.2.4,MacIntel,59.88023952,21d6dbd5-aae4-4ba3-94f3-eea097e2ee66,5,470.5902,472.3887,space,1,0.2821,,0,11,11,18,1,S,space,,,,,,,,,,
,,,,,R_4rYE6BWOo41b5s7,001,2025-07-22_10h13.58.543,continuous_performance_test,2024.2.4,MacIntel,59.88023952,21d6dbd5-aae4-4ba3-94f3-eea097e2ee66,5,472.3902,474.2387,space,1,0.2971,,0,12,12,16,1,Q,space,,,,,,,,,,
,,,,,R_4rYE6BWOo41b5s7,001,2025-07-22_10h13.58.543,continuous_performance_test,2024.2.4,MacIntel,59.88023952,21d6dbd5-aae4-4ba3-94f3-eea097e2ee66,5,474.2398,475.8888,space,1,0.3295,,0,13,13,9,1,J,space,,,,,,,,,,
,,,,,R_4rYE6BWOo41b5s7,001,2025-07-22_10h13.58.543,continuous_performance_test,2024.2.4,MacIntel,59.88023952,21d6dbd5-aae4-4ba3-94f3-eea097e2ee66,5,475.8897,477.5389,space,1,0.2931,,0,14,14,14,1,O,space,,,,,,,,,,
,,,,,R_4rYE6BWOo41b5s7,001,2025-07-22_10h13.58.543,continuous_performance_test,2024.2.4,MacIntel,59.88023952,21d6dbd5-aae4-4ba3-94f3-eea097e2ee66,5,477.5401,479.189,space,1,0.3089,,0,15,15,15,1,P,space,,,,,,,,,,
,,,,,R_4rYE6BWOo41b5s7,001,2025-07-22_10h13.58.543,continuous_performance_test,2024.2.4,MacIntel,59.88023952,21d6dbd5-aae4-4ba3-94f3-eea097e2ee66,5,479.19,480.7391,space,1,0.297,,0,16,16,10,1,K,space,,,,,,,,,,
,,,,,R_4rYE6BWOo41b5s7,001,2025-07-22_10h13.58.543,continuous_performance_test,2024.2.4,MacIntel,59.88023952,21d6dbd5-aae4-4ba3-94f3-eea097e2ee66,5,480.7404,482.6389,space,1,0.1889,,0,17,17,2,1,C,space,,,,,,,,,,
,,,,,R_4rYE6BWOo41b5s7,001,2025-07-22_10h13.58.543,continuous_performance_test,2024.2.4,MacIntel,59.88023952,21d6dbd5-aae4-4ba3-94f3-eea097e2ee66,5,482.64,484.338,space,0,0.2808,,0,18,18,26,1,X,,,,,,,,,,,
,,,,,R_4rYE6BWOo41b5s7,001,2025-07-22_10h13.58.543,continuous_performance_test,2024.2.4,MacIntel,59.88023952,21d6dbd5-aae4-4ba3-94f3-eea097e2ee66,5,484.3397,485.9389,space,1,0.2804,,0,19,19,19,1,T,space,,,,,,,,,,
,,,,,R_4rYE6BWOo41b5s7,001,2025-07-22_10h13.58.543,continuous_performance_test,2024.2.4,MacIntel,59.88023952,21d6dbd5-aae4-4ba3-94f3-eea097e2ee66,5,485.9401,487.5384,space,1,0.4144,,0,20,20,5,1,F,space,,,,,,,,,,
,,,,,R_4rYE6BWOo41b5s7,001,2025-07-22_10h13.58.543,continuous_performance_test,2024.2.4,MacIntel,59.88023952,21d6dbd5-aae4-4ba3-94f3-eea097e2ee66,5,487.5398,489.089,space,1,0.38,,0,21,21,12,1,M,space,,,,,,,,,,
,,,,,R_4rYE6BWOo41b5s7,001,2025-07-22_10h13.58.543,continuous_performance_test,2024.2.4,MacIntel,59.88023952,21d6dbd5-aae4-4ba3-94f3-eea097e2ee66,5,489.0902,490.6389,space,1,0.2831,,0,22,22,6,1,G,space,,,,,,,,,,
,,,,,R_4rYE6BWOo41b5s7,001,2025-07-22_10h13.58.543,continuous_performance_test,2024.2.4,MacIntel,59.88023952,21d6dbd5-aae4-4ba3-94f3-eea097e2ee66,5,490.6396,492.2381,space,1,0.298,,0,23,23,20,1,U,space,,,,,,,,,,
,,,,,R_4rYE6BWOo41b5s7,001,2025-07-22_10h13.58.543,continuous_performance_test,2024.2.4,MacIntel,59.88023952,21d6dbd5-aae4-4ba3-94f3-eea097e2ee66,5,492.2392,494.0392,space,1,0.3416,,0,24,24,7,1,H,space,,,,,,,,,,
,,,,,R_4rYE6BWOo41b5s7,001,2025-07-22_10h13.58.543,continuous_performance_test,2024.2.4,MacIntel,59.88023952,21d6dbd5-aae4-4ba3-94f3-eea097e2ee66,5,494.0403,495.7382,space,1,0.2987,,0,25,25,11,1,L,space,,,,,,,,,,
,,,,,R_4rYE6BWOo41b5s7,001,2025-07-22_10h13.58.543,continuous_performance_test,2024.2.4,MacIntel,59.88023952,21d6dbd5-aae4-4ba3-94f3-eea097e2ee66,5,495.7396,497.3392,space,0,0.2983,,0,26,26,29,1,X,,,,,,,,,,,
,,,,,R_4rYE6BWOo41b5s7,001,2025-07-22_10h13.58.543,continuous_performance_test,2024.2.4,MacIntel,59.88023952,21d6dbd5-aae4-4ba3-94f3-eea097e2ee66,5,497.3404,499.2392,space,1,0.2972,,0,27,27,23,1,Y,space,,,,,,,,,,
,,,,,R_4rYE6BWOo41b5s7,001,2025-07-22_10h13.58.543,continuous_performance_test,2024.2.4,MacIntel,59.88023952,21d6dbd5-aae4-4ba3-94f3-eea097e2ee66,5,499.2402,500.8387,space,1,0.332,,0,28,28,0,1,A,space,,,,,,,,,,
,,,,,R_4rYE6BWOo41b5s7,001,2025-07-22_10h13.58.543,continuous_performance_test,2024.2.4,MacIntel,59.88023952,21d6dbd5-aae4-4ba3-94f3-eea097e2ee66,5,500.8398,502.8391,space,1,0.3946,,0,29,29,21,1,V,space,,,,,,,,,,
,,,,,R_4rYE6BWOo41b5s7,001,2025-07-22_10h13.58.543,continuous_performance_test,2024.2.4,MacIntel,59.88023952,21d6dbd5-aae4-4ba3-94f3-eea097e2ee66,5,514.9802,516.7219,space,1,0.4472,,0,0,0,19,1,T,space,502.8399,514.9722,space,12.1134,,,,,,
,,,,,R_4rYE6BWOo41b5s7,001,2025-07-22_10h13.58.543,continuous_performance_test,2024.2.4,MacIntel,59.88023952,21d6dbd5-aae4-4ba3-94f3-eea097e2ee66,5,516.7231,518.3231,space,1,0.2927,,0,1,1,22,1,W,space,,,,,,,,,,
,,,,,R_4rYE6BWOo41b5s7,001,2025-07-22_10h13.58.543,continuous_performance_test,2024.2.4,MacIntel,59.88023952,21d6dbd5-aae4-4ba3-94f3-eea097e2ee66,5,518.3246,519.8719,space,0,0.2777,,0,2,2,28,1,X,,,,,,,,,,,
,,,,,R_4rYE6BWOo41b5s7,001,2025-07-22_10h13.58.543,continuous_performance_test,2024.2.4,MacIntel,59.88023952,21d6dbd5-aae4-4ba3-94f3-eea097e2ee66,5,519.8731,521.7729,space,1,0.2487,,0,3,3,10,1,K,space,,,,,,,,,,
,,,,,R_4rYE6BWOo41b5s7,001,2025-07-22_10h13.58.543,continuous_performance_test,2024.2.4,MacIntel,59.88023952,21d6dbd5-aae4-4ba3-94f3-eea097e2ee66,5,521.7739,523.673,space,1,0.2814,,0,4,4,8,1,I,space,,,,,,,,,,
,,,,,R_4rYE6BWOo41b5s7,001,2025-07-22_10h13.58.543,continuous_performance_test,2024.2.4,MacIntel,59.88023952,21d6dbd5-aae4-4ba3-94f3-eea097e2ee66,5,523.6742,525.572,space,1,0.2821,,0,5,5,4,1,E,space,,,,,,,,,,
,,,,,R_4rYE6BWOo41b5s7,001,2025-07-22_10h13.58.543,continuous_performance_test,2024.2.4,MacIntel,59.88023952,21d6dbd5-aae4-4ba3-94f3-eea097e2ee66,5,525.5731,527.272,space,0,0.3068,,0,6,6,27,1,X,,,,,,,,,,,
,,,,,R_4rYE6BWOo41b5s7,001,2025-07-22_10h13.58.543,continuous_performance_test,2024.2.4,MacIntel,59.88023952,21d6dbd5-aae4-4ba3-94f3-eea097e2ee66,5,527.2731,529.0221,space,1,0.2658,,0,7,7,9,1,J,space,,,,,,,,,,
,,,,,R_4rYE6BWOo41b5s7,001,2025-07-22_10h13.58.543,continuous_performance_test,2024.2.4,MacIntel,59.88023952,21d6dbd5-aae4-4ba3-94f3-eea097e2ee66,5,529.0233,530.9731,space,1,0.2659,,0,8,8,18,1,S,space,,,,,,,,,,
,,,,,R_4rYE6BWOo41b5s7,001,2025-07-22_10h13.58.543,continuous_performance_test,2024.2.4,MacIntel,59.88023952,21d6dbd5-aae4-4ba3-94f3-eea097e2ee66,5,530.9742,532.6225,space,1,0.2963,,0,9,9,5,1,F,space,,,,,,,,,,
,,,,,R_4rYE6BWOo41b5s7,001,2025-07-22_10h13.58.543,continuous_performance_test,2024.2.4,MacIntel,59.88023952,21d6dbd5-aae4-4ba3-94f3-eea097e2ee66,5,532.6236,534.4732,space,1,0.2659,,0,10,10,16,1,Q,space,,,,,,,,,,
,,,,,R_4rYE6BWOo41b5s7,001,2025-07-22_10h13.58.543,continuous_performance_test,2024.2.4,MacIntel,59.88023952,21d6dbd5-aae4-4ba3-94f3-eea097e2ee66,5,534.4743,536.4729,space,1,0.2425,,0,11,11,20,1,U,space,,,,,,,,,,
,,,,,R_4rYE6BWOo41b5s7,001,2025-07-22_10h13.58.543,continuous_performance_test,2024.2.4,MacIntel,59.88023952,21d6dbd5-aae4-4ba3-94f3-eea097e2ee66,5,536.4739,538.0732,space,1,0.3572,,0,12,12,15,1,P,space,,,,,,,,,,
,,,,,R_4rYE6BWOo41b5s7,001,2025-07-22_10h13.58.543,continuous_performance_test,2024.2.4,MacIntel,59.88023952,21d6dbd5-aae4-4ba3-94f3-eea097e2ee66,5,538.0743,539.6233,space,1,0.2737,,0,13,13,2,1,C,space,,,,,,,,,,
,,,,,R_4rYE6BWOo41b5s7,001,2025-07-22_10h13.58.543,continuous_performance_test,2024.2.4,MacIntel,59.88023952,21d6dbd5-aae4-4ba3-94f3-eea097e2ee66,5,539.6246,541.1723,space,1,0.263,,0,14,14,7,1,H,space,,,,,,,,,,
,,,,,R_4rYE6BWOo41b5s7,001,2025-07-22_10h13.58.543,continuous_performance_test,2024.2.4,MacIntel,59.88023952,21d6dbd5-aae4-4ba3-94f3-eea097e2ee66,5,541.173,542.9733,space,1,0.2636,,0,15,15,0,1,A,space,,,,,,,,,,
,,,,,R_4rYE6BWOo41b5s7,001,2025-07-22_10h13.58.543,continuous_performance_test,2024.2.4,MacIntel,59.88023952,21d6dbd5-aae4-4ba3-94f3-eea097e2ee66,5,542.9746,544.6233,space,1,0.2941,,0,16,16,3,1,D,space,,,,,,,,,,
,,,,,R_4rYE6BWOo41b5s7,001,2025-07-22_10h13.58.543,continuous_performance_test,2024.2.4,MacIntel,59.88023952,21d6dbd5-aae4-4ba3-94f3-eea097e2ee66,5,544.6245,546.5234,space,1,0.4928,,0,17,17,14,1,O,space,,,,,,,,,,
,,,,,R_4rYE6BWOo41b5s7,001,2025-07-22_10h13.58.543,continuous_performance_test,2024.2.4,MacIntel,59.88023952,21d6dbd5-aae4-4ba3-94f3-eea097e2ee66,5,546.5246,548.4725,space,1,0.3004,,0,18,18,24,1,Z,space,,,,,,,,,,
,,,,,R_4rYE6BWOo41b5s7,001,2025-07-22_10h13.58.543,continuous_performance_test,2024.2.4,MacIntel,59.88023952,21d6dbd5-aae4-4ba3-94f3-eea097e2ee66,5,548.4737,550.0734,space,0,0.3441,,0,19,19,25,1,X,,,,,,,,,,,
,,,,,R_4rYE6BWOo41b5s7,001,2025-07-22_10h13.58.543,continuous_performance_test,2024.2.4,MacIntel,59.88023952,21d6dbd5-aae4-4ba3-94f3-eea097e2ee66,5,550.0743,551.9734,space,0,0.305,,0,20,20,26,1,X,,,,,,,,,,,
,,,,,R_4rYE6BWOo41b5s7,001,2025-07-22_10h13.58.543,continuous_performance_test,2024.2.4,MacIntel,59.88023952,21d6dbd5-aae4-4ba3-94f3-eea097e2ee66,5,551.9746,553.5733,space,1,0.4611,,0,21,21,12,1,M,space,,,,,,,,,,
,,,,,R_4rYE6BWOo41b5s7,001,2025-07-22_10h13.58.543,continuous_performance_test,2024.2.4,MacIntel,59.88023952,21d6dbd5-aae4-4ba3-94f3-eea097e2ee66,5,553.5741,555.3236,space,1,0.2933,,0,22,22,23,1,Y,space,,,,,,,,,,
,,,,,R_4rYE6BWOo41b5s7,001,2025-07-22_10h13.58.543,continuous_performance_test,2024.2.4,MacIntel,59.88023952,21d6dbd5-aae4-4ba3-94f3-eea097e2ee66,5,555.3248,557.2236,space,1,0.2372,,0,23,23,1,1,B,space,,,,,,,,,,
,,,,,R_4rYE6BWOo41b5s7,001,2025-07-22_10h13.58.543,continuous_performance_test,2024.2.4,MacIntel,59.88023952,21d6dbd5-aae4-4ba3-94f3-eea097e2ee66,5,557.2248,559.0735,space,1,0.281,,0,24,24,11,1,L,space,,,,,,,,,,
,,,,,R_4rYE6BWOo41b5s7,001,2025-07-22_10h13.58.543,continuous_performance_test,2024.2.4,MacIntel,59.88023952,21d6dbd5-aae4-4ba3-94f3-eea097e2ee66,5,559.0748,560.8227,space,1,0.2814,,0,25,25,21,1,V,space,,,,,,,,,,
,,,,,R_4rYE6BWOo41b5s7,001,2025-07-22_10h13.58.543,continuous_performance_test,2024.2.4,MacIntel,59.88023952,21d6dbd5-aae4-4ba3-94f3-eea097e2ee66,5,560.8239,562.5726,space,1,0.2802,,0,26,26,6,1,G,space,,,,,,,,,,
,,,,,R_4rYE6BWOo41b5s7,001,2025-07-22_10h13.58.543,continuous_performance_test,2024.2.4,MacIntel,59.88023952,21d6dbd5-aae4-4ba3-94f3-eea097e2ee66,5,562.574,564.1736,space,0,0.192,,0,27,27,29,1,X,,,,,,,,,,,
,,,,,R_4rYE6BWOo41b5s7,001,2025-07-22_10h13.58.543,continuous_performance_test,2024.2.4,MacIntel,59.88023952,21d6dbd5-aae4-4ba3-94f3-eea097e2ee66,5,564.1747,565.9238,space,1,0.1117,,0,28,28,13,1,N,space,,,,,,,,,,
,,,,,R_4rYE6BWOo41b5s7,001,2025-07-22_10h13.58.543,continuous_performance_test,2024.2.4,MacIntel,59.88023952,21d6dbd5-aae4-4ba3-94f3-eea097e2ee66,5,565.9254,567.8727,space,1,0.295,,0,29,29,17,1,R,space,,,,,,,,,,
,,,,,R_4rYE6BWOo41b5s7,001,2025-07-22_10h13.58.543,continuous_performance_test,2024.2.4,MacIntel,59.88023952,21d6dbd5-aae4-4ba3-94f3-eea097e2ee66,5,582.8818,584.774,space,0,0.315,,0,0,0,29,1,X,,567.8737,582.874,,,,,,,,
,,,,,R_4rYE6BWOo41b5s7,001,2025-07-22_10h13.58.543,continuous_performance_test,2024.2.4,MacIntel,59.88023952,21d6dbd5-aae4-4ba3-94f3-eea097e2ee66,5,584.7755,586.6231,space,1,0.3107,,0,1,1,5,1,F,space,,,,,,,,,,
,,,,,R_4rYE6BWOo41b5s7,001,2025-07-22_10h13.58.543,continuous_performance_test,2024.2.4,MacIntel,59.88023952,21d6dbd5-aae4-4ba3-94f3-eea097e2ee66,5,586.6244,588.624,space,1,0.2972,,0,2,2,15,1,P,space,,,,,,,,,,
,,,,,R_4rYE6BWOo41b5s7,001,2025-07-22_10h13.58.543,continuous_performance_test,2024.2.4,MacIntel,59.88023952,21d6dbd5-aae4-4ba3-94f3-eea097e2ee66,5,588.6252,590.2741,space,0,0.2817,,0,3,3,28,1,X,,,,,,,,,,,
,,,,,R_4rYE6BWOo41b5s7,001,2025-07-22_10h13.58.543,continuous_performance_test,2024.2.4,MacIntel,59.88023952,21d6dbd5-aae4-4ba3-94f3-eea097e2ee66,5,590.2753,592.074,space,1,0.2476,,0,4,4,10,1,K,space,,,,,,,,,,
,,,,,R_4rYE6BWOo41b5s7,001,2025-07-22_10h13.58.543,continuous_performance_test,2024.2.4,MacIntel,59.88023952,21d6dbd5-aae4-4ba3-94f3-eea097e2ee66,5,592.0752,594.0231,space,1,0.233,,0,5,5,20,1,U,space,,,,,,,,,,
,,,,,R_4rYE6BWOo41b5s7,001,2025-07-22_10h13.58.543,continuous_performance_test,2024.2.4,MacIntel,59.88023952,21d6dbd5-aae4-4ba3-94f3-eea097e2ee66,5,594.0244,595.8733,space,1,0.2808,,0,6,6,18,1,S,space,,,,,,,,,,
,,,,,R_4rYE6BWOo41b5s7,001,2025-07-22_10h13.58.543,continuous_performance_test,2024.2.4,MacIntel,59.88023952,21d6dbd5-aae4-4ba3-94f3-eea097e2ee66,5,595.8746,597.8234,space,1,0.15,,0,7,7,12,1,M,space,,,,,,,,,,
,,,,,R_4rYE6BWOo41b5s7,001,2025-07-22_10h13.58.543,continuous_performance_test,2024.2.4,MacIntel,59.88023952,21d6dbd5-aae4-4ba3-94f3-eea097e2ee66,5,597.8246,599.6231,space,1,0.3483,,0,8,8,7,1,H,space,,,,,,,,,,
,,,,,R_4rYE6BWOo41b5s7,001,2025-07-22_10h13.58.543,continuous_performance_test,2024.2.4,MacIntel,59.88023952,21d6dbd5-aae4-4ba3-94f3-eea097e2ee66,5,599.6243,601.1732,space,0,0.2968,,0,9,9,26,1,X,,,,,,,,,,,
,,,,,R_4rYE6BWOo41b5s7,001,2025-07-22_10h13.58.543,continuous_performance_test,2024.2.4,MacIntel,59.88023952,21d6dbd5-aae4-4ba3-94f3-eea097e2ee66,5,601.1743,603.0742,space,1,0.2929,,0,10,10,19,1,T,space,,,,,,,,,,
,,,,,R_4rYE6BWOo41b5s7,001,2025-07-22_10h13.58.543,continuous_performance_test,2024.2.4,MacIntel,59.88023952,21d6dbd5-aae4-4ba3-94f3-eea097e2ee66,5,603.0755,604.7732,space,1,0.2961,,0,11,11,24,1,Z,space,,,,,,,,,,
,,,,,R_4rYE6BWOo41b5s7,001,2025-07-22_10h13.58.543,continuous_performance_test,2024.2.4,MacIntel,59.88023952,21d6dbd5-aae4-4ba3-94f3-eea097e2ee66,5,604.7745,606.6239,space,0,0.3136,,0,12,12,25,1,X,,,,,,,,,,,
,,,,,R_4rYE6BWOo41b5s7,001,2025-07-22_10h13.58.543,continuous_performance_test,2024.2.4,MacIntel,59.88023952,21d6dbd5-aae4-4ba3-94f3-eea097e2ee66,5,606.625,608.5234,space,1,0.2932,,0,13,13,14,1,O,space,,,,,,,,,,
,,,,,R_4rYE6BWOo41b5s7,001,2025-07-22_10h13.58.543,continuous_performance_test,2024.2.4,MacIntel,59.88023952,21d6dbd5-aae4-4ba3-94f3-eea097e2ee66,5,608.5249,610.3734,space,1,0.281,,0,14,14,13,1,N,space,,,,,,,,,,
,,,,,R_4rYE6BWOo41b5s7,001,2025-07-22_10h13.58.543,continuous_performance_test,2024.2.4,MacIntel,59.88023952,21d6dbd5-aae4-4ba3-94f3-eea097e2ee66,5,610.3748,612.3245,space,1,0.3138,,0,15,15,17,1,R,space,,,,,,,,,,
,,,,,R_4rYE6BWOo41b5s7,001,2025-07-22_10h13.58.543,continuous_performance_test,2024.2.4,MacIntel,59.88023952,21d6dbd5-aae4-4ba3-94f3-eea097e2ee66,5,612.326,614.324,space,1,0.1322,,0,16,16,23,1,Y,space,,,,,,,,,,
,,,,,R_4rYE6BWOo41b5s7,001,2025-07-22_10h13.58.543,continuous_performance_test,2024.2.4,MacIntel,59.88023952,21d6dbd5-aae4-4ba3-94f3-eea097e2ee66,5,614.3254,615.9745,space,1,0.3108,,0,17,17,0,1,A,space,,,,,,,,,,
,,,,,R_4rYE6BWOo41b5s7,001,2025-07-22_10h13.58.543,continuous_performance_test,2024.2.4,MacIntel,59.88023952,21d6dbd5-aae4-4ba3-94f3-eea097e2ee66,5,615.976,617.673,space,1,0.2811,,0,18,18,16,1,Q,space,,,,,,,,,,
,,,,,R_4rYE6BWOo41b5s7,001,2025-07-22_10h13.58.543,continuous_performance_test,2024.2.4,MacIntel,59.88023952,21d6dbd5-aae4-4ba3-94f3-eea097e2ee66,5,617.6736,619.6745,space,1,0.2808,,0,19,19,21,1,V,space,,,,,,,,,,
,,,,,R_4rYE6BWOo41b5s7,001,2025-07-22_10h13.58.543,continuous_performance_test,2024.2.4,MacIntel,59.88023952,21d6dbd5-aae4-4ba3-94f3-eea097e2ee66,5,619.6755,621.3745,space,1,0.3309,,0,20,20,2,1,C,space,,,,,,,,,,
,,,,,R_4rYE6BWOo41b5s7,001,2025-07-22_10h13.58.543,continuous_performance_test,2024.2.4,MacIntel,59.88023952,21d6dbd5-aae4-4ba3-94f3-eea097e2ee66,5,621.3755,623.3245,space,1,0.2832,,0,21,21,22,1,W,space,,,,,,,,,,
,,,,,R_4rYE6BWOo41b5s7,001,2025-07-22_10h13.58.543,continuous_performance_test,2024.2.4,MacIntel,59.88023952,21d6dbd5-aae4-4ba3-94f3-eea097e2ee66,5,623.3255,624.9746,space,1,0.2799,,0,22,22,6,1,G,space,,,,,,,,,,
,,,,,R_4rYE6BWOo41b5s7,001,2025-07-22_10h13.58.543,continuous_performance_test,2024.2.4,MacIntel,59.88023952,21d6dbd5-aae4-4ba3-94f3-eea097e2ee66,5,624.976,626.7746,space,1,0.316,,0,23,23,4,1,E,space,,,,,,,,,,
,,,,,R_4rYE6BWOo41b5s7,001,2025-07-22_10h13.58.543,continuous_performance_test,2024.2.4,MacIntel,59.88023952,21d6dbd5-aae4-4ba3-94f3-eea097e2ee66,5,626.7758,628.7741,space,1,0.2598,,0,24,24,8,1,I,space,,,,,,,,,,
,,,,,R_4rYE6BWOo41b5s7,001,2025-07-22_10h13.58.543,continuous_performance_test,2024.2.4,MacIntel,59.88023952,21d6dbd5-aae4-4ba3-94f3-eea097e2ee66,5,628.7754,630.7745,space,1,0.2984,,0,25,25,1,1,B,space,,,,,,,,,,
,,,,,R_4rYE6BWOo41b5s7,001,2025-07-22_10h13.58.543,continuous_performance_test,2024.2.4,MacIntel,59.88023952,21d6dbd5-aae4-4ba3-94f3-eea097e2ee66,5,630.7755,632.6746,space,1,0.2563,,0,26,26,3,1,D,space,,,,,,,,,,
,,,,,R_4rYE6BWOo41b5s7,001,2025-07-22_10h13.58.543,continuous_performance_test,2024.2.4,MacIntel,59.88023952,21d6dbd5-aae4-4ba3-94f3-eea097e2ee66,5,632.6758,634.2746,space,0,0.2918,,0,27,27,27,1,X,,,,,,,,,,,
,,,,,R_4rYE6BWOo41b5s7,001,2025-07-22_10h13.58.543,continuous_performance_test,2024.2.4,MacIntel,59.88023952,21d6dbd5-aae4-4ba3-94f3-eea097e2ee66,5,634.2762,636.0747,space,1,0.4158,,0,28,28,9,1,J,space,,,,,,,,,,
,,,,,R_4rYE6BWOo41b5s7,001,2025-07-22_10h13.58.543,continuous_performance_test,2024.2.4,MacIntel,59.88023952,21d6dbd5-aae4-4ba3-94f3-eea097e2ee66,5,636.0759,638.0237,space,1,0.3451,,0,29,29,11,1,L,space,,,,,,,,,,
,,,,,R_4rYE6BWOo41b5s7,001,2025-07-22_10h13.58.543,continuous_performance_test,2024.2.4,MacIntel,59.88023952,21d6dbd5-aae4-4ba3-94f3-eea097e2ee66,5,,,,,,,,,,,,,,638.0248,638.0255,,,,638.0258,644.9752,space,6.928,
