Instructions.started,Instructions.stopped,key_resp.keys,key_resp.rt,key_resp.duration,participant,session,date,expName,psychopyVersion,OS,frameRate,realeye-tester-id,realeye-tester-quality_grade,Trial_noX.started,Trial_noX.stopped,response.keys,response.corr,response.rt,response.duration,trials_noX.thisRepN,trials_noX.thisTrialN,trials_noX.thisN,trials_noX.thisIndex,trials_noX.ran,letter,corrAns,BlockBreak.started,BlockBreak.stopped,key_instruct.keys,key_instruct.rt,key_instruct.duration,End_NoX.started,End_NoX.stopped,key_resp_end_noX.keys,key_resp_end_noX.rt,key_resp_end_noX.duration
0,11.05,space,11.02,,R_4s2NXCnJQiUFP9v,001,2025-08-05_08h45.10.636,continuous_performance_test,2024.2.4,MacIntel,62.5,b29cd7b0-b5a8-4253-b680-db61f4bede97,5,,,,,,,,,,,,,,,,,,,,,,,
,,,,,R_4s2NXCnJQiUFP9v,001,2025-08-05_08h45.10.636,continuous_performance_test,2024.2.4,MacIntel,62.5,b29cd7b0-b5a8-4253-b680-db61f4bede97,5,11.075,12.668,space,1,0.461,,0,0,0,11,1,L,space,,,,,,,,,,
,,,,,R_4s2NXCnJQiUFP9v,001,2025-08-05_08h45.10.636,continuous_performance_test,2024.2.4,MacIntel,62.5,b29cd7b0-b5a8-4253-b680-db61f4bede97,5,12.67,14.366,,1,,,0,1,1,29,1,X,,,,,,,,,,,
,,,,,R_4s2NXCnJQiUFP9v,001,2025-08-05_08h45.10.636,continuous_performance_test,2024.2.4,MacIntel,62.5,b29cd7b0-b5a8-4253-b680-db61f4bede97,5,14.369,16.266,space,1,0.298,,0,2,2,21,1,V,space,,,,,,,,,,
,,,,,R_4s2NXCnJQiUFP9v,001,2025-08-05_08h45.10.636,continuous_performance_test,2024.2.4,MacIntel,62.5,b29cd7b0-b5a8-4253-b680-db61f4bede97,5,16.269,18.266,space,1,0.334,,0,3,3,9,1,J,space,,,,,,,,,,
,,,,,R_4s2NXCnJQiUFP9v,001,2025-08-05_08h45.10.636,continuous_performance_test,2024.2.4,MacIntel,62.5,b29cd7b0-b5a8-4253-b680-db61f4bede97,5,18.269,20.216,space,1,0.298,,0,4,4,17,1,R,space,,,,,,,,,,
,,,,,R_4s2NXCnJQiUFP9v,001,2025-08-05_08h45.10.636,continuous_performance_test,2024.2.4,MacIntel,62.5,b29cd7b0-b5a8-4253-b680-db61f4bede97,5,20.219,21.966,space,1,0.297,,0,5,5,1,1,B,space,,,,,,,,,,
,,,,,R_4s2NXCnJQiUFP9v,001,2025-08-05_08h45.10.636,continuous_performance_test,2024.2.4,MacIntel,62.5,b29cd7b0-b5a8-4253-b680-db61f4bede97,5,21.969,23.816,space,1,0.307,,0,6,6,3,1,D,space,,,,,,,,,,
,,,,,R_4s2NXCnJQiUFP9v,001,2025-08-05_08h45.10.636,continuous_performance_test,2024.2.4,MacIntel,62.5,b29cd7b0-b5a8-4253-b680-db61f4bede97,5,23.819,25.567,space,0,0.365,,0,7,7,27,1,X,,,,,,,,,,,
,,,,,R_4s2NXCnJQiUFP9v,001,2025-08-05_08h45.10.636,continuous_performance_test,2024.2.4,MacIntel,62.5,b29cd7b0-b5a8-4253-b680-db61f4bede97,5,25.568,27.266,,1,,,0,8,8,28,1,X,,,,,,,,,,,
,,,,,R_4s2NXCnJQiUFP9v,001,2025-08-05_08h45.10.636,continuous_performance_test,2024.2.4,MacIntel,62.5,b29cd7b0-b5a8-4253-b680-db61f4bede97,5,27.269,28.916,space,1,0.414,,0,9,9,24,1,Z,space,,,,,,,,,,
,,,,,R_4s2NXCnJQiUFP9v,001,2025-08-05_08h45.10.636,continuous_performance_test,2024.2.4,MacIntel,62.5,b29cd7b0-b5a8-4253-b680-db61f4bede97,5,28.918,30.716,space,1,0.347,,0,10,10,12,1,M,space,,,,,,,,,,
,,,,,R_4s2NXCnJQiUFP9v,001,2025-08-05_08h45.10.636,continuous_performance_test,2024.2.4,MacIntel,62.5,b29cd7b0-b5a8-4253-b680-db61f4bede97,5,30.719,32.516,space,0,0.354,,0,11,11,26,1,X,,,,,,,,,,,
,,,,,R_4s2NXCnJQiUFP9v,001,2025-08-05_08h45.10.636,continuous_performance_test,2024.2.4,MacIntel,62.5,b29cd7b0-b5a8-4253-b680-db61f4bede97,5,32.518,34.116,space,1,0.564,,0,12,12,0,1,A,space,,,,,,,,,,
,,,,,R_4s2NXCnJQiUFP9v,001,2025-08-05_08h45.10.636,continuous_performance_test,2024.2.4,MacIntel,62.5,b29cd7b0-b5a8-4253-b680-db61f4bede97,5,34.119,36.016,space,1,0.349,,0,13,13,10,1,K,space,,,,,,,,,,
,,,,,R_4s2NXCnJQiUFP9v,001,2025-08-05_08h45.10.636,continuous_performance_test,2024.2.4,MacIntel,62.5,b29cd7b0-b5a8-4253-b680-db61f4bede97,5,36.019,37.917,space,1,0.564,,0,14,14,5,1,F,space,,,,,,,,,,
,,,,,R_4s2NXCnJQiUFP9v,001,2025-08-05_08h45.10.636,continuous_performance_test,2024.2.4,MacIntel,62.5,b29cd7b0-b5a8-4253-b680-db61f4bede97,5,37.92,39.516,space,1,0.357,,0,15,15,20,1,U,space,,,,,,,,,,
,,,,,R_4s2NXCnJQiUFP9v,001,2025-08-05_08h45.10.636,continuous_performance_test,2024.2.4,MacIntel,62.5,b29cd7b0-b5a8-4253-b680-db61f4bede97,5,39.519,41.416,space,1,0.365,,0,16,16,19,1,T,space,,,,,,,,,,
,,,,,R_4s2NXCnJQiUFP9v,001,2025-08-05_08h45.10.636,continuous_performance_test,2024.2.4,MacIntel,62.5,b29cd7b0-b5a8-4253-b680-db61f4bede97,5,41.419,43.116,space,1,0.319,,0,17,17,13,1,N,space,,,,,,,,,,
,,,,,R_4s2NXCnJQiUFP9v,001,2025-08-05_08h45.10.636,continuous_performance_test,2024.2.4,MacIntel,62.5,b29cd7b0-b5a8-4253-b680-db61f4bede97,5,43.118,44.916,space,1,0.3,,0,18,18,8,1,I,space,,,,,,,,,,
,,,,,R_4s2NXCnJQiUFP9v,001,2025-08-05_08h45.10.636,continuous_performance_test,2024.2.4,MacIntel,62.5,b29cd7b0-b5a8-4253-b680-db61f4bede97,5,44.917,46.466,space,1,0.38,,0,19,19,16,1,Q,space,,,,,,,,,,
,,,,,R_4s2NXCnJQiUFP9v,001,2025-08-05_08h45.10.636,continuous_performance_test,2024.2.4,MacIntel,62.5,b29cd7b0-b5a8-4253-b680-db61f4bede97,5,46.468,48.116,space,1,0.302,,0,20,20,14,1,O,space,,,,,,,,,,
,,,,,R_4s2NXCnJQiUFP9v,001,2025-08-05_08h45.10.636,continuous_performance_test,2024.2.4,MacIntel,62.5,b29cd7b0-b5a8-4253-b680-db61f4bede97,5,48.119,49.666,space,1,0.303,,0,21,21,7,1,H,space,,,,,,,,,,
,,,,,R_4s2NXCnJQiUFP9v,001,2025-08-05_08h45.10.636,continuous_performance_test,2024.2.4,MacIntel,62.5,b29cd7b0-b5a8-4253-b680-db61f4bede97,5,49.669,51.466,space,1,0.263,,0,22,22,22,1,W,space,,,,,,,,,,
,,,,,R_4s2NXCnJQiUFP9v,001,2025-08-05_08h45.10.636,continuous_performance_test,2024.2.4,MacIntel,62.5,b29cd7b0-b5a8-4253-b680-db61f4bede97,5,51.469,53.266,space,1,0.288,,0,23,23,18,1,S,space,,,,,,,,,,
,,,,,R_4s2NXCnJQiUFP9v,001,2025-08-05_08h45.10.636,continuous_performance_test,2024.2.4,MacIntel,62.5,b29cd7b0-b5a8-4253-b680-db61f4bede97,5,53.269,55.016,space,1,0.281,,0,24,24,23,1,Y,space,,,,,,,,,,
,,,,,R_4s2NXCnJQiUFP9v,001,2025-08-05_08h45.10.636,continuous_performance_test,2024.2.4,MacIntel,62.5,b29cd7b0-b5a8-4253-b680-db61f4bede97,5,55.019,57.016,space,1,0.001,,0,25,25,15,1,P,space,,,,,,,,,,
,,,,,R_4s2NXCnJQiUFP9v,001,2025-08-05_08h45.10.636,continuous_performance_test,2024.2.4,MacIntel,62.5,b29cd7b0-b5a8-4253-b680-db61f4bede97,5,57.018,58.666,space,1,0.215,,0,26,26,6,1,G,space,,,,,,,,,,
,,,,,R_4s2NXCnJQiUFP9v,001,2025-08-05_08h45.10.636,continuous_performance_test,2024.2.4,MacIntel,62.5,b29cd7b0-b5a8-4253-b680-db61f4bede97,5,58.668,60.366,space,1,0.249,,0,27,27,2,1,C,space,,,,,,,,,,
,,,,,R_4s2NXCnJQiUFP9v,001,2025-08-05_08h45.10.636,continuous_performance_test,2024.2.4,MacIntel,62.5,b29cd7b0-b5a8-4253-b680-db61f4bede97,5,60.368,62.266,space,0,0.19,,0,28,28,25,1,X,,,,,,,,,,,
,,,,,R_4s2NXCnJQiUFP9v,001,2025-08-05_08h45.10.636,continuous_performance_test,2024.2.4,MacIntel,62.5,b29cd7b0-b5a8-4253-b680-db61f4bede97,5,62.268,64.066,space,1,0.405,,0,29,29,4,1,E,space,,,,,,,,,,
,,,,,R_4s2NXCnJQiUFP9v,001,2025-08-05_08h45.10.636,continuous_performance_test,2024.2.4,MacIntel,62.5,b29cd7b0-b5a8-4253-b680-db61f4bede97,5,74.699,76.599,space,0,0.365,,0,0,0,26,1,X,,64.072,74.684,space,10.581,,,,,,
,,,,,R_4s2NXCnJQiUFP9v,001,2025-08-05_08h45.10.636,continuous_performance_test,2024.2.4,MacIntel,62.5,b29cd7b0-b5a8-4253-b680-db61f4bede97,5,76.602,78.25,space,1,0.332,,0,1,1,12,1,M,space,,,,,,,,,,
,,,,,R_4s2NXCnJQiUFP9v,001,2025-08-05_08h45.10.636,continuous_performance_test,2024.2.4,MacIntel,62.5,b29cd7b0-b5a8-4253-b680-db61f4bede97,5,78.252,80.1,space,1,0.265,,0,2,2,14,1,O,space,,,,,,,,,,
,,,,,R_4s2NXCnJQiUFP9v,001,2025-08-05_08h45.10.636,continuous_performance_test,2024.2.4,MacIntel,62.5,b29cd7b0-b5a8-4253-b680-db61f4bede97,5,80.102,82.1,space,1,0.249,,0,3,3,8,1,I,space,,,,,,,,,,
,,,,,R_4s2NXCnJQiUFP9v,001,2025-08-05_08h45.10.636,continuous_performance_test,2024.2.4,MacIntel,62.5,b29cd7b0-b5a8-4253-b680-db61f4bede97,5,82.102,83.9,space,1,0.098,,0,4,4,16,1,Q,space,,,,,,,,,,
,,,,,R_4s2NXCnJQiUFP9v,001,2025-08-05_08h45.10.636,continuous_performance_test,2024.2.4,MacIntel,62.5,b29cd7b0-b5a8-4253-b680-db61f4bede97,5,83.901,85.75,space,1,0.298,,0,5,5,9,1,J,space,,,,,,,,,,
,,,,,R_4s2NXCnJQiUFP9v,001,2025-08-05_08h45.10.636,continuous_performance_test,2024.2.4,MacIntel,62.5,b29cd7b0-b5a8-4253-b680-db61f4bede97,5,85.752,87.75,space,1,0.297,,0,6,6,20,1,U,space,,,,,,,,,,
,,,,,R_4s2NXCnJQiUFP9v,001,2025-08-05_08h45.10.636,continuous_performance_test,2024.2.4,MacIntel,62.5,b29cd7b0-b5a8-4253-b680-db61f4bede97,5,87.752,89.599,space,1,0.358,,0,7,7,23,1,Y,space,,,,,,,,,,
,,,,,R_4s2NXCnJQiUFP9v,001,2025-08-05_08h45.10.636,continuous_performance_test,2024.2.4,MacIntel,62.5,b29cd7b0-b5a8-4253-b680-db61f4bede97,5,89.601,91.149,space,1,0.315,,0,8,8,1,1,B,space,,,,,,,,,,
,,,,,R_4s2NXCnJQiUFP9v,001,2025-08-05_08h45.10.636,continuous_performance_test,2024.2.4,MacIntel,62.5,b29cd7b0-b5a8-4253-b680-db61f4bede97,5,91.151,93.1,space,1,0.324,,0,9,9,4,1,E,space,,,,,,,,,,
,,,,,R_4s2NXCnJQiUFP9v,001,2025-08-05_08h45.10.636,continuous_performance_test,2024.2.4,MacIntel,62.5,b29cd7b0-b5a8-4253-b680-db61f4bede97,5,93.102,95.05,space,1,0.265,,0,10,10,18,1,S,space,,,,,,,,,,
,,,,,R_4s2NXCnJQiUFP9v,001,2025-08-05_08h45.10.636,continuous_performance_test,2024.2.4,MacIntel,62.5,b29cd7b0-b5a8-4253-b680-db61f4bede97,5,95.052,96.9,space,1,0.348,,0,11,11,6,1,G,space,,,,,,,,,,
,,,,,R_4s2NXCnJQiUFP9v,001,2025-08-05_08h45.10.636,continuous_performance_test,2024.2.4,MacIntel,62.5,b29cd7b0-b5a8-4253-b680-db61f4bede97,5,96.902,98.9,space,1,0.265,,0,12,12,19,1,T,space,,,,,,,,,,
,,,,,R_4s2NXCnJQiUFP9v,001,2025-08-05_08h45.10.636,continuous_performance_test,2024.2.4,MacIntel,62.5,b29cd7b0-b5a8-4253-b680-db61f4bede97,5,98.901,100.45,space,0,0.351,,0,13,13,28,1,X,,,,,,,,,,,
,,,,,R_4s2NXCnJQiUFP9v,001,2025-08-05_08h45.10.636,continuous_performance_test,2024.2.4,MacIntel,62.5,b29cd7b0-b5a8-4253-b680-db61f4bede97,5,100.452,102.15,space,1,0.305,,0,14,14,3,1,D,space,,,,,,,,,,
,,,,,R_4s2NXCnJQiUFP9v,001,2025-08-05_08h45.10.636,continuous_performance_test,2024.2.4,MacIntel,62.5,b29cd7b0-b5a8-4253-b680-db61f4bede97,5,102.152,104,space,1,0.301,,0,15,15,2,1,C,space,,,,,,,,,,
,,,,,R_4s2NXCnJQiUFP9v,001,2025-08-05_08h45.10.636,continuous_performance_test,2024.2.4,MacIntel,62.5,b29cd7b0-b5a8-4253-b680-db61f4bede97,5,104.002,105.799,space,1,0.281,,0,16,16,22,1,W,space,,,,,,,,,,
,,,,,R_4s2NXCnJQiUFP9v,001,2025-08-05_08h45.10.636,continuous_performance_test,2024.2.4,MacIntel,62.5,b29cd7b0-b5a8-4253-b680-db61f4bede97,5,105.801,107.6,space,1,0.265,,0,17,17,11,1,L,space,,,,,,,,,,
,,,,,R_4s2NXCnJQiUFP9v,001,2025-08-05_08h45.10.636,continuous_performance_test,2024.2.4,MacIntel,62.5,b29cd7b0-b5a8-4253-b680-db61f4bede97,5,107.603,109.15,space,1,0.355,,0,18,18,10,1,K,space,,,,,,,,,,
,,,,,R_4s2NXCnJQiUFP9v,001,2025-08-05_08h45.10.636,continuous_performance_test,2024.2.4,MacIntel,62.5,b29cd7b0-b5a8-4253-b680-db61f4bede97,5,109.152,111.15,space,1,0.288,,0,19,19,0,1,A,space,,,,,,,,,,
,,,,,R_4s2NXCnJQiUFP9v,001,2025-08-05_08h45.10.636,continuous_performance_test,2024.2.4,MacIntel,62.5,b29cd7b0-b5a8-4253-b680-db61f4bede97,5,111.152,113,space,1,0.267,,0,20,20,7,1,H,space,,,,,,,,,,
,,,,,R_4s2NXCnJQiUFP9v,001,2025-08-05_08h45.10.636,continuous_performance_test,2024.2.4,MacIntel,62.5,b29cd7b0-b5a8-4253-b680-db61f4bede97,5,113.002,115,space,1,0.272,,0,21,21,13,1,N,space,,,,,,,,,,
,,,,,R_4s2NXCnJQiUFP9v,001,2025-08-05_08h45.10.636,continuous_performance_test,2024.2.4,MacIntel,62.5,b29cd7b0-b5a8-4253-b680-db61f4bede97,5,115.002,116.75,space,0,0.281,,0,22,22,29,1,X,,,,,,,,,,,
,,,,,R_4s2NXCnJQiUFP9v,001,2025-08-05_08h45.10.636,continuous_performance_test,2024.2.4,MacIntel,62.5,b29cd7b0-b5a8-4253-b680-db61f4bede97,5,116.752,118.45,space,1,0.366,,0,23,23,15,1,P,space,,,,,,,,,,
,,,,,R_4s2NXCnJQiUFP9v,001,2025-08-05_08h45.10.636,continuous_performance_test,2024.2.4,MacIntel,62.5,b29cd7b0-b5a8-4253-b680-db61f4bede97,5,118.452,120.199,space,1,0.315,,0,24,24,21,1,V,space,,,,,,,,,,
,,,,,R_4s2NXCnJQiUFP9v,001,2025-08-05_08h45.10.636,continuous_performance_test,2024.2.4,MacIntel,62.5,b29cd7b0-b5a8-4253-b680-db61f4bede97,5,120.201,121.85,space,0,0.303,,0,25,25,27,1,X,,,,,,,,,,,
,,,,,R_4s2NXCnJQiUFP9v,001,2025-08-05_08h45.10.636,continuous_performance_test,2024.2.4,MacIntel,62.5,b29cd7b0-b5a8-4253-b680-db61f4bede97,5,121.851,123.75,,1,,,0,26,26,25,1,X,,,,,,,,,,,
,,,,,R_4s2NXCnJQiUFP9v,001,2025-08-05_08h45.10.636,continuous_performance_test,2024.2.4,MacIntel,62.5,b29cd7b0-b5a8-4253-b680-db61f4bede97,5,123.752,125.45,space,1,0.352,,0,27,27,5,1,F,space,,,,,,,,,,
,,,,,R_4s2NXCnJQiUFP9v,001,2025-08-05_08h45.10.636,continuous_performance_test,2024.2.4,MacIntel,62.5,b29cd7b0-b5a8-4253-b680-db61f4bede97,5,125.453,127.45,space,1,0.3,,0,28,28,24,1,Z,space,,,,,,,,,,
,,,,,R_4s2NXCnJQiUFP9v,001,2025-08-05_08h45.10.636,continuous_performance_test,2024.2.4,MacIntel,62.5,b29cd7b0-b5a8-4253-b680-db61f4bede97,5,127.452,129.399,space,1,0.384,,0,29,29,17,1,R,space,,,,,,,,,,
,,,,,R_4s2NXCnJQiUFP9v,001,2025-08-05_08h45.10.636,continuous_performance_test,2024.2.4,MacIntel,62.5,b29cd7b0-b5a8-4253-b680-db61f4bede97,5,144.413,146.15,space,1,0.782,,0,0,0,20,1,U,space,129.4,144.4,,,,,,,,
,,,,,R_4s2NXCnJQiUFP9v,001,2025-08-05_08h45.10.636,continuous_performance_test,2024.2.4,MacIntel,62.5,b29cd7b0-b5a8-4253-b680-db61f4bede97,5,146.152,148.05,space,1,0.349,,0,1,1,18,1,S,space,,,,,,,,,,
,,,,,R_4s2NXCnJQiUFP9v,001,2025-08-05_08h45.10.636,continuous_performance_test,2024.2.4,MacIntel,62.5,b29cd7b0-b5a8-4253-b680-db61f4bede97,5,148.052,149.95,space,0,0.272,,0,2,2,28,1,X,,,,,,,,,,,
,,,,,R_4s2NXCnJQiUFP9v,001,2025-08-05_08h45.10.636,continuous_performance_test,2024.2.4,MacIntel,62.5,b29cd7b0-b5a8-4253-b680-db61f4bede97,5,149.951,151.65,space,0,0.268,,0,3,3,27,1,X,,,,,,,,,,,
,,,,,R_4s2NXCnJQiUFP9v,001,2025-08-05_08h45.10.636,continuous_performance_test,2024.2.4,MacIntel,62.5,b29cd7b0-b5a8-4253-b680-db61f4bede97,5,151.651,153.4,,1,,,0,4,4,26,1,X,,,,,,,,,,,
,,,,,R_4s2NXCnJQiUFP9v,001,2025-08-05_08h45.10.636,continuous_performance_test,2024.2.4,MacIntel,62.5,b29cd7b0-b5a8-4253-b680-db61f4bede97,5,153.402,155.199,space,1,0.47,,0,5,5,5,1,F,space,,,,,,,,,,
,,,,,R_4s2NXCnJQiUFP9v,001,2025-08-05_08h45.10.636,continuous_performance_test,2024.2.4,MacIntel,62.5,b29cd7b0-b5a8-4253-b680-db61f4bede97,5,155.201,157.15,space,1,0.322,,0,6,6,22,1,W,space,,,,,,,,,,
,,,,,R_4s2NXCnJQiUFP9v,001,2025-08-05_08h45.10.636,continuous_performance_test,2024.2.4,MacIntel,62.5,b29cd7b0-b5a8-4253-b680-db61f4bede97,5,157.152,158.95,space,1,0.282,,0,7,7,3,1,D,space,,,,,,,,,,
,,,,,R_4s2NXCnJQiUFP9v,001,2025-08-05_08h45.10.636,continuous_performance_test,2024.2.4,MacIntel,62.5,b29cd7b0-b5a8-4253-b680-db61f4bede97,5,158.952,160.749,space,1,0.424,,0,8,8,13,1,N,space,,,,,,,,,,
,,,,,R_4s2NXCnJQiUFP9v,001,2025-08-05_08h45.10.636,continuous_performance_test,2024.2.4,MacIntel,62.5,b29cd7b0-b5a8-4253-b680-db61f4bede97,5,160.751,162.5,space,0,0.331,,0,9,9,25,1,X,,,,,,,,,,,
,,,,,R_4s2NXCnJQiUFP9v,001,2025-08-05_08h45.10.636,continuous_performance_test,2024.2.4,MacIntel,62.5,b29cd7b0-b5a8-4253-b680-db61f4bede97,5,162.502,164.25,space,1,0.4,,0,10,10,9,1,J,space,,,,,,,,,,
,,,,,R_4s2NXCnJQiUFP9v,001,2025-08-05_08h45.10.636,continuous_performance_test,2024.2.4,MacIntel,62.5,b29cd7b0-b5a8-4253-b680-db61f4bede97,5,164.251,166.05,space,1,0.941,,0,11,11,7,1,H,space,,,,,,,,,,
,,,,,R_4s2NXCnJQiUFP9v,001,2025-08-05_08h45.10.636,continuous_performance_test,2024.2.4,MacIntel,62.5,b29cd7b0-b5a8-4253-b680-db61f4bede97,5,166.052,167.95,space,1,0.682,,0,12,12,24,1,Z,space,,,,,,,,,,
,,,,,R_4s2NXCnJQiUFP9v,001,2025-08-05_08h45.10.636,continuous_performance_test,2024.2.4,MacIntel,62.5,b29cd7b0-b5a8-4253-b680-db61f4bede97,5,167.952,169.699,space,1,0.466,,0,13,13,4,1,E,space,,,,,,,,,,
,,,,,R_4s2NXCnJQiUFP9v,001,2025-08-05_08h45.10.636,continuous_performance_test,2024.2.4,MacIntel,62.5,b29cd7b0-b5a8-4253-b680-db61f4bede97,5,169.701,171.65,space,1,0.307,,0,14,14,14,1,O,space,,,,,,,,,,
,,,,,R_4s2NXCnJQiUFP9v,001,2025-08-05_08h45.10.636,continuous_performance_test,2024.2.4,MacIntel,62.5,b29cd7b0-b5a8-4253-b680-db61f4bede97,5,171.652,173.349,space,1,0.336,,0,15,15,16,1,Q,space,,,,,,,,,,
,,,,,R_4s2NXCnJQiUFP9v,001,2025-08-05_08h45.10.636,continuous_performance_test,2024.2.4,MacIntel,62.5,b29cd7b0-b5a8-4253-b680-db61f4bede97,5,173.351,175.25,space,1,0.68,,0,16,16,6,1,G,space,,,,,,,,,,
,,,,,R_4s2NXCnJQiUFP9v,001,2025-08-05_08h45.10.636,continuous_performance_test,2024.2.4,MacIntel,62.5,b29cd7b0-b5a8-4253-b680-db61f4bede97,5,175.252,176.9,space,1,0.365,,0,17,17,23,1,Y,space,,,,,,,,,,
,,,,,R_4s2NXCnJQiUFP9v,001,2025-08-05_08h45.10.636,continuous_performance_test,2024.2.4,MacIntel,62.5,b29cd7b0-b5a8-4253-b680-db61f4bede97,5,176.902,178.6,space,1,0.339,,0,18,18,12,1,M,space,,,,,,,,,,
,,,,,R_4s2NXCnJQiUFP9v,001,2025-08-05_08h45.10.636,continuous_performance_test,2024.2.4,MacIntel,62.5,b29cd7b0-b5a8-4253-b680-db61f4bede97,5,178.603,180.35,space,1,0.314,,0,19,19,10,1,K,space,,,,,,,,,,
,,,,,R_4s2NXCnJQiUFP9v,001,2025-08-05_08h45.10.636,continuous_performance_test,2024.2.4,MacIntel,62.5,b29cd7b0-b5a8-4253-b680-db61f4bede97,5,180.352,182.299,space,1,0.282,,0,20,20,15,1,P,space,,,,,,,,,,
,,,,,R_4s2NXCnJQiUFP9v,001,2025-08-05_08h45.10.636,continuous_performance_test,2024.2.4,MacIntel,62.5,b29cd7b0-b5a8-4253-b680-db61f4bede97,5,182.301,184.05,space,1,0.349,,0,21,21,19,1,T,space,,,,,,,,,,
,,,,,R_4s2NXCnJQiUFP9v,001,2025-08-05_08h45.10.636,continuous_performance_test,2024.2.4,MacIntel,62.5,b29cd7b0-b5a8-4253-b680-db61f4bede97,5,184.052,185.7,space,1,0.27,,0,22,22,8,1,I,space,,,,,,,,,,
,,,,,R_4s2NXCnJQiUFP9v,001,2025-08-05_08h45.10.636,continuous_performance_test,2024.2.4,MacIntel,62.5,b29cd7b0-b5a8-4253-b680-db61f4bede97,5,185.702,187.3,space,1,0.265,,0,23,23,0,1,A,space,,,,,,,,,,
,,,,,R_4s2NXCnJQiUFP9v,001,2025-08-05_08h45.10.636,continuous_performance_test,2024.2.4,MacIntel,62.5,b29cd7b0-b5a8-4253-b680-db61f4bede97,5,187.302,189.15,space,1,0.299,,0,24,24,11,1,L,space,,,,,,,,,,
,,,,,R_4s2NXCnJQiUFP9v,001,2025-08-05_08h45.10.636,continuous_performance_test,2024.2.4,MacIntel,62.5,b29cd7b0-b5a8-4253-b680-db61f4bede97,5,189.152,190.8,space,1,0.299,,0,25,25,21,1,V,space,,,,,,,,,,
,,,,,R_4s2NXCnJQiUFP9v,001,2025-08-05_08h45.10.636,continuous_performance_test,2024.2.4,MacIntel,62.5,b29cd7b0-b5a8-4253-b680-db61f4bede97,5,190.801,192.75,space,1,0.282,,0,26,26,2,1,C,space,,,,,,,,,,
,,,,,R_4s2NXCnJQiUFP9v,001,2025-08-05_08h45.10.636,continuous_performance_test,2024.2.4,MacIntel,62.5,b29cd7b0-b5a8-4253-b680-db61f4bede97,5,192.752,194.35,space,1,0.287,,0,27,27,1,1,B,space,,,,,,,,,,
,,,,,R_4s2NXCnJQiUFP9v,001,2025-08-05_08h45.10.636,continuous_performance_test,2024.2.4,MacIntel,62.5,b29cd7b0-b5a8-4253-b680-db61f4bede97,5,194.352,196.25,space,1,0.274,,0,28,28,17,1,R,space,,,,,,,,,,
,,,,,R_4s2NXCnJQiUFP9v,001,2025-08-05_08h45.10.636,continuous_performance_test,2024.2.4,MacIntel,62.5,b29cd7b0-b5a8-4253-b680-db61f4bede97,5,196.252,198.05,space,0,0.289,,0,29,29,29,1,X,,,,,,,,,,,
,,,,,R_4s2NXCnJQiUFP9v,001,2025-08-05_08h45.10.636,continuous_performance_test,2024.2.4,MacIntel,62.5,b29cd7b0-b5a8-4253-b680-db61f4bede97,5,209.624,211.317,space,1,0.281,,0,0,0,10,1,K,space,198.052,209.615,space,11.539,,,,,,
,,,,,R_4s2NXCnJQiUFP9v,001,2025-08-05_08h45.10.636,continuous_performance_test,2024.2.4,MacIntel,62.5,b29cd7b0-b5a8-4253-b680-db61f4bede97,5,211.32,213.266,space,1,0.248,,0,1,1,16,1,Q,space,,,,,,,,,,
,,,,,R_4s2NXCnJQiUFP9v,001,2025-08-05_08h45.10.636,continuous_performance_test,2024.2.4,MacIntel,62.5,b29cd7b0-b5a8-4253-b680-db61f4bede97,5,213.269,215.166,,0,,,0,2,2,9,1,J,space,,,,,,,,,,
,,,,,R_4s2NXCnJQiUFP9v,001,2025-08-05_08h45.10.636,continuous_performance_test,2024.2.4,MacIntel,62.5,b29cd7b0-b5a8-4253-b680-db61f4bede97,5,215.168,216.917,space,1,0.256,,0,3,3,13,1,N,space,,,,,,,,,,
,,,,,R_4s2NXCnJQiUFP9v,001,2025-08-05_08h45.10.636,continuous_performance_test,2024.2.4,MacIntel,62.5,b29cd7b0-b5a8-4253-b680-db61f4bede97,5,216.919,218.616,space,0,0.273,,0,4,4,25,1,X,,,,,,,,,,,
,,,,,R_4s2NXCnJQiUFP9v,001,2025-08-05_08h45.10.636,continuous_performance_test,2024.2.4,MacIntel,62.5,b29cd7b0-b5a8-4253-b680-db61f4bede97,5,218.619,220.266,space,1,0.516,,0,5,5,14,1,O,space,,,,,,,,,,
,,,,,R_4s2NXCnJQiUFP9v,001,2025-08-05_08h45.10.636,continuous_performance_test,2024.2.4,MacIntel,62.5,b29cd7b0-b5a8-4253-b680-db61f4bede97,5,220.268,222.066,space,1,0.369,,0,6,6,3,1,D,space,,,,,,,,,,
,,,,,R_4s2NXCnJQiUFP9v,001,2025-08-05_08h45.10.636,continuous_performance_test,2024.2.4,MacIntel,62.5,b29cd7b0-b5a8-4253-b680-db61f4bede97,5,222.068,223.917,space,1,0.382,,0,7,7,6,1,G,space,,,,,,,,,,
,,,,,R_4s2NXCnJQiUFP9v,001,2025-08-05_08h45.10.636,continuous_performance_test,2024.2.4,MacIntel,62.5,b29cd7b0-b5a8-4253-b680-db61f4bede97,5,223.919,225.766,space,1,0.287,,0,8,8,17,1,R,space,,,,,,,,,,
,,,,,R_4s2NXCnJQiUFP9v,001,2025-08-05_08h45.10.636,continuous_performance_test,2024.2.4,MacIntel,62.5,b29cd7b0-b5a8-4253-b680-db61f4bede97,5,225.769,227.516,space,0,0.248,,0,9,9,28,1,X,,,,,,,,,,,
,,,,,R_4s2NXCnJQiUFP9v,001,2025-08-05_08h45.10.636,continuous_performance_test,2024.2.4,MacIntel,62.5,b29cd7b0-b5a8-4253-b680-db61f4bede97,5,227.518,229.116,space,1,0.373,,0,10,10,7,1,H,space,,,,,,,,,,
,,,,,R_4s2NXCnJQiUFP9v,001,2025-08-05_08h45.10.636,continuous_performance_test,2024.2.4,MacIntel,62.5,b29cd7b0-b5a8-4253-b680-db61f4bede97,5,229.118,230.766,,1,,,0,11,11,29,1,X,,,,,,,,,,,
,,,,,R_4s2NXCnJQiUFP9v,001,2025-08-05_08h45.10.636,continuous_performance_test,2024.2.4,MacIntel,62.5,b29cd7b0-b5a8-4253-b680-db61f4bede97,5,230.768,232.366,space,1,0.315,,0,12,12,12,1,M,space,,,,,,,,,,
,,,,,R_4s2NXCnJQiUFP9v,001,2025-08-05_08h45.10.636,continuous_performance_test,2024.2.4,MacIntel,62.5,b29cd7b0-b5a8-4253-b680-db61f4bede97,5,232.369,234.266,space,1,0.416,,0,13,13,21,1,V,space,,,,,,,,,,
,,,,,R_4s2NXCnJQiUFP9v,001,2025-08-05_08h45.10.636,continuous_performance_test,2024.2.4,MacIntel,62.5,b29cd7b0-b5a8-4253-b680-db61f4bede97,5,234.269,236.266,space,1,0.382,,0,14,14,11,1,L,space,,,,,,,,,,
,,,,,R_4s2NXCnJQiUFP9v,001,2025-08-05_08h45.10.636,continuous_performance_test,2024.2.4,MacIntel,62.5,b29cd7b0-b5a8-4253-b680-db61f4bede97,5,236.268,238.216,space,1,0.333,,0,15,15,5,1,F,space,,,,,,,,,,
,,,,,R_4s2NXCnJQiUFP9v,001,2025-08-05_08h45.10.636,continuous_performance_test,2024.2.4,MacIntel,62.5,b29cd7b0-b5a8-4253-b680-db61f4bede97,5,238.218,240.216,space,0,0.299,,0,16,16,26,1,X,,,,,,,,,,,
,,,,,R_4s2NXCnJQiUFP9v,001,2025-08-05_08h45.10.636,continuous_performance_test,2024.2.4,MacIntel,62.5,b29cd7b0-b5a8-4253-b680-db61f4bede97,5,240.219,242.066,space,1,0.482,,0,17,17,2,1,C,space,,,,,,,,,,
,,,,,R_4s2NXCnJQiUFP9v,001,2025-08-05_08h45.10.636,continuous_performance_test,2024.2.4,MacIntel,62.5,b29cd7b0-b5a8-4253-b680-db61f4bede97,5,242.067,243.966,space,1,0.371,,0,18,18,23,1,Y,space,,,,,,,,,,
,,,,,R_4s2NXCnJQiUFP9v,001,2025-08-05_08h45.10.636,continuous_performance_test,2024.2.4,MacIntel,62.5,b29cd7b0-b5a8-4253-b680-db61f4bede97,5,243.968,245.916,space,1,0.307,,0,19,19,0,1,A,space,,,,,,,,,,
,,,,,R_4s2NXCnJQiUFP9v,001,2025-08-05_08h45.10.636,continuous_performance_test,2024.2.4,MacIntel,62.5,b29cd7b0-b5a8-4253-b680-db61f4bede97,5,245.919,247.866,space,1,0.285,,0,20,20,20,1,U,space,,,,,,,,,,
,,,,,R_4s2NXCnJQiUFP9v,001,2025-08-05_08h45.10.636,continuous_performance_test,2024.2.4,MacIntel,62.5,b29cd7b0-b5a8-4253-b680-db61f4bede97,5,247.869,249.716,space,0,0.315,,0,21,21,27,1,X,,,,,,,,,,,
,,,,,R_4s2NXCnJQiUFP9v,001,2025-08-05_08h45.10.636,continuous_performance_test,2024.2.4,MacIntel,62.5,b29cd7b0-b5a8-4253-b680-db61f4bede97,5,249.718,251.566,space,1,0.648,,0,22,22,22,1,W,space,,,,,,,,,,
,,,,,R_4s2NXCnJQiUFP9v,001,2025-08-05_08h45.10.636,continuous_performance_test,2024.2.4,MacIntel,62.5,b29cd7b0-b5a8-4253-b680-db61f4bede97,5,251.569,253.566,space,1,0.335,,0,23,23,15,1,P,space,,,,,,,,,,
,,,,,R_4s2NXCnJQiUFP9v,001,2025-08-05_08h45.10.636,continuous_performance_test,2024.2.4,MacIntel,62.5,b29cd7b0-b5a8-4253-b680-db61f4bede97,5,253.569,255.516,space,1,0.382,,0,24,24,24,1,Z,space,,,,,,,,,,
,,,,,R_4s2NXCnJQiUFP9v,001,2025-08-05_08h45.10.636,continuous_performance_test,2024.2.4,MacIntel,62.5,b29cd7b0-b5a8-4253-b680-db61f4bede97,5,255.518,257.117,space,1,0.333,,0,25,25,8,1,I,space,,,,,,,,,,
,,,,,R_4s2NXCnJQiUFP9v,001,2025-08-05_08h45.10.636,continuous_performance_test,2024.2.4,MacIntel,62.5,b29cd7b0-b5a8-4253-b680-db61f4bede97,5,257.118,258.916,space,1,0.287,,0,26,26,1,1,B,space,,,,,,,,,,
,,,,,R_4s2NXCnJQiUFP9v,001,2025-08-05_08h45.10.636,continuous_performance_test,2024.2.4,MacIntel,62.5,b29cd7b0-b5a8-4253-b680-db61f4bede97,5,258.919,260.766,space,1,0.301,,0,27,27,19,1,T,space,,,,,,,,,,
,,,,,R_4s2NXCnJQiUFP9v,001,2025-08-05_08h45.10.636,continuous_performance_test,2024.2.4,MacIntel,62.5,b29cd7b0-b5a8-4253-b680-db61f4bede97,5,260.768,262.716,space,1,0.282,,0,28,28,4,1,E,space,,,,,,,,,,
,,,,,R_4s2NXCnJQiUFP9v,001,2025-08-05_08h45.10.636,continuous_performance_test,2024.2.4,MacIntel,62.5,b29cd7b0-b5a8-4253-b680-db61f4bede97,5,262.719,264.566,space,1,0.356,,0,29,29,18,1,S,space,,,,,,,,,,
,,,,,R_4s2NXCnJQiUFP9v,001,2025-08-05_08h45.10.636,continuous_performance_test,2024.2.4,MacIntel,62.5,b29cd7b0-b5a8-4253-b680-db61f4bede97,5,279.577,281.317,space,0,0.29,,0,0,0,25,1,X,,264.569,279.567,,,,,,,,
,,,,,R_4s2NXCnJQiUFP9v,001,2025-08-05_08h45.10.636,continuous_performance_test,2024.2.4,MacIntel,62.5,b29cd7b0-b5a8-4253-b680-db61f4bede97,5,281.319,283.217,,1,,,0,1,1,28,1,X,,,,,,,,,,,
,,,,,R_4s2NXCnJQiUFP9v,001,2025-08-05_08h45.10.636,continuous_performance_test,2024.2.4,MacIntel,62.5,b29cd7b0-b5a8-4253-b680-db61f4bede97,5,283.218,285.066,space,1,0.448,,0,2,2,10,1,K,space,,,,,,,,,,
,,,,,R_4s2NXCnJQiUFP9v,001,2025-08-05_08h45.10.636,continuous_performance_test,2024.2.4,MacIntel,62.5,b29cd7b0-b5a8-4253-b680-db61f4bede97,5,285.068,286.666,space,1,0.335,,0,3,3,1,1,B,space,,,,,,,,,,
,,,,,R_4s2NXCnJQiUFP9v,001,2025-08-05_08h45.10.636,continuous_performance_test,2024.2.4,MacIntel,62.5,b29cd7b0-b5a8-4253-b680-db61f4bede97,5,286.668,288.366,space,1,0.376,,0,4,4,6,1,G,space,,,,,,,,,,
,,,,,R_4s2NXCnJQiUFP9v,001,2025-08-05_08h45.10.636,continuous_performance_test,2024.2.4,MacIntel,62.5,b29cd7b0-b5a8-4253-b680-db61f4bede97,5,288.368,290.266,space,1,0.365,,0,5,5,7,1,H,space,,,,,,,,,,
,,,,,R_4s2NXCnJQiUFP9v,001,2025-08-05_08h45.10.636,continuous_performance_test,2024.2.4,MacIntel,62.5,b29cd7b0-b5a8-4253-b680-db61f4bede97,5,290.268,291.866,space,1,0.315,,0,6,6,14,1,O,space,,,,,,,,,,
,,,,,R_4s2NXCnJQiUFP9v,001,2025-08-05_08h45.10.636,continuous_performance_test,2024.2.4,MacIntel,62.5,b29cd7b0-b5a8-4253-b680-db61f4bede97,5,291.868,293.566,space,1,0.265,,0,7,7,19,1,T,space,,,,,,,,,,
,,,,,R_4s2NXCnJQiUFP9v,001,2025-08-05_08h45.10.636,continuous_performance_test,2024.2.4,MacIntel,62.5,b29cd7b0-b5a8-4253-b680-db61f4bede97,5,293.568,295.371,space,1,0.334,,0,8,8,8,1,I,space,,,,,,,,,,
,,,,,R_4s2NXCnJQiUFP9v,001,2025-08-05_08h45.10.636,continuous_performance_test,2024.2.4,MacIntel,62.5,b29cd7b0-b5a8-4253-b680-db61f4bede97,5,295.372,297.216,space,1,0.307,,0,9,9,2,1,C,space,,,,,,,,,,
,,,,,R_4s2NXCnJQiUFP9v,001,2025-08-05_08h45.10.636,continuous_performance_test,2024.2.4,MacIntel,62.5,b29cd7b0-b5a8-4253-b680-db61f4bede97,5,297.218,299.167,space,1,0.584,,0,10,10,17,1,R,space,,,,,,,,,,
,,,,,R_4s2NXCnJQiUFP9v,001,2025-08-05_08h45.10.636,continuous_performance_test,2024.2.4,MacIntel,62.5,b29cd7b0-b5a8-4253-b680-db61f4bede97,5,299.169,300.916,space,1,0.532,,0,11,11,20,1,U,space,,,,,,,,,,
,,,,,R_4s2NXCnJQiUFP9v,001,2025-08-05_08h45.10.636,continuous_performance_test,2024.2.4,MacIntel,62.5,b29cd7b0-b5a8-4253-b680-db61f4bede97,5,300.918,302.866,space,1,0.399,,0,12,12,4,1,E,space,,,,,,,,,,
,,,,,R_4s2NXCnJQiUFP9v,001,2025-08-05_08h45.10.636,continuous_performance_test,2024.2.4,MacIntel,62.5,b29cd7b0-b5a8-4253-b680-db61f4bede97,5,302.868,304.666,space,0,0.399,,0,13,13,27,1,X,,,,,,,,,,,
,,,,,R_4s2NXCnJQiUFP9v,001,2025-08-05_08h45.10.636,continuous_performance_test,2024.2.4,MacIntel,62.5,b29cd7b0-b5a8-4253-b680-db61f4bede97,5,304.669,306.266,space,1,0.554,,0,14,14,3,1,D,space,,,,,,,,,,
,,,,,R_4s2NXCnJQiUFP9v,001,2025-08-05_08h45.10.636,continuous_performance_test,2024.2.4,MacIntel,62.5,b29cd7b0-b5a8-4253-b680-db61f4bede97,5,306.268,308.166,space,1,0.348,,0,15,15,24,1,Z,space,,,,,,,,,,
,,,,,R_4s2NXCnJQiUFP9v,001,2025-08-05_08h45.10.636,continuous_performance_test,2024.2.4,MacIntel,62.5,b29cd7b0-b5a8-4253-b680-db61f4bede97,5,308.168,309.866,space,1,0.399,,0,16,16,5,1,F,space,,,,,,,,,,
,,,,,R_4s2NXCnJQiUFP9v,001,2025-08-05_08h45.10.636,continuous_performance_test,2024.2.4,MacIntel,62.5,b29cd7b0-b5a8-4253-b680-db61f4bede97,5,309.869,311.867,space,1,0.299,,0,17,17,13,1,N,space,,,,,,,,,,
,,,,,R_4s2NXCnJQiUFP9v,001,2025-08-05_08h45.10.636,continuous_performance_test,2024.2.4,MacIntel,62.5,b29cd7b0-b5a8-4253-b680-db61f4bede97,5,311.869,313.666,space,1,0.535,,0,18,18,12,1,M,space,,,,,,,,,,
,,,,,R_4s2NXCnJQiUFP9v,001,2025-08-05_08h45.10.636,continuous_performance_test,2024.2.4,MacIntel,62.5,b29cd7b0-b5a8-4253-b680-db61f4bede97,5,313.668,315.216,space,1,0.382,,0,19,19,11,1,L,space,,,,,,,,,,
,,,,,R_4s2NXCnJQiUFP9v,001,2025-08-05_08h45.10.636,continuous_performance_test,2024.2.4,MacIntel,62.5,b29cd7b0-b5a8-4253-b680-db61f4bede97,5,315.219,316.967,space,1,0.366,,0,20,20,15,1,P,space,,,,,,,,,,
,,,,,R_4s2NXCnJQiUFP9v,001,2025-08-05_08h45.10.636,continuous_performance_test,2024.2.4,MacIntel,62.5,b29cd7b0-b5a8-4253-b680-db61f4bede97,5,316.97,318.716,space,1,0.488,,0,21,21,22,1,W,space,,,,,,,,,,
,,,,,R_4s2NXCnJQiUFP9v,001,2025-08-05_08h45.10.636,continuous_performance_test,2024.2.4,MacIntel,62.5,b29cd7b0-b5a8-4253-b680-db61f4bede97,5,318.719,320.466,space,1,0.599,,0,22,22,18,1,S,space,,,,,,,,,,
,,,,,R_4s2NXCnJQiUFP9v,001,2025-08-05_08h45.10.636,continuous_performance_test,2024.2.4,MacIntel,62.5,b29cd7b0-b5a8-4253-b680-db61f4bede97,5,320.469,322.216,space,0,0.417,,0,23,23,26,1,X,,,,,,,,,,,
,,,,,R_4s2NXCnJQiUFP9v,001,2025-08-05_08h45.10.636,continuous_performance_test,2024.2.4,MacIntel,62.5,b29cd7b0-b5a8-4253-b680-db61f4bede97,5,322.218,324.066,space,1,0.898,,0,24,24,23,1,Y,space,,,,,,,,,,
,,,,,R_4s2NXCnJQiUFP9v,001,2025-08-05_08h45.10.636,continuous_performance_test,2024.2.4,MacIntel,62.5,b29cd7b0-b5a8-4253-b680-db61f4bede97,5,324.068,325.716,space,0,0.348,,0,25,25,29,1,X,,,,,,,,,,,
,,,,,R_4s2NXCnJQiUFP9v,001,2025-08-05_08h45.10.636,continuous_performance_test,2024.2.4,MacIntel,62.5,b29cd7b0-b5a8-4253-b680-db61f4bede97,5,325.719,327.716,space,1,0.418,,0,26,26,16,1,Q,space,,,,,,,,,,
,,,,,R_4s2NXCnJQiUFP9v,001,2025-08-05_08h45.10.636,continuous_performance_test,2024.2.4,MacIntel,62.5,b29cd7b0-b5a8-4253-b680-db61f4bede97,5,327.718,329.367,space,1,0.352,,0,27,27,9,1,J,space,,,,,,,,,,
,,,,,R_4s2NXCnJQiUFP9v,001,2025-08-05_08h45.10.636,continuous_performance_test,2024.2.4,MacIntel,62.5,b29cd7b0-b5a8-4253-b680-db61f4bede97,5,329.369,331.316,space,1,0.399,,0,28,28,21,1,V,space,,,,,,,,,,
,,,,,R_4s2NXCnJQiUFP9v,001,2025-08-05_08h45.10.636,continuous_performance_test,2024.2.4,MacIntel,62.5,b29cd7b0-b5a8-4253-b680-db61f4bede97,5,331.318,333.317,space,1,0.385,,0,29,29,0,1,A,space,,,,,,,,,,
,,,,,R_4s2NXCnJQiUFP9v,001,2025-08-05_08h45.10.636,continuous_performance_test,2024.2.4,MacIntel,62.5,b29cd7b0-b5a8-4253-b680-db61f4bede97,5,336.46,338.4,space,1,0.333,,0,0,0,14,1,O,space,333.319,336.45,space,3.098,,,,,,
,,,,,R_4s2NXCnJQiUFP9v,001,2025-08-05_08h45.10.636,continuous_performance_test,2024.2.4,MacIntel,62.5,b29cd7b0-b5a8-4253-b680-db61f4bede97,5,338.402,340,space,1,0.298,,0,1,1,21,1,V,space,,,,,,,,,,
,,,,,R_4s2NXCnJQiUFP9v,001,2025-08-05_08h45.10.636,continuous_performance_test,2024.2.4,MacIntel,62.5,b29cd7b0-b5a8-4253-b680-db61f4bede97,5,340.002,341.95,space,1,0.347,,0,2,2,4,1,E,space,,,,,,,,,,
,,,,,R_4s2NXCnJQiUFP9v,001,2025-08-05_08h45.10.636,continuous_performance_test,2024.2.4,MacIntel,62.5,b29cd7b0-b5a8-4253-b680-db61f4bede97,5,341.952,343.85,space,1,0.282,,0,3,3,23,1,Y,space,,,,,,,,,,
,,,,,R_4s2NXCnJQiUFP9v,001,2025-08-05_08h45.10.636,continuous_performance_test,2024.2.4,MacIntel,62.5,b29cd7b0-b5a8-4253-b680-db61f4bede97,5,343.852,345.5,space,1,0.282,,0,4,4,6,1,G,space,,,,,,,,,,
,,,,,R_4s2NXCnJQiUFP9v,001,2025-08-05_08h45.10.636,continuous_performance_test,2024.2.4,MacIntel,62.5,b29cd7b0-b5a8-4253-b680-db61f4bede97,5,345.502,347.3,space,1,0.299,,0,5,5,1,1,B,space,,,,,,,,,,
,,,,,R_4s2NXCnJQiUFP9v,001,2025-08-05_08h45.10.636,continuous_performance_test,2024.2.4,MacIntel,62.5,b29cd7b0-b5a8-4253-b680-db61f4bede97,5,347.302,348.85,space,1,0.299,,0,6,6,8,1,I,space,,,,,,,,,,
,,,,,R_4s2NXCnJQiUFP9v,001,2025-08-05_08h45.10.636,continuous_performance_test,2024.2.4,MacIntel,62.5,b29cd7b0-b5a8-4253-b680-db61f4bede97,5,348.852,350.699,space,1,0.536,,0,7,7,5,1,F,space,,,,,,,,,,
,,,,,R_4s2NXCnJQiUFP9v,001,2025-08-05_08h45.10.636,continuous_performance_test,2024.2.4,MacIntel,62.5,b29cd7b0-b5a8-4253-b680-db61f4bede97,5,350.701,352.45,space,0,0.349,,0,8,8,25,1,X,,,,,,,,,,,
,,,,,R_4s2NXCnJQiUFP9v,001,2025-08-05_08h45.10.636,continuous_performance_test,2024.2.4,MacIntel,62.5,b29cd7b0-b5a8-4253-b680-db61f4bede97,5,352.452,354.399,space,1,0.348,,0,9,9,15,1,P,space,,,,,,,,,,
,,,,,R_4s2NXCnJQiUFP9v,001,2025-08-05_08h45.10.636,continuous_performance_test,2024.2.4,MacIntel,62.5,b29cd7b0-b5a8-4253-b680-db61f4bede97,5,354.401,356.2,space,0,0.434,,0,10,10,29,1,X,,,,,,,,,,,
,,,,,R_4s2NXCnJQiUFP9v,001,2025-08-05_08h45.10.636,continuous_performance_test,2024.2.4,MacIntel,62.5,b29cd7b0-b5a8-4253-b680-db61f4bede97,5,356.202,357.95,space,1,0.77,,0,11,11,11,1,L,space,,,,,,,,,,
,,,,,R_4s2NXCnJQiUFP9v,001,2025-08-05_08h45.10.636,continuous_performance_test,2024.2.4,MacIntel,62.5,b29cd7b0-b5a8-4253-b680-db61f4bede97,5,357.952,359.65,space,1,0.349,,0,12,12,7,1,H,space,,,,,,,,,,
,,,,,R_4s2NXCnJQiUFP9v,001,2025-08-05_08h45.10.636,continuous_performance_test,2024.2.4,MacIntel,62.5,b29cd7b0-b5a8-4253-b680-db61f4bede97,5,359.652,361.65,space,1,0.322,,0,13,13,10,1,K,space,,,,,,,,,,
,,,,,R_4s2NXCnJQiUFP9v,001,2025-08-05_08h45.10.636,continuous_performance_test,2024.2.4,MacIntel,62.5,b29cd7b0-b5a8-4253-b680-db61f4bede97,5,361.652,363.65,space,1,0.349,,0,14,14,19,1,T,space,,,,,,,,,,
,,,,,R_4s2NXCnJQiUFP9v,001,2025-08-05_08h45.10.636,continuous_performance_test,2024.2.4,MacIntel,62.5,b29cd7b0-b5a8-4253-b680-db61f4bede97,5,363.652,365.55,space,1,0.349,,0,15,15,16,1,Q,space,,,,,,,,,,
,,,,,R_4s2NXCnJQiUFP9v,001,2025-08-05_08h45.10.636,continuous_performance_test,2024.2.4,MacIntel,62.5,b29cd7b0-b5a8-4253-b680-db61f4bede97,5,365.552,367.2,space,1,0.499,,0,16,16,9,1,J,space,,,,,,,,,,
,,,,,R_4s2NXCnJQiUFP9v,001,2025-08-05_08h45.10.636,continuous_performance_test,2024.2.4,MacIntel,62.5,b29cd7b0-b5a8-4253-b680-db61f4bede97,5,367.202,368.75,space,1,0.3,,0,17,17,24,1,Z,space,,,,,,,,,,
,,,,,R_4s2NXCnJQiUFP9v,001,2025-08-05_08h45.10.636,continuous_performance_test,2024.2.4,MacIntel,62.5,b29cd7b0-b5a8-4253-b680-db61f4bede97,5,368.752,370.45,space,0,0.331,,0,18,18,28,1,X,,,,,,,,,,,
,,,,,R_4s2NXCnJQiUFP9v,001,2025-08-05_08h45.10.636,continuous_performance_test,2024.2.4,MacIntel,62.5,b29cd7b0-b5a8-4253-b680-db61f4bede97,5,370.452,372.15,,0,,,0,19,19,13,1,N,space,,,,,,,,,,
,,,,,R_4s2NXCnJQiUFP9v,001,2025-08-05_08h45.10.636,continuous_performance_test,2024.2.4,MacIntel,62.5,b29cd7b0-b5a8-4253-b680-db61f4bede97,5,372.152,373.7,space,1,0.331,,0,20,20,2,1,C,space,,,,,,,,,,
,,,,,R_4s2NXCnJQiUFP9v,001,2025-08-05_08h45.10.636,continuous_performance_test,2024.2.4,MacIntel,62.5,b29cd7b0-b5a8-4253-b680-db61f4bede97,5,373.702,375.3,space,1,0.281,,0,21,21,12,1,M,space,,,,,,,,,,
,,,,,R_4s2NXCnJQiUFP9v,001,2025-08-05_08h45.10.636,continuous_performance_test,2024.2.4,MacIntel,62.5,b29cd7b0-b5a8-4253-b680-db61f4bede97,5,375.302,377.15,space,1,0.265,,0,22,22,17,1,R,space,,,,,,,,,,
,,,,,R_4s2NXCnJQiUFP9v,001,2025-08-05_08h45.10.636,continuous_performance_test,2024.2.4,MacIntel,62.5,b29cd7b0-b5a8-4253-b680-db61f4bede97,5,377.152,378.98,space,1,0.448,,0,23,23,22,1,W,space,,,,,,,,,,
,,,,,R_4s2NXCnJQiUFP9v,001,2025-08-05_08h45.10.636,continuous_performance_test,2024.2.4,MacIntel,62.5,b29cd7b0-b5a8-4253-b680-db61f4bede97,5,378.981,380.733,space,0,0.43,,0,24,24,27,1,X,,,,,,,,,,,
,,,,,R_4s2NXCnJQiUFP9v,001,2025-08-05_08h45.10.636,continuous_performance_test,2024.2.4,MacIntel,62.5,b29cd7b0-b5a8-4253-b680-db61f4bede97,5,380.735,382.333,space,0,0.522,,0,25,25,26,1,X,,,,,,,,,,,
,,,,,R_4s2NXCnJQiUFP9v,001,2025-08-05_08h45.10.636,continuous_performance_test,2024.2.4,MacIntel,62.5,b29cd7b0-b5a8-4253-b680-db61f4bede97,5,382.335,384.283,space,1,0.634,,0,26,26,18,1,S,space,,,,,,,,,,
,,,,,R_4s2NXCnJQiUFP9v,001,2025-08-05_08h45.10.636,continuous_performance_test,2024.2.4,MacIntel,62.5,b29cd7b0-b5a8-4253-b680-db61f4bede97,5,384.286,385.883,space,1,0.469,,0,27,27,3,1,D,space,,,,,,,,,,
,,,,,R_4s2NXCnJQiUFP9v,001,2025-08-05_08h45.10.636,continuous_performance_test,2024.2.4,MacIntel,62.5,b29cd7b0-b5a8-4253-b680-db61f4bede97,5,385.886,387.683,space,1,0.332,,0,28,28,0,1,A,space,,,,,,,,,,
,,,,,R_4s2NXCnJQiUFP9v,001,2025-08-05_08h45.10.636,continuous_performance_test,2024.2.4,MacIntel,62.5,b29cd7b0-b5a8-4253-b680-db61f4bede97,5,387.685,389.433,space,1,0.283,,0,29,29,20,1,U,space,,,,,,,,,,
,,,,,R_4s2NXCnJQiUFP9v,001,2025-08-05_08h45.10.636,continuous_performance_test,2024.2.4,MacIntel,62.5,b29cd7b0-b5a8-4253-b680-db61f4bede97,5,392.027,393.967,space,1,0.4,,0,0,0,18,1,S,space,389.435,392.017,space,2.55,,,,,,
,,,,,R_4s2NXCnJQiUFP9v,001,2025-08-05_08h45.10.636,continuous_performance_test,2024.2.4,MacIntel,62.5,b29cd7b0-b5a8-4253-b680-db61f4bede97,5,393.969,395.716,space,1,0.465,,0,1,1,4,1,E,space,,,,,,,,,,
,,,,,R_4s2NXCnJQiUFP9v,001,2025-08-05_08h45.10.636,continuous_performance_test,2024.2.4,MacIntel,62.5,b29cd7b0-b5a8-4253-b680-db61f4bede97,5,395.718,397.716,space,1,0.381,,0,2,2,8,1,I,space,,,,,,,,,,
,,,,,R_4s2NXCnJQiUFP9v,001,2025-08-05_08h45.10.636,continuous_performance_test,2024.2.4,MacIntel,62.5,b29cd7b0-b5a8-4253-b680-db61f4bede97,5,397.719,399.266,space,1,0.557,,0,3,3,17,1,R,space,,,,,,,,,,
,,,,,R_4s2NXCnJQiUFP9v,001,2025-08-05_08h45.10.636,continuous_performance_test,2024.2.4,MacIntel,62.5,b29cd7b0-b5a8-4253-b680-db61f4bede97,5,399.268,400.916,space,1,0.368,,0,4,4,9,1,J,space,,,,,,,,,,
,,,,,R_4s2NXCnJQiUFP9v,001,2025-08-05_08h45.10.636,continuous_performance_test,2024.2.4,MacIntel,62.5,b29cd7b0-b5a8-4253-b680-db61f4bede97,5,400.918,402.566,space,1,0.415,,0,5,5,15,1,P,space,,,,,,,,,,
,,,,,R_4s2NXCnJQiUFP9v,001,2025-08-05_08h45.10.636,continuous_performance_test,2024.2.4,MacIntel,62.5,b29cd7b0-b5a8-4253-b680-db61f4bede97,5,402.568,404.166,space,1,0.386,,0,6,6,13,1,N,space,,,,,,,,,,
,,,,,R_4s2NXCnJQiUFP9v,001,2025-08-05_08h45.10.636,continuous_performance_test,2024.2.4,MacIntel,62.5,b29cd7b0-b5a8-4253-b680-db61f4bede97,5,404.169,406.016,space,0,0.319,,0,7,7,28,1,X,,,,,,,,,,,
,,,,,R_4s2NXCnJQiUFP9v,001,2025-08-05_08h45.10.636,continuous_performance_test,2024.2.4,MacIntel,62.5,b29cd7b0-b5a8-4253-b680-db61f4bede97,5,406.018,407.616,space,1,0.382,,0,8,8,16,1,Q,space,,,,,,,,,,
,,,,,R_4s2NXCnJQiUFP9v,001,2025-08-05_08h45.10.636,continuous_performance_test,2024.2.4,MacIntel,62.5,b29cd7b0-b5a8-4253-b680-db61f4bede97,5,407.618,409.417,space,0,0.331,,0,9,9,26,1,X,,,,,,,,,,,
,,,,,R_4s2NXCnJQiUFP9v,001,2025-08-05_08h45.10.636,continuous_performance_test,2024.2.4,MacIntel,62.5,b29cd7b0-b5a8-4253-b680-db61f4bede97,5,409.419,411.216,space,1,0.598,,0,10,10,23,1,Y,space,,,,,,,,,,
,,,,,R_4s2NXCnJQiUFP9v,001,2025-08-05_08h45.10.636,continuous_performance_test,2024.2.4,MacIntel,62.5,b29cd7b0-b5a8-4253-b680-db61f4bede97,5,411.219,413.12,space,1,0.38,,0,11,11,6,1,G,space,,,,,,,,,,
,,,,,R_4s2NXCnJQiUFP9v,001,2025-08-05_08h45.10.636,continuous_performance_test,2024.2.4,MacIntel,62.5,b29cd7b0-b5a8-4253-b680-db61f4bede97,5,413.122,414.816,space,1,0.387,,0,12,12,22,1,W,space,,,,,,,,,,
,,,,,R_4s2NXCnJQiUFP9v,001,2025-08-05_08h45.10.636,continuous_performance_test,2024.2.4,MacIntel,62.5,b29cd7b0-b5a8-4253-b680-db61f4bede97,5,414.819,416.766,space,0,0.391,,0,13,13,25,1,X,,,,,,,,,,,
,,,,,R_4s2NXCnJQiUFP9v,001,2025-08-05_08h45.10.636,continuous_performance_test,2024.2.4,MacIntel,62.5,b29cd7b0-b5a8-4253-b680-db61f4bede97,5,416.768,418.516,space,1,0.481,,0,14,14,7,1,H,space,,,,,,,,,,
,,,,,R_4s2NXCnJQiUFP9v,001,2025-08-05_08h45.10.636,continuous_performance_test,2024.2.4,MacIntel,62.5,b29cd7b0-b5a8-4253-b680-db61f4bede97,5,418.519,420.216,space,1,0.403,,0,15,15,19,1,T,space,,,,,,,,,,
,,,,,R_4s2NXCnJQiUFP9v,001,2025-08-05_08h45.10.636,continuous_performance_test,2024.2.4,MacIntel,62.5,b29cd7b0-b5a8-4253-b680-db61f4bede97,5,420.218,421.867,space,1,0.398,,0,16,16,12,1,M,space,,,,,,,,,,
,,,,,R_4s2NXCnJQiUFP9v,001,2025-08-05_08h45.10.636,continuous_performance_test,2024.2.4,MacIntel,62.5,b29cd7b0-b5a8-4253-b680-db61f4bede97,5,421.869,423.866,space,1,0.386,,0,17,17,10,1,K,space,,,,,,,,,,
,,,,,R_4s2NXCnJQiUFP9v,001,2025-08-05_08h45.10.636,continuous_performance_test,2024.2.4,MacIntel,62.5,b29cd7b0-b5a8-4253-b680-db61f4bede97,5,423.868,425.416,space,1,0.382,,0,18,18,20,1,U,space,,,,,,,,,,
,,,,,R_4s2NXCnJQiUFP9v,001,2025-08-05_08h45.10.636,continuous_performance_test,2024.2.4,MacIntel,62.5,b29cd7b0-b5a8-4253-b680-db61f4bede97,5,425.419,427.416,space,0,0.382,,0,19,19,27,1,X,,,,,,,,,,,
,,,,,R_4s2NXCnJQiUFP9v,001,2025-08-05_08h45.10.636,continuous_performance_test,2024.2.4,MacIntel,62.5,b29cd7b0-b5a8-4253-b680-db61f4bede97,5,427.419,429.016,space,1,0.482,,0,20,20,0,1,A,space,,,,,,,,,,
,,,,,R_4s2NXCnJQiUFP9v,001,2025-08-05_08h45.10.636,continuous_performance_test,2024.2.4,MacIntel,62.5,b29cd7b0-b5a8-4253-b680-db61f4bede97,5,429.018,430.966,space,1,0.349,,0,21,21,21,1,V,space,,,,,,,,,,
,,,,,R_4s2NXCnJQiUFP9v,001,2025-08-05_08h45.10.636,continuous_performance_test,2024.2.4,MacIntel,62.5,b29cd7b0-b5a8-4253-b680-db61f4bede97,5,430.968,432.966,space,1,0.382,,0,22,22,5,1,F,space,,,,,,,,,,
,,,,,R_4s2NXCnJQiUFP9v,001,2025-08-05_08h45.10.636,continuous_performance_test,2024.2.4,MacIntel,62.5,b29cd7b0-b5a8-4253-b680-db61f4bede97,5,432.969,434.567,space,1,0.422,,0,23,23,14,1,O,space,,,,,,,,,,
,,,,,R_4s2NXCnJQiUFP9v,001,2025-08-05_08h45.10.636,continuous_performance_test,2024.2.4,MacIntel,62.5,b29cd7b0-b5a8-4253-b680-db61f4bede97,5,434.569,436.467,space,1,0.332,,0,24,24,1,1,B,space,,,,,,,,,,
,,,,,R_4s2NXCnJQiUFP9v,001,2025-08-05_08h45.10.636,continuous_performance_test,2024.2.4,MacIntel,62.5,b29cd7b0-b5a8-4253-b680-db61f4bede97,5,436.469,438.067,space,1,0.364,,0,25,25,24,1,Z,space,,,,,,,,,,
,,,,,R_4s2NXCnJQiUFP9v,001,2025-08-05_08h45.10.636,continuous_performance_test,2024.2.4,MacIntel,62.5,b29cd7b0-b5a8-4253-b680-db61f4bede97,5,438.069,440.066,space,1,0.832,,0,26,26,3,1,D,space,,,,,,,,,,
,,,,,R_4s2NXCnJQiUFP9v,001,2025-08-05_08h45.10.636,continuous_performance_test,2024.2.4,MacIntel,62.5,b29cd7b0-b5a8-4253-b680-db61f4bede97,5,440.068,442.067,,0,,,0,27,27,2,1,C,space,,,,,,,,,,
,,,,,R_4s2NXCnJQiUFP9v,001,2025-08-05_08h45.10.636,continuous_performance_test,2024.2.4,MacIntel,62.5,b29cd7b0-b5a8-4253-b680-db61f4bede97,5,442.069,444.067,space,0,0.331,,0,28,28,29,1,X,,,,,,,,,,,
,,,,,R_4s2NXCnJQiUFP9v,001,2025-08-05_08h45.10.636,continuous_performance_test,2024.2.4,MacIntel,62.5,b29cd7b0-b5a8-4253-b680-db61f4bede97,5,444.069,445.666,space,1,0.666,,0,29,29,11,1,L,space,,,,,,,,,,
,,,,,R_4s2NXCnJQiUFP9v,001,2025-08-05_08h45.10.636,continuous_performance_test,2024.2.4,MacIntel,62.5,b29cd7b0-b5a8-4253-b680-db61f4bede97,5,449.258,450.95,,1,,,0,0,0,29,1,X,,445.669,449.25,space,3.559,,,,,,
,,,,,R_4s2NXCnJQiUFP9v,001,2025-08-05_08h45.10.636,continuous_performance_test,2024.2.4,MacIntel,62.5,b29cd7b0-b5a8-4253-b680-db61f4bede97,5,450.952,452.7,space,1,0.316,,0,1,1,14,1,O,space,,,,,,,,,,
,,,,,R_4s2NXCnJQiUFP9v,001,2025-08-05_08h45.10.636,continuous_performance_test,2024.2.4,MacIntel,62.5,b29cd7b0-b5a8-4253-b680-db61f4bede97,5,452.702,454.6,space,1,0.348,,0,2,2,9,1,J,space,,,,,,,,,,
,,,,,R_4s2NXCnJQiUFP9v,001,2025-08-05_08h45.10.636,continuous_performance_test,2024.2.4,MacIntel,62.5,b29cd7b0-b5a8-4253-b680-db61f4bede97,5,454.602,456.2,space,1,0.313,,0,3,3,18,1,S,space,,,,,,,,,,
,,,,,R_4s2NXCnJQiUFP9v,001,2025-08-05_08h45.10.636,continuous_performance_test,2024.2.4,MacIntel,62.5,b29cd7b0-b5a8-4253-b680-db61f4bede97,5,456.201,457.8,space,1,0.391,,0,4,4,5,1,F,space,,,,,,,,,,
,,,,,R_4s2NXCnJQiUFP9v,001,2025-08-05_08h45.10.636,continuous_performance_test,2024.2.4,MacIntel,62.5,b29cd7b0-b5a8-4253-b680-db61f4bede97,5,457.802,459.6,space,0,0.29,,0,5,5,28,1,X,,,,,,,,,,,
,,,,,R_4s2NXCnJQiUFP9v,001,2025-08-05_08h45.10.636,continuous_performance_test,2024.2.4,MacIntel,62.5,b29cd7b0-b5a8-4253-b680-db61f4bede97,5,459.602,461.55,space,1,0.316,,0,6,6,0,1,A,space,,,,,,,,,,
,,,,,R_4s2NXCnJQiUFP9v,001,2025-08-05_08h45.10.636,continuous_performance_test,2024.2.4,MacIntel,62.5,b29cd7b0-b5a8-4253-b680-db61f4bede97,5,461.552,463.4,space,1,0.339,,0,7,7,22,1,W,space,,,,,,,,,,
,,,,,R_4s2NXCnJQiUFP9v,001,2025-08-05_08h45.10.636,continuous_performance_test,2024.2.4,MacIntel,62.5,b29cd7b0-b5a8-4253-b680-db61f4bede97,5,463.402,465.099,space,1,0.316,,0,8,8,12,1,M,space,,,,,,,,,,
,,,,,R_4s2NXCnJQiUFP9v,001,2025-08-05_08h45.10.636,continuous_performance_test,2024.2.4,MacIntel,62.5,b29cd7b0-b5a8-4253-b680-db61f4bede97,5,465.102,467.05,space,1,0.532,,0,9,9,24,1,Z,space,,,,,,,,,,
,,,,,R_4s2NXCnJQiUFP9v,001,2025-08-05_08h45.10.636,continuous_performance_test,2024.2.4,MacIntel,62.5,b29cd7b0-b5a8-4253-b680-db61f4bede97,5,467.052,468.6,space,1,0.565,,0,10,10,13,1,N,space,,,,,,,,,,
,,,,,R_4s2NXCnJQiUFP9v,001,2025-08-05_08h45.10.636,continuous_performance_test,2024.2.4,MacIntel,62.5,b29cd7b0-b5a8-4253-b680-db61f4bede97,5,468.602,470.6,space,1,0.382,,0,11,11,4,1,E,space,,,,,,,,,,
,,,,,R_4s2NXCnJQiUFP9v,001,2025-08-05_08h45.10.636,continuous_performance_test,2024.2.4,MacIntel,62.5,b29cd7b0-b5a8-4253-b680-db61f4bede97,5,470.602,472.6,space,1,0.306,,0,12,12,17,1,R,space,,,,,,,,,,
,,,,,R_4s2NXCnJQiUFP9v,001,2025-08-05_08h45.10.636,continuous_performance_test,2024.2.4,MacIntel,62.5,b29cd7b0-b5a8-4253-b680-db61f4bede97,5,472.602,474.25,space,1,0.321,,0,13,13,3,1,D,space,,,,,,,,,,
,,,,,R_4s2NXCnJQiUFP9v,001,2025-08-05_08h45.10.636,continuous_performance_test,2024.2.4,MacIntel,62.5,b29cd7b0-b5a8-4253-b680-db61f4bede97,5,474.252,475.8,space,1,0.789,,0,14,14,8,1,I,space,,,,,,,,,,
,,,,,R_4s2NXCnJQiUFP9v,001,2025-08-05_08h45.10.636,continuous_performance_test,2024.2.4,MacIntel,62.5,b29cd7b0-b5a8-4253-b680-db61f4bede97,5,475.802,477.7,space,1,0.503,,0,15,15,7,1,H,space,,,,,,,,,,
,,,,,R_4s2NXCnJQiUFP9v,001,2025-08-05_08h45.10.636,continuous_performance_test,2024.2.4,MacIntel,62.5,b29cd7b0-b5a8-4253-b680-db61f4bede97,5,477.702,479.3,space,1,0.452,,0,16,16,19,1,T,space,,,,,,,,,,
,,,,,R_4s2NXCnJQiUFP9v,001,2025-08-05_08h45.10.636,continuous_performance_test,2024.2.4,MacIntel,62.5,b29cd7b0-b5a8-4253-b680-db61f4bede97,5,479.302,481.1,space,1,0.415,,0,17,17,23,1,Y,space,,,,,,,,,,
,,,,,R_4s2NXCnJQiUFP9v,001,2025-08-05_08h45.10.636,continuous_performance_test,2024.2.4,MacIntel,62.5,b29cd7b0-b5a8-4253-b680-db61f4bede97,5,481.102,482.999,space,0,0.315,,0,18,18,27,1,X,,,,,,,,,,,
,,,,,R_4s2NXCnJQiUFP9v,001,2025-08-05_08h45.10.636,continuous_performance_test,2024.2.4,MacIntel,62.5,b29cd7b0-b5a8-4253-b680-db61f4bede97,5,483.001,484.55,space,1,0.418,,0,19,19,11,1,L,space,,,,,,,,,,
,,,,,R_4s2NXCnJQiUFP9v,001,2025-08-05_08h45.10.636,continuous_performance_test,2024.2.4,MacIntel,62.5,b29cd7b0-b5a8-4253-b680-db61f4bede97,5,484.552,486.15,space,1,0.348,,0,20,20,2,1,C,space,,,,,,,,,,
,,,,,R_4s2NXCnJQiUFP9v,001,2025-08-05_08h45.10.636,continuous_performance_test,2024.2.4,MacIntel,62.5,b29cd7b0-b5a8-4253-b680-db61f4bede97,5,486.152,488.099,space,1,0.404,,0,21,21,6,1,G,space,,,,,,,,,,
,,,,,R_4s2NXCnJQiUFP9v,001,2025-08-05_08h45.10.636,continuous_performance_test,2024.2.4,MacIntel,62.5,b29cd7b0-b5a8-4253-b680-db61f4bede97,5,488.101,489.85,,1,,,0,22,22,26,1,X,,,,,,,,,,,
,,,,,R_4s2NXCnJQiUFP9v,001,2025-08-05_08h45.10.636,continuous_performance_test,2024.2.4,MacIntel,62.5,b29cd7b0-b5a8-4253-b680-db61f4bede97,5,489.852,491.5,space,0,0.451,,0,23,23,25,1,X,,,,,,,,,,,
,,,,,R_4s2NXCnJQiUFP9v,001,2025-08-05_08h45.10.636,continuous_performance_test,2024.2.4,MacIntel,62.5,b29cd7b0-b5a8-4253-b680-db61f4bede97,5,491.502,493.2,space,1,0.517,,0,24,24,21,1,V,space,,,,,,,,,,
,,,,,R_4s2NXCnJQiUFP9v,001,2025-08-05_08h45.10.636,continuous_performance_test,2024.2.4,MacIntel,62.5,b29cd7b0-b5a8-4253-b680-db61f4bede97,5,493.202,495.15,space,1,0.59,,0,25,25,16,1,Q,space,,,,,,,,,,
,,,,,R_4s2NXCnJQiUFP9v,001,2025-08-05_08h45.10.636,continuous_performance_test,2024.2.4,MacIntel,62.5,b29cd7b0-b5a8-4253-b680-db61f4bede97,5,495.152,497.149,space,1,0.669,,0,26,26,15,1,P,space,,,,,,,,,,
,,,,,R_4s2NXCnJQiUFP9v,001,2025-08-05_08h45.10.636,continuous_performance_test,2024.2.4,MacIntel,62.5,b29cd7b0-b5a8-4253-b680-db61f4bede97,5,497.153,498.75,space,1,0.388,,0,27,27,1,1,B,space,,,,,,,,,,
,,,,,R_4s2NXCnJQiUFP9v,001,2025-08-05_08h45.10.636,continuous_performance_test,2024.2.4,MacIntel,62.5,b29cd7b0-b5a8-4253-b680-db61f4bede97,5,498.752,500.4,space,1,0.331,,0,28,28,10,1,K,space,,,,,,,,,,
,,,,,R_4s2NXCnJQiUFP9v,001,2025-08-05_08h45.10.636,continuous_performance_test,2024.2.4,MacIntel,62.5,b29cd7b0-b5a8-4253-b680-db61f4bede97,5,500.402,502.1,space,1,0.289,,0,29,29,20,1,U,space,,,,,,,,,,
,,,,,R_4s2NXCnJQiUFP9v,001,2025-08-05_08h45.10.636,continuous_performance_test,2024.2.4,MacIntel,62.5,b29cd7b0-b5a8-4253-b680-db61f4bede97,5,504.211,505.75,space,1,0.474,,0,0,0,3,1,D,space,502.102,504.2,space,2.067,,,,,,
,,,,,R_4s2NXCnJQiUFP9v,001,2025-08-05_08h45.10.636,continuous_performance_test,2024.2.4,MacIntel,62.5,b29cd7b0-b5a8-4253-b680-db61f4bede97,5,505.752,507.75,space,1,0.432,,0,1,1,4,1,E,space,,,,,,,,,,
,,,,,R_4s2NXCnJQiUFP9v,001,2025-08-05_08h45.10.636,continuous_performance_test,2024.2.4,MacIntel,62.5,b29cd7b0-b5a8-4253-b680-db61f4bede97,5,507.752,509.4,space,1,0.388,,0,2,2,11,1,L,space,,,,,,,,,,
,,,,,R_4s2NXCnJQiUFP9v,001,2025-08-05_08h45.10.636,continuous_performance_test,2024.2.4,MacIntel,62.5,b29cd7b0-b5a8-4253-b680-db61f4bede97,5,509.402,511.35,space,1,0.399,,0,3,3,9,1,J,space,,,,,,,,,,
,,,,,R_4s2NXCnJQiUFP9v,001,2025-08-05_08h45.10.636,continuous_performance_test,2024.2.4,MacIntel,62.5,b29cd7b0-b5a8-4253-b680-db61f4bede97,5,511.352,512.95,space,1,0.391,,0,4,4,24,1,Z,space,,,,,,,,,,
,,,,,R_4s2NXCnJQiUFP9v,001,2025-08-05_08h45.10.636,continuous_performance_test,2024.2.4,MacIntel,62.5,b29cd7b0-b5a8-4253-b680-db61f4bede97,5,512.952,514.55,space,1,0.37,,0,5,5,22,1,W,space,,,,,,,,,,
,,,,,R_4s2NXCnJQiUFP9v,001,2025-08-05_08h45.10.636,continuous_performance_test,2024.2.4,MacIntel,62.5,b29cd7b0-b5a8-4253-b680-db61f4bede97,5,514.552,516.35,space,0,0.416,,0,6,6,28,1,X,,,,,,,,,,,
,,,,,R_4s2NXCnJQiUFP9v,001,2025-08-05_08h45.10.636,continuous_performance_test,2024.2.4,MacIntel,62.5,b29cd7b0-b5a8-4253-b680-db61f4bede97,5,516.352,518.1,space,1,0.274,,0,7,7,1,1,B,space,,,,,,,,,,
,,,,,R_4s2NXCnJQiUFP9v,001,2025-08-05_08h45.10.636,continuous_performance_test,2024.2.4,MacIntel,62.5,b29cd7b0-b5a8-4253-b680-db61f4bede97,5,518.102,519.85,space,1,0.348,,0,8,8,12,1,M,space,,,,,,,,,,
,,,,,R_4s2NXCnJQiUFP9v,001,2025-08-05_08h45.10.636,continuous_performance_test,2024.2.4,MacIntel,62.5,b29cd7b0-b5a8-4253-b680-db61f4bede97,5,519.852,521.65,space,1,0.416,,0,9,9,6,1,G,space,,,,,,,,,,
,,,,,R_4s2NXCnJQiUFP9v,001,2025-08-05_08h45.10.636,continuous_performance_test,2024.2.4,MacIntel,62.5,b29cd7b0-b5a8-4253-b680-db61f4bede97,5,521.652,523.2,space,1,0.319,,0,10,10,7,1,H,space,,,,,,,,,,
,,,,,R_4s2NXCnJQiUFP9v,001,2025-08-05_08h45.10.636,continuous_performance_test,2024.2.4,MacIntel,62.5,b29cd7b0-b5a8-4253-b680-db61f4bede97,5,523.202,525.199,space,1,0.305,,0,11,11,8,1,I,space,,,,,,,,,,
,,,,,R_4s2NXCnJQiUFP9v,001,2025-08-05_08h45.10.636,continuous_performance_test,2024.2.4,MacIntel,62.5,b29cd7b0-b5a8-4253-b680-db61f4bede97,5,525.201,527.1,space,1,0.303,,0,12,12,21,1,V,space,,,,,,,,,,
,,,,,R_4s2NXCnJQiUFP9v,001,2025-08-05_08h45.10.636,continuous_performance_test,2024.2.4,MacIntel,62.5,b29cd7b0-b5a8-4253-b680-db61f4bede97,5,527.102,528.95,space,1,0.265,,0,13,13,16,1,Q,space,,,,,,,,,,
,,,,,R_4s2NXCnJQiUFP9v,001,2025-08-05_08h45.10.636,continuous_performance_test,2024.2.4,MacIntel,62.5,b29cd7b0-b5a8-4253-b680-db61f4bede97,5,528.952,530.7,space,1,0.348,,0,14,14,18,1,S,space,,,,,,,,,,
,,,,,R_4s2NXCnJQiUFP9v,001,2025-08-05_08h45.10.636,continuous_performance_test,2024.2.4,MacIntel,62.5,b29cd7b0-b5a8-4253-b680-db61f4bede97,5,530.702,532.7,space,1,0.352,,0,15,15,5,1,F,space,,,,,,,,,,
,,,,,R_4s2NXCnJQiUFP9v,001,2025-08-05_08h45.10.636,continuous_performance_test,2024.2.4,MacIntel,62.5,b29cd7b0-b5a8-4253-b680-db61f4bede97,5,532.702,534.65,space,0,0.281,,0,16,16,25,1,X,,,,,,,,,,,
,,,,,R_4s2NXCnJQiUFP9v,001,2025-08-05_08h45.10.636,continuous_performance_test,2024.2.4,MacIntel,62.5,b29cd7b0-b5a8-4253-b680-db61f4bede97,5,534.652,536.45,space,1,0.315,,0,17,17,23,1,Y,space,,,,,,,,,,
,,,,,R_4s2NXCnJQiUFP9v,001,2025-08-05_08h45.10.636,continuous_performance_test,2024.2.4,MacIntel,62.5,b29cd7b0-b5a8-4253-b680-db61f4bede97,5,536.452,538.1,space,1,0.332,,0,18,18,15,1,P,space,,,,,,,,,,
,,,,,R_4s2NXCnJQiUFP9v,001,2025-08-05_08h45.10.636,continuous_performance_test,2024.2.4,MacIntel,62.5,b29cd7b0-b5a8-4253-b680-db61f4bede97,5,538.102,539.7,space,0,0.324,,0,19,19,26,1,X,,,,,,,,,,,
,,,,,R_4s2NXCnJQiUFP9v,001,2025-08-05_08h45.10.636,continuous_performance_test,2024.2.4,MacIntel,62.5,b29cd7b0-b5a8-4253-b680-db61f4bede97,5,539.702,541.3,space,1,0.466,,0,20,20,10,1,K,space,,,,,,,,,,
,,,,,R_4s2NXCnJQiUFP9v,001,2025-08-05_08h45.10.636,continuous_performance_test,2024.2.4,MacIntel,62.5,b29cd7b0-b5a8-4253-b680-db61f4bede97,5,541.302,543,space,1,0.371,,0,21,21,13,1,N,space,,,,,,,,,,
,,,,,R_4s2NXCnJQiUFP9v,001,2025-08-05_08h45.10.636,continuous_performance_test,2024.2.4,MacIntel,62.5,b29cd7b0-b5a8-4253-b680-db61f4bede97,5,543.002,544.85,space,1,0.467,,0,22,22,0,1,A,space,,,,,,,,,,
,,,,,R_4s2NXCnJQiUFP9v,001,2025-08-05_08h45.10.636,continuous_performance_test,2024.2.4,MacIntel,62.5,b29cd7b0-b5a8-4253-b680-db61f4bede97,5,544.852,546.8,space,1,0.465,,0,23,23,19,1,T,space,,,,,,,,,,
,,,,,R_4s2NXCnJQiUFP9v,001,2025-08-05_08h45.10.636,continuous_performance_test,2024.2.4,MacIntel,62.5,b29cd7b0-b5a8-4253-b680-db61f4bede97,5,546.802,548.4,,1,,,0,24,24,29,1,X,,,,,,,,,,,
,,,,,R_4s2NXCnJQiUFP9v,001,2025-08-05_08h45.10.636,continuous_performance_test,2024.2.4,MacIntel,62.5,b29cd7b0-b5a8-4253-b680-db61f4bede97,5,548.402,550.15,space,1,0.332,,0,25,25,2,1,C,space,,,,,,,,,,
,,,,,R_4s2NXCnJQiUFP9v,001,2025-08-05_08h45.10.636,continuous_performance_test,2024.2.4,MacIntel,62.5,b29cd7b0-b5a8-4253-b680-db61f4bede97,5,550.152,552.15,space,0,0.332,,0,26,26,27,1,X,,,,,,,,,,,
,,,,,R_4s2NXCnJQiUFP9v,001,2025-08-05_08h45.10.636,continuous_performance_test,2024.2.4,MacIntel,62.5,b29cd7b0-b5a8-4253-b680-db61f4bede97,5,552.152,553.699,space,1,0.517,,0,27,27,14,1,O,space,,,,,,,,,,
,,,,,R_4s2NXCnJQiUFP9v,001,2025-08-05_08h45.10.636,continuous_performance_test,2024.2.4,MacIntel,62.5,b29cd7b0-b5a8-4253-b680-db61f4bede97,5,553.701,555.55,space,1,0.518,,0,28,28,17,1,R,space,,,,,,,,,,
,,,,,R_4s2NXCnJQiUFP9v,001,2025-08-05_08h45.10.636,continuous_performance_test,2024.2.4,MacIntel,62.5,b29cd7b0-b5a8-4253-b680-db61f4bede97,5,555.552,557.299,space,1,0.501,,0,29,29,20,1,U,space,,,,,,,,,,
,,,,,R_4s2NXCnJQiUFP9v,001,2025-08-05_08h45.10.636,continuous_performance_test,2024.2.4,MacIntel,62.5,b29cd7b0-b5a8-4253-b680-db61f4bede97,5,558.71,560.3,space,1,0.319,,0,0,0,6,1,G,space,557.302,558.7,space,1.367,,,,,,
,,,,,R_4s2NXCnJQiUFP9v,001,2025-08-05_08h45.10.636,continuous_performance_test,2024.2.4,MacIntel,62.5,b29cd7b0-b5a8-4253-b680-db61f4bede97,5,560.302,562,space,1,0.337,,0,1,1,8,1,I,space,,,,,,,,,,
,,,,,R_4s2NXCnJQiUFP9v,001,2025-08-05_08h45.10.636,continuous_performance_test,2024.2.4,MacIntel,62.5,b29cd7b0-b5a8-4253-b680-db61f4bede97,5,562.002,563.85,space,1,0.299,,0,2,2,7,1,H,space,,,,,,,,,,
,,,,,R_4s2NXCnJQiUFP9v,001,2025-08-05_08h45.10.636,continuous_performance_test,2024.2.4,MacIntel,62.5,b29cd7b0-b5a8-4253-b680-db61f4bede97,5,563.852,565.55,space,1,0.316,,0,3,3,15,1,P,space,,,,,,,,,,
,,,,,R_4s2NXCnJQiUFP9v,001,2025-08-05_08h45.10.636,continuous_performance_test,2024.2.4,MacIntel,62.5,b29cd7b0-b5a8-4253-b680-db61f4bede97,5,565.552,567.099,space,1,0.298,,0,4,4,24,1,Z,space,,,,,,,,,,
,,,,,R_4s2NXCnJQiUFP9v,001,2025-08-05_08h45.10.636,continuous_performance_test,2024.2.4,MacIntel,62.5,b29cd7b0-b5a8-4253-b680-db61f4bede97,5,567.101,569.05,space,1,0.264,,0,5,5,21,1,V,space,,,,,,,,,,
,,,,,R_4s2NXCnJQiUFP9v,001,2025-08-05_08h45.10.636,continuous_performance_test,2024.2.4,MacIntel,62.5,b29cd7b0-b5a8-4253-b680-db61f4bede97,5,569.052,570.65,space,1,0.315,,0,6,6,16,1,Q,space,,,,,,,,,,
,,,,,R_4s2NXCnJQiUFP9v,001,2025-08-05_08h45.10.636,continuous_performance_test,2024.2.4,MacIntel,62.5,b29cd7b0-b5a8-4253-b680-db61f4bede97,5,570.652,572.5,space,1,0.316,,0,7,7,1,1,B,space,,,,,,,,,,
,,,,,R_4s2NXCnJQiUFP9v,001,2025-08-05_08h45.10.636,continuous_performance_test,2024.2.4,MacIntel,62.5,b29cd7b0-b5a8-4253-b680-db61f4bede97,5,572.502,574.5,space,1,0.372,,0,8,8,3,1,D,space,,,,,,,,,,
,,,,,R_4s2NXCnJQiUFP9v,001,2025-08-05_08h45.10.636,continuous_performance_test,2024.2.4,MacIntel,62.5,b29cd7b0-b5a8-4253-b680-db61f4bede97,5,574.502,576.3,space,1,0.352,,0,9,9,2,1,C,space,,,,,,,,,,
,,,,,R_4s2NXCnJQiUFP9v,001,2025-08-05_08h45.10.636,continuous_performance_test,2024.2.4,MacIntel,62.5,b29cd7b0-b5a8-4253-b680-db61f4bede97,5,576.302,577.932,space,1,0.303,,0,10,10,9,1,J,space,,,,,,,,,,
,,,,,R_4s2NXCnJQiUFP9v,001,2025-08-05_08h45.10.636,continuous_performance_test,2024.2.4,MacIntel,62.5,b29cd7b0-b5a8-4253-b680-db61f4bede97,5,577.934,579.583,space,1,0.373,,0,11,11,22,1,W,space,,,,,,,,,,
,,,,,R_4s2NXCnJQiUFP9v,001,2025-08-05_08h45.10.636,continuous_performance_test,2024.2.4,MacIntel,62.5,b29cd7b0-b5a8-4253-b680-db61f4bede97,5,579.585,581.433,space,1,0.438,,0,12,12,13,1,N,space,,,,,,,,,,
,,,,,R_4s2NXCnJQiUFP9v,001,2025-08-05_08h45.10.636,continuous_performance_test,2024.2.4,MacIntel,62.5,b29cd7b0-b5a8-4253-b680-db61f4bede97,5,581.435,583.183,space,1,0.349,,0,13,13,10,1,K,space,,,,,,,,,,
,,,,,R_4s2NXCnJQiUFP9v,001,2025-08-05_08h45.10.636,continuous_performance_test,2024.2.4,MacIntel,62.5,b29cd7b0-b5a8-4253-b680-db61f4bede97,5,583.185,585.032,space,0,0.299,,0,14,14,25,1,X,,,,,,,,,,,
,,,,,R_4s2NXCnJQiUFP9v,001,2025-08-05_08h45.10.636,continuous_performance_test,2024.2.4,MacIntel,62.5,b29cd7b0-b5a8-4253-b680-db61f4bede97,5,585.034,587.033,space,1,0.369,,0,15,15,23,1,Y,space,,,,,,,,,,
,,,,,R_4s2NXCnJQiUFP9v,001,2025-08-05_08h45.10.636,continuous_performance_test,2024.2.4,MacIntel,62.5,b29cd7b0-b5a8-4253-b680-db61f4bede97,5,587.035,588.883,space,1,0.497,,0,16,16,20,1,U,space,,,,,,,,,,
,,,,,R_4s2NXCnJQiUFP9v,001,2025-08-05_08h45.10.636,continuous_performance_test,2024.2.4,MacIntel,62.5,b29cd7b0-b5a8-4253-b680-db61f4bede97,5,588.885,590.683,space,0,0.376,,0,17,17,27,1,X,,,,,,,,,,,
,,,,,R_4s2NXCnJQiUFP9v,001,2025-08-05_08h45.10.636,continuous_performance_test,2024.2.4,MacIntel,62.5,b29cd7b0-b5a8-4253-b680-db61f4bede97,5,590.685,592.483,space,0,0.344,,0,18,18,28,1,X,,,,,,,,,,,
,,,,,R_4s2NXCnJQiUFP9v,001,2025-08-05_08h45.10.636,continuous_performance_test,2024.2.4,MacIntel,62.5,b29cd7b0-b5a8-4253-b680-db61f4bede97,5,592.485,594.384,space,1,0.682,,0,19,19,12,1,M,space,,,,,,,,,,
,,,,,R_4s2NXCnJQiUFP9v,001,2025-08-05_08h45.10.636,continuous_performance_test,2024.2.4,MacIntel,62.5,b29cd7b0-b5a8-4253-b680-db61f4bede97,5,594.386,596.283,space,1,0.773,,0,20,20,4,1,E,space,,,,,,,,,,
,,,,,R_4s2NXCnJQiUFP9v,001,2025-08-05_08h45.10.636,continuous_performance_test,2024.2.4,MacIntel,62.5,b29cd7b0-b5a8-4253-b680-db61f4bede97,5,596.285,597.883,space,0,0.482,,0,21,21,26,1,X,,,,,,,,,,,
,,,,,R_4s2NXCnJQiUFP9v,001,2025-08-05_08h45.10.636,continuous_performance_test,2024.2.4,MacIntel,62.5,b29cd7b0-b5a8-4253-b680-db61f4bede97,5,597.886,599.683,space,1,0.801,,0,22,22,0,1,A,space,,,,,,,,,,
,,,,,R_4s2NXCnJQiUFP9v,001,2025-08-05_08h45.10.636,continuous_performance_test,2024.2.4,MacIntel,62.5,b29cd7b0-b5a8-4253-b680-db61f4bede97,5,599.685,601.433,space,1,0.482,,0,23,23,5,1,F,space,,,,,,,,,,
,,,,,R_4s2NXCnJQiUFP9v,001,2025-08-05_08h45.10.636,continuous_performance_test,2024.2.4,MacIntel,62.5,b29cd7b0-b5a8-4253-b680-db61f4bede97,5,601.435,603.283,space,1,0.4,,0,24,24,19,1,T,space,,,,,,,,,,
,,,,,R_4s2NXCnJQiUFP9v,001,2025-08-05_08h45.10.636,continuous_performance_test,2024.2.4,MacIntel,62.5,b29cd7b0-b5a8-4253-b680-db61f4bede97,5,603.285,605.083,space,1,0.548,,0,25,25,17,1,R,space,,,,,,,,,,
,,,,,R_4s2NXCnJQiUFP9v,001,2025-08-05_08h45.10.636,continuous_performance_test,2024.2.4,MacIntel,62.5,b29cd7b0-b5a8-4253-b680-db61f4bede97,5,605.085,607.033,space,1,0.401,,0,26,26,18,1,S,space,,,,,,,,,,
,,,,,R_4s2NXCnJQiUFP9v,001,2025-08-05_08h45.10.636,continuous_performance_test,2024.2.4,MacIntel,62.5,b29cd7b0-b5a8-4253-b680-db61f4bede97,5,607.036,609.033,space,0,0.584,,0,27,27,29,1,X,,,,,,,,,,,
,,,,,R_4s2NXCnJQiUFP9v,001,2025-08-05_08h45.10.636,continuous_performance_test,2024.2.4,MacIntel,62.5,b29cd7b0-b5a8-4253-b680-db61f4bede97,5,609.035,610.682,space,1,0.902,,0,28,28,14,1,O,space,,,,,,,,,,
,,,,,R_4s2NXCnJQiUFP9v,001,2025-08-05_08h45.10.636,continuous_performance_test,2024.2.4,MacIntel,62.5,b29cd7b0-b5a8-4253-b680-db61f4bede97,5,610.684,612.633,space,1,0.533,,0,29,29,11,1,L,space,,,,,,,,,,
,,,,,R_4s2NXCnJQiUFP9v,001,2025-08-05_08h45.10.636,continuous_performance_test,2024.2.4,MacIntel,62.5,b29cd7b0-b5a8-4253-b680-db61f4bede97,5,,,,,,,,,,,,,,612.636,612.638,,,,612.638,616.068,space,3.401,
