Instructions.started,Instructions.stopped,key_resp.keys,key_resp.rt,key_resp.duration,participant,session,date,expName,psychopyVersion,OS,frameRate,realeye-tester-id,realeye-tester-quality_grade,Trial_noX.started,Trial_noX.stopped,response.keys,response.corr,response.rt,response.duration,trials_noX.thisRepN,trials_noX.thisTrialN,trials_noX.thisN,trials_noX.thisIndex,trials_noX.ran,letter,corrAns,BlockBreak.started,BlockBreak.stopped,key_instruct.keys,key_instruct.rt,key_instruct.duration,End_NoX.started,End_NoX.stopped,key_resp_end_noX.keys,key_resp_end_noX.rt,key_resp_end_noX.duration
0.0003,27.6276,space,27.5989,,R_4s63GuhpzAdK4jj,001,2025-09-05_18h14.55.652,continuous_performance_test,2024.2.4,MacIntel,58.82352941,521ead57-2098-4907-947d-fccba963edb4,6,,,,,,,,,,,,,,,,,,,,,,,
,,,,,R_4s63GuhpzAdK4jj,001,2025-09-05_18h14.55.652,continuous_performance_test,2024.2.4,MacIntel,58.82352941,521ead57-2098-4907-947d-fccba963edb4,6,27.6485,29.5938,space,1,0.7065,,0,0,0,5,1,F,space,,,,,,,,,,
,,,,,R_4s63GuhpzAdK4jj,001,2025-09-05_18h14.55.652,continuous_performance_test,2024.2.4,MacIntel,58.82352941,521ead57-2098-4907-947d-fccba963edb4,6,29.5955,31.4435,space,1,0.3231,,0,1,1,2,1,C,space,,,,,,,,,,
,,,,,R_4s63GuhpzAdK4jj,001,2025-09-05_18h14.55.652,continuous_performance_test,2024.2.4,MacIntel,58.82352941,521ead57-2098-4907-947d-fccba963edb4,6,31.4449,33.1435,space,1,0.3751,,0,2,2,0,1,A,space,,,,,,,,,,
,,,,,R_4s63GuhpzAdK4jj,001,2025-09-05_18h14.55.652,continuous_performance_test,2024.2.4,MacIntel,58.82352941,521ead57-2098-4907-947d-fccba963edb4,6,33.1449,34.8935,space,0,0.2765,,0,3,3,26,1,X,,,,,,,,,,,
,,,,,R_4s63GuhpzAdK4jj,001,2025-09-05_18h14.55.652,continuous_performance_test,2024.2.4,MacIntel,58.82352941,521ead57-2098-4907-947d-fccba963edb4,6,34.8949,36.4426,space,1,0.3233,,0,4,4,21,1,V,space,,,,,,,,,,
,,,,,R_4s63GuhpzAdK4jj,001,2025-09-05_18h14.55.652,continuous_performance_test,2024.2.4,MacIntel,58.82352941,521ead57-2098-4907-947d-fccba963edb4,6,36.444,37.9935,space,1,0.3269,,0,5,5,20,1,U,space,,,,,,,,,,
,,,,,R_4s63GuhpzAdK4jj,001,2025-09-05_18h14.55.652,continuous_performance_test,2024.2.4,MacIntel,58.82352941,521ead57-2098-4907-947d-fccba963edb4,6,37.9951,39.6936,space,1,0.2822,,0,6,6,10,1,K,space,,,,,,,,,,
,,,,,R_4s63GuhpzAdK4jj,001,2025-09-05_18h14.55.652,continuous_performance_test,2024.2.4,MacIntel,58.82352941,521ead57-2098-4907-947d-fccba963edb4,6,39.695,41.2435,space,1,0.3942,,0,7,7,12,1,M,space,,,,,,,,,,
,,,,,R_4s63GuhpzAdK4jj,001,2025-09-05_18h14.55.652,continuous_performance_test,2024.2.4,MacIntel,58.82352941,521ead57-2098-4907-947d-fccba963edb4,6,41.245,42.9936,space,1,0.429,,0,8,8,14,1,O,space,,,,,,,,,,
,,,,,R_4s63GuhpzAdK4jj,001,2025-09-05_18h14.55.652,continuous_performance_test,2024.2.4,MacIntel,58.82352941,521ead57-2098-4907-947d-fccba963edb4,6,42.9952,44.7937,space,1,0.3768,,0,9,9,19,1,T,space,,,,,,,,,,
,,,,,R_4s63GuhpzAdK4jj,001,2025-09-05_18h14.55.652,continuous_performance_test,2024.2.4,MacIntel,58.82352941,521ead57-2098-4907-947d-fccba963edb4,6,44.7954,46.4427,space,1,0.3651,,0,10,10,3,1,D,space,,,,,,,,,,
,,,,,R_4s63GuhpzAdK4jj,001,2025-09-05_18h14.55.652,continuous_performance_test,2024.2.4,MacIntel,58.82352941,521ead57-2098-4907-947d-fccba963edb4,6,46.4439,48.2927,,1,,,0,11,11,28,1,X,,,,,,,,,,,
,,,,,R_4s63GuhpzAdK4jj,001,2025-09-05_18h14.55.652,continuous_performance_test,2024.2.4,MacIntel,58.82352941,521ead57-2098-4907-947d-fccba963edb4,6,48.2938,49.8437,,1,,,0,12,12,29,1,X,,,,,,,,,,,
,,,,,R_4s63GuhpzAdK4jj,001,2025-09-05_18h14.55.652,continuous_performance_test,2024.2.4,MacIntel,58.82352941,521ead57-2098-4907-947d-fccba963edb4,6,49.845,51.5938,space,1,0.3489,,0,13,13,15,1,P,space,,,,,,,,,,
,,,,,R_4s63GuhpzAdK4jj,001,2025-09-05_18h14.55.652,continuous_performance_test,2024.2.4,MacIntel,58.82352941,521ead57-2098-4907-947d-fccba963edb4,6,51.5957,53.1438,space,1,0.3959,,0,14,14,17,1,R,space,,,,,,,,,,
,,,,,R_4s63GuhpzAdK4jj,001,2025-09-05_18h14.55.652,continuous_performance_test,2024.2.4,MacIntel,58.82352941,521ead57-2098-4907-947d-fccba963edb4,6,53.1451,54.9437,space,1,0.3953,,0,15,15,23,1,Y,space,,,,,,,,,,
,,,,,R_4s63GuhpzAdK4jj,001,2025-09-05_18h14.55.652,continuous_performance_test,2024.2.4,MacIntel,58.82352941,521ead57-2098-4907-947d-fccba963edb4,6,54.9452,56.6439,space,1,0.2437,,0,16,16,24,1,Z,space,,,,,,,,,,
,,,,,R_4s63GuhpzAdK4jj,001,2025-09-05_18h14.55.652,continuous_performance_test,2024.2.4,MacIntel,58.82352941,521ead57-2098-4907-947d-fccba963edb4,6,56.6456,58.5938,space,1,0.2895,,0,17,17,13,1,N,space,,,,,,,,,,
,,,,,R_4s63GuhpzAdK4jj,001,2025-09-05_18h14.55.652,continuous_performance_test,2024.2.4,MacIntel,58.82352941,521ead57-2098-4907-947d-fccba963edb4,6,58.5951,60.3939,space,1,0.2671,,0,18,18,4,1,E,space,,,,,,,,,,
,,,,,R_4s63GuhpzAdK4jj,001,2025-09-05_18h14.55.652,continuous_performance_test,2024.2.4,MacIntel,58.82352941,521ead57-2098-4907-947d-fccba963edb4,6,60.3953,62.2933,space,1,0.2882,,0,19,19,11,1,L,space,,,,,,,,,,
,,,,,R_4s63GuhpzAdK4jj,001,2025-09-05_18h14.55.652,continuous_performance_test,2024.2.4,MacIntel,58.82352941,521ead57-2098-4907-947d-fccba963edb4,6,62.2947,64.0939,space,1,0.315,,0,20,20,18,1,S,space,,,,,,,,,,
,,,,,R_4s63GuhpzAdK4jj,001,2025-09-05_18h14.55.652,continuous_performance_test,2024.2.4,MacIntel,58.82352941,521ead57-2098-4907-947d-fccba963edb4,6,64.0955,65.7437,space,1,0.359,,0,21,21,1,1,B,space,,,,,,,,,,
,,,,,R_4s63GuhpzAdK4jj,001,2025-09-05_18h14.55.652,continuous_performance_test,2024.2.4,MacIntel,58.82352941,521ead57-2098-4907-947d-fccba963edb4,6,65.7449,67.694,,1,,,0,22,22,25,1,X,,,,,,,,,,,
,,,,,R_4s63GuhpzAdK4jj,001,2025-09-05_18h14.55.652,continuous_performance_test,2024.2.4,MacIntel,58.82352941,521ead57-2098-4907-947d-fccba963edb4,6,67.6949,69.343,,1,,,0,23,23,27,1,X,,,,,,,,,,,
,,,,,R_4s63GuhpzAdK4jj,001,2025-09-05_18h14.55.652,continuous_performance_test,2024.2.4,MacIntel,58.82352941,521ead57-2098-4907-947d-fccba963edb4,6,69.3442,71.1441,space,1,0.4096,,0,24,24,6,1,G,space,,,,,,,,,,
,,,,,R_4s63GuhpzAdK4jj,001,2025-09-05_18h14.55.652,continuous_performance_test,2024.2.4,MacIntel,58.82352941,521ead57-2098-4907-947d-fccba963edb4,6,71.1456,72.794,space,1,0.3119,,0,25,25,8,1,I,space,,,,,,,,,,
,,,,,R_4s63GuhpzAdK4jj,001,2025-09-05_18h14.55.652,continuous_performance_test,2024.2.4,MacIntel,58.82352941,521ead57-2098-4907-947d-fccba963edb4,6,72.7954,74.7438,space,1,0.3438,,0,26,26,9,1,J,space,,,,,,,,,,
,,,,,R_4s63GuhpzAdK4jj,001,2025-09-05_18h14.55.652,continuous_performance_test,2024.2.4,MacIntel,58.82352941,521ead57-2098-4907-947d-fccba963edb4,6,74.745,76.6441,space,1,0.3459,,0,27,27,7,1,H,space,,,,,,,,,,
,,,,,R_4s63GuhpzAdK4jj,001,2025-09-05_18h14.55.652,continuous_performance_test,2024.2.4,MacIntel,58.82352941,521ead57-2098-4907-947d-fccba963edb4,6,76.6454,78.4941,space,1,0.325,,0,28,28,16,1,Q,space,,,,,,,,,,
,,,,,R_4s63GuhpzAdK4jj,001,2025-09-05_18h14.55.652,continuous_performance_test,2024.2.4,MacIntel,58.82352941,521ead57-2098-4907-947d-fccba963edb4,6,78.4955,80.4442,space,1,0.4686,,0,29,29,22,1,W,space,,,,,,,,,,
,,,,,R_4s63GuhpzAdK4jj,001,2025-09-05_18h14.55.652,continuous_performance_test,2024.2.4,MacIntel,58.82352941,521ead57-2098-4907-947d-fccba963edb4,6,86.8696,88.5611,space,1,0.4171,,0,0,0,14,1,O,space,80.4448,86.8603,space,6.3948,,,,,,
,,,,,R_4s63GuhpzAdK4jj,001,2025-09-05_18h14.55.652,continuous_performance_test,2024.2.4,MacIntel,58.82352941,521ead57-2098-4907-947d-fccba963edb4,6,88.5623,90.161,space,1,0.3267,,0,1,1,8,1,I,space,,,,,,,,,,
,,,,,R_4s63GuhpzAdK4jj,001,2025-09-05_18h14.55.652,continuous_performance_test,2024.2.4,MacIntel,58.82352941,521ead57-2098-4907-947d-fccba963edb4,6,90.1622,92.0601,space,1,0.2987,,0,2,2,3,1,D,space,,,,,,,,,,
,,,,,R_4s63GuhpzAdK4jj,001,2025-09-05_18h14.55.652,continuous_performance_test,2024.2.4,MacIntel,58.82352941,521ead57-2098-4907-947d-fccba963edb4,6,92.0612,94.0608,space,1,0.3127,,0,3,3,15,1,P,space,,,,,,,,,,
,,,,,R_4s63GuhpzAdK4jj,001,2025-09-05_18h14.55.652,continuous_performance_test,2024.2.4,MacIntel,58.82352941,521ead57-2098-4907-947d-fccba963edb4,6,94.0621,96.0111,space,1,0.2808,,0,4,4,4,1,E,space,,,,,,,,,,
,,,,,R_4s63GuhpzAdK4jj,001,2025-09-05_18h14.55.652,continuous_performance_test,2024.2.4,MacIntel,58.82352941,521ead57-2098-4907-947d-fccba963edb4,6,96.0123,97.8611,space,1,0.3017,,0,5,5,7,1,H,space,,,,,,,,,,
,,,,,R_4s63GuhpzAdK4jj,001,2025-09-05_18h14.55.652,continuous_performance_test,2024.2.4,MacIntel,58.82352941,521ead57-2098-4907-947d-fccba963edb4,6,97.8621,99.811,space,1,0.2673,,0,6,6,1,1,B,space,,,,,,,,,,
,,,,,R_4s63GuhpzAdK4jj,001,2025-09-05_18h14.55.652,continuous_performance_test,2024.2.4,MacIntel,58.82352941,521ead57-2098-4907-947d-fccba963edb4,6,99.8123,101.4598,space,1,0.2797,,0,7,7,5,1,F,space,,,,,,,,,,
,,,,,R_4s63GuhpzAdK4jj,001,2025-09-05_18h14.55.652,continuous_performance_test,2024.2.4,MacIntel,58.82352941,521ead57-2098-4907-947d-fccba963edb4,6,101.4603,103.3112,space,1,0.3919,,0,8,8,24,1,Z,space,,,,,,,,,,
,,,,,R_4s63GuhpzAdK4jj,001,2025-09-05_18h14.55.652,continuous_performance_test,2024.2.4,MacIntel,58.82352941,521ead57-2098-4907-947d-fccba963edb4,6,103.3125,104.9612,space,1,0.4568,,0,9,9,22,1,W,space,,,,,,,,,,
,,,,,R_4s63GuhpzAdK4jj,001,2025-09-05_18h14.55.652,continuous_performance_test,2024.2.4,MacIntel,58.82352941,521ead57-2098-4907-947d-fccba963edb4,6,104.9625,106.6606,,1,,,0,10,10,28,1,X,,,,,,,,,,,
,,,,,R_4s63GuhpzAdK4jj,001,2025-09-05_18h14.55.652,continuous_performance_test,2024.2.4,MacIntel,58.82352941,521ead57-2098-4907-947d-fccba963edb4,6,106.6617,108.6603,,1,,,0,11,11,27,1,X,,,,,,,,,,,
,,,,,R_4s63GuhpzAdK4jj,001,2025-09-05_18h14.55.652,continuous_performance_test,2024.2.4,MacIntel,58.82352941,521ead57-2098-4907-947d-fccba963edb4,6,108.6614,110.4112,space,1,0.4513,,0,12,12,23,1,Y,space,,,,,,,,,,
,,,,,R_4s63GuhpzAdK4jj,001,2025-09-05_18h14.55.652,continuous_performance_test,2024.2.4,MacIntel,58.82352941,521ead57-2098-4907-947d-fccba963edb4,6,110.4121,112.1104,space,1,0.4156,,0,13,13,11,1,L,space,,,,,,,,,,
,,,,,R_4s63GuhpzAdK4jj,001,2025-09-05_18h14.55.652,continuous_performance_test,2024.2.4,MacIntel,58.82352941,521ead57-2098-4907-947d-fccba963edb4,6,112.1116,113.6613,space,1,0.3574,,0,14,14,21,1,V,space,,,,,,,,,,
,,,,,R_4s63GuhpzAdK4jj,001,2025-09-05_18h14.55.652,continuous_performance_test,2024.2.4,MacIntel,58.82352941,521ead57-2098-4907-947d-fccba963edb4,6,113.6626,115.6613,space,0,0.2867,,0,15,15,26,1,X,,,,,,,,,,,
,,,,,R_4s63GuhpzAdK4jj,001,2025-09-05_18h14.55.652,continuous_performance_test,2024.2.4,MacIntel,58.82352941,521ead57-2098-4907-947d-fccba963edb4,6,115.6626,117.261,space,1,0.3631,,0,16,16,2,1,C,space,,,,,,,,,,
,,,,,R_4s63GuhpzAdK4jj,001,2025-09-05_18h14.55.652,continuous_performance_test,2024.2.4,MacIntel,58.82352941,521ead57-2098-4907-947d-fccba963edb4,6,117.2622,119.2115,space,1,0.295,,0,17,17,12,1,M,space,,,,,,,,,,
,,,,,R_4s63GuhpzAdK4jj,001,2025-09-05_18h14.55.652,continuous_performance_test,2024.2.4,MacIntel,58.82352941,521ead57-2098-4907-947d-fccba963edb4,6,119.2131,121.0114,space,1,0.3119,,0,18,18,10,1,K,space,,,,,,,,,,
,,,,,R_4s63GuhpzAdK4jj,001,2025-09-05_18h14.55.652,continuous_performance_test,2024.2.4,MacIntel,58.82352941,521ead57-2098-4907-947d-fccba963edb4,6,121.0126,122.7115,space,1,0.3391,,0,19,19,6,1,G,space,,,,,,,,,,
,,,,,R_4s63GuhpzAdK4jj,001,2025-09-05_18h14.55.652,continuous_performance_test,2024.2.4,MacIntel,58.82352941,521ead57-2098-4907-947d-fccba963edb4,6,122.7128,124.3106,space,1,0.3918,,0,20,20,19,1,T,space,,,,,,,,,,
,,,,,R_4s63GuhpzAdK4jj,001,2025-09-05_18h14.55.652,continuous_performance_test,2024.2.4,MacIntel,58.82352941,521ead57-2098-4907-947d-fccba963edb4,6,124.3118,126.2606,space,1,0.3989,,0,21,21,17,1,R,space,,,,,,,,,,
,,,,,R_4s63GuhpzAdK4jj,001,2025-09-05_18h14.55.652,continuous_performance_test,2024.2.4,MacIntel,58.82352941,521ead57-2098-4907-947d-fccba963edb4,6,126.2618,128.1115,,1,,,0,22,22,29,1,X,,,,,,,,,,,
,,,,,R_4s63GuhpzAdK4jj,001,2025-09-05_18h14.55.652,continuous_performance_test,2024.2.4,MacIntel,58.82352941,521ead57-2098-4907-947d-fccba963edb4,6,128.1128,129.8117,space,1,0.2969,,0,23,23,0,1,A,space,,,,,,,,,,
,,,,,R_4s63GuhpzAdK4jj,001,2025-09-05_18h14.55.652,continuous_performance_test,2024.2.4,MacIntel,58.82352941,521ead57-2098-4907-947d-fccba963edb4,6,129.8133,131.8115,space,1,0.2749,,0,24,24,20,1,U,space,,,,,,,,,,
,,,,,R_4s63GuhpzAdK4jj,001,2025-09-05_18h14.55.652,continuous_performance_test,2024.2.4,MacIntel,58.82352941,521ead57-2098-4907-947d-fccba963edb4,6,131.8127,133.3616,space,1,0.2927,,0,25,25,16,1,Q,space,,,,,,,,,,
,,,,,R_4s63GuhpzAdK4jj,001,2025-09-05_18h14.55.652,continuous_performance_test,2024.2.4,MacIntel,58.82352941,521ead57-2098-4907-947d-fccba963edb4,6,133.3628,135.3117,space,1,0.3477,,0,26,26,9,1,J,space,,,,,,,,,,
,,,,,R_4s63GuhpzAdK4jj,001,2025-09-05_18h14.55.652,continuous_performance_test,2024.2.4,MacIntel,58.82352941,521ead57-2098-4907-947d-fccba963edb4,6,135.313,137.2618,space,0,0.3303,,0,27,27,25,1,X,,,,,,,,,,,
,,,,,R_4s63GuhpzAdK4jj,001,2025-09-05_18h14.55.652,continuous_performance_test,2024.2.4,MacIntel,58.82352941,521ead57-2098-4907-947d-fccba963edb4,6,137.2629,138.9617,space,1,0.408,,0,28,28,13,1,N,space,,,,,,,,,,
,,,,,R_4s63GuhpzAdK4jj,001,2025-09-05_18h14.55.652,continuous_performance_test,2024.2.4,MacIntel,58.82352941,521ead57-2098-4907-947d-fccba963edb4,6,138.963,140.6617,space,1,0.2431,,0,29,29,18,1,S,space,,,,,,,,,,
,,,,,R_4s63GuhpzAdK4jj,001,2025-09-05_18h14.55.652,continuous_performance_test,2024.2.4,MacIntel,58.82352941,521ead57-2098-4907-947d-fccba963edb4,6,144.4202,146.4115,,1,,,0,0,0,27,1,X,,140.663,144.4119,space,3.7248,,,,,,
,,,,,R_4s63GuhpzAdK4jj,001,2025-09-05_18h14.55.652,continuous_performance_test,2024.2.4,MacIntel,58.82352941,521ead57-2098-4907-947d-fccba963edb4,6,146.4122,148.1618,,1,,,0,1,1,28,1,X,,,,,,,,,,,
,,,,,R_4s63GuhpzAdK4jj,001,2025-09-05_18h14.55.652,continuous_performance_test,2024.2.4,MacIntel,58.82352941,521ead57-2098-4907-947d-fccba963edb4,6,148.1631,150.0118,space,1,0.3118,,0,2,2,20,1,U,space,,,,,,,,,,
,,,,,R_4s63GuhpzAdK4jj,001,2025-09-05_18h14.55.652,continuous_performance_test,2024.2.4,MacIntel,58.82352941,521ead57-2098-4907-947d-fccba963edb4,6,150.0131,151.5619,space,1,0.31,,0,3,3,13,1,N,space,,,,,,,,,,
,,,,,R_4s63GuhpzAdK4jj,001,2025-09-05_18h14.55.652,continuous_performance_test,2024.2.4,MacIntel,58.82352941,521ead57-2098-4907-947d-fccba963edb4,6,151.563,153.5119,space,1,0.2636,,0,4,4,3,1,D,space,,,,,,,,,,
,,,,,R_4s63GuhpzAdK4jj,001,2025-09-05_18h14.55.652,continuous_performance_test,2024.2.4,MacIntel,58.82352941,521ead57-2098-4907-947d-fccba963edb4,6,153.5132,155.4119,space,1,0.2969,,0,5,5,4,1,E,space,,,,,,,,,,
,,,,,R_4s63GuhpzAdK4jj,001,2025-09-05_18h14.55.652,continuous_performance_test,2024.2.4,MacIntel,58.82352941,521ead57-2098-4907-947d-fccba963edb4,6,155.413,157.0119,space,1,0.2972,,0,6,6,16,1,Q,space,,,,,,,,,,
,,,,,R_4s63GuhpzAdK4jj,001,2025-09-05_18h14.55.652,continuous_performance_test,2024.2.4,MacIntel,58.82352941,521ead57-2098-4907-947d-fccba963edb4,6,157.0132,158.8622,space,0,0.3149,,0,7,7,26,1,X,,,,,,,,,,,
,,,,,R_4s63GuhpzAdK4jj,001,2025-09-05_18h14.55.652,continuous_performance_test,2024.2.4,MacIntel,58.82352941,521ead57-2098-4907-947d-fccba963edb4,6,158.8635,160.762,space,1,0.2784,,0,8,8,7,1,H,space,,,,,,,,,,
,,,,,R_4s63GuhpzAdK4jj,001,2025-09-05_18h14.55.652,continuous_performance_test,2024.2.4,MacIntel,58.82352941,521ead57-2098-4907-947d-fccba963edb4,6,160.7631,162.7621,space,1,0.2788,,0,9,9,6,1,G,space,,,,,,,,,,
,,,,,R_4s63GuhpzAdK4jj,001,2025-09-05_18h14.55.652,continuous_performance_test,2024.2.4,MacIntel,58.82352941,521ead57-2098-4907-947d-fccba963edb4,6,162.7632,164.7111,space,1,0.2296,,0,10,10,17,1,R,space,,,,,,,,,,
,,,,,R_4s63GuhpzAdK4jj,001,2025-09-05_18h14.55.652,continuous_performance_test,2024.2.4,MacIntel,58.82352941,521ead57-2098-4907-947d-fccba963edb4,6,164.7123,166.4112,space,1,0.1126,,0,11,11,18,1,S,space,,,,,,,,,,
,,,,,R_4s63GuhpzAdK4jj,001,2025-09-05_18h14.55.652,continuous_performance_test,2024.2.4,MacIntel,58.82352941,521ead57-2098-4907-947d-fccba963edb4,6,166.4124,168.0121,space,1,0.2756,,0,12,12,1,1,B,space,,,,,,,,,,
,,,,,R_4s63GuhpzAdK4jj,001,2025-09-05_18h14.55.652,continuous_performance_test,2024.2.4,MacIntel,58.82352941,521ead57-2098-4907-947d-fccba963edb4,6,168.0133,169.8621,space,1,0.0344,,0,13,13,22,1,W,space,,,,,,,,,,
,,,,,R_4s63GuhpzAdK4jj,001,2025-09-05_18h14.55.652,continuous_performance_test,2024.2.4,MacIntel,58.82352941,521ead57-2098-4907-947d-fccba963edb4,6,169.8633,171.4121,space,1,0.2179,,0,14,14,10,1,K,space,,,,,,,,,,
,,,,,R_4s63GuhpzAdK4jj,001,2025-09-05_18h14.55.652,continuous_performance_test,2024.2.4,MacIntel,58.82352941,521ead57-2098-4907-947d-fccba963edb4,6,171.4133,173.2616,space,1,0.2792,,0,15,15,5,1,F,space,,,,,,,,,,
,,,,,R_4s63GuhpzAdK4jj,001,2025-09-05_18h14.55.652,continuous_performance_test,2024.2.4,MacIntel,58.82352941,521ead57-2098-4907-947d-fccba963edb4,6,173.2625,175.2622,space,1,0.308,,0,16,16,2,1,C,space,,,,,,,,,,
,,,,,R_4s63GuhpzAdK4jj,001,2025-09-05_18h14.55.652,continuous_performance_test,2024.2.4,MacIntel,58.82352941,521ead57-2098-4907-947d-fccba963edb4,6,175.2635,176.8623,space,0,0.3585,,0,17,17,25,1,X,,,,,,,,,,,
,,,,,R_4s63GuhpzAdK4jj,001,2025-09-05_18h14.55.652,continuous_performance_test,2024.2.4,MacIntel,58.82352941,521ead57-2098-4907-947d-fccba963edb4,6,176.8635,178.6614,space,1,0.275,,0,18,18,14,1,O,space,,,,,,,,,,
,,,,,R_4s63GuhpzAdK4jj,001,2025-09-05_18h14.55.652,continuous_performance_test,2024.2.4,MacIntel,58.82352941,521ead57-2098-4907-947d-fccba963edb4,6,178.6628,180.2613,space,1,0.3298,,0,19,19,11,1,L,space,,,,,,,,,,
,,,,,R_4s63GuhpzAdK4jj,001,2025-09-05_18h14.55.652,continuous_performance_test,2024.2.4,MacIntel,58.82352941,521ead57-2098-4907-947d-fccba963edb4,6,180.2625,182.2123,space,1,0.3139,,0,20,20,15,1,P,space,,,,,,,,,,
,,,,,R_4s63GuhpzAdK4jj,001,2025-09-05_18h14.55.652,continuous_performance_test,2024.2.4,MacIntel,58.82352941,521ead57-2098-4907-947d-fccba963edb4,6,182.2136,184.1123,space,0,0.2685,,0,21,21,29,1,X,,,,,,,,,,,
,,,,,R_4s63GuhpzAdK4jj,001,2025-09-05_18h14.55.652,continuous_performance_test,2024.2.4,MacIntel,58.82352941,521ead57-2098-4907-947d-fccba963edb4,6,184.1135,185.8123,space,1,0.3286,,0,22,22,8,1,I,space,,,,,,,,,,
,,,,,R_4s63GuhpzAdK4jj,001,2025-09-05_18h14.55.652,continuous_performance_test,2024.2.4,MacIntel,58.82352941,521ead57-2098-4907-947d-fccba963edb4,6,185.8137,187.5615,space,1,0.2805,,0,23,23,21,1,V,space,,,,,,,,,,
,,,,,R_4s63GuhpzAdK4jj,001,2025-09-05_18h14.55.652,continuous_performance_test,2024.2.4,MacIntel,58.82352941,521ead57-2098-4907-947d-fccba963edb4,6,187.5628,189.2125,space,1,0.2944,,0,24,24,0,1,A,space,,,,,,,,,,
,,,,,R_4s63GuhpzAdK4jj,001,2025-09-05_18h14.55.652,continuous_performance_test,2024.2.4,MacIntel,58.82352941,521ead57-2098-4907-947d-fccba963edb4,6,189.2136,191.0121,space,1,0.293,,0,25,25,19,1,T,space,,,,,,,,,,
,,,,,R_4s63GuhpzAdK4jj,001,2025-09-05_18h14.55.652,continuous_performance_test,2024.2.4,MacIntel,58.82352941,521ead57-2098-4907-947d-fccba963edb4,6,191.0133,193.0124,,0,,,0,26,26,9,1,J,space,,,,,,,,,,
,,,,,R_4s63GuhpzAdK4jj,001,2025-09-05_18h14.55.652,continuous_performance_test,2024.2.4,MacIntel,58.82352941,521ead57-2098-4907-947d-fccba963edb4,6,193.0135,194.9625,space,1,0.2596,,0,27,27,23,1,Y,space,,,,,,,,,,
,,,,,R_4s63GuhpzAdK4jj,001,2025-09-05_18h14.55.652,continuous_performance_test,2024.2.4,MacIntel,58.82352941,521ead57-2098-4907-947d-fccba963edb4,6,194.9636,196.5125,space,1,0.4177,,0,28,28,24,1,Z,space,,,,,,,,,,
,,,,,R_4s63GuhpzAdK4jj,001,2025-09-05_18h14.55.652,continuous_performance_test,2024.2.4,MacIntel,58.82352941,521ead57-2098-4907-947d-fccba963edb4,6,196.5137,198.2117,space,1,0.611,,0,29,29,12,1,M,space,,,,,,,,,,
,,,,,R_4s63GuhpzAdK4jj,001,2025-09-05_18h14.55.652,continuous_performance_test,2024.2.4,MacIntel,58.82352941,521ead57-2098-4907-947d-fccba963edb4,6,202.7033,204.4451,space,1,0.3628,,0,0,0,15,1,P,space,198.2128,202.6962,space,4.4735,,,,,,
,,,,,R_4s63GuhpzAdK4jj,001,2025-09-05_18h14.55.652,continuous_performance_test,2024.2.4,MacIntel,58.82352941,521ead57-2098-4907-947d-fccba963edb4,6,204.4464,205.9956,,1,,,0,1,1,25,1,X,,,,,,,,,,,
,,,,,R_4s63GuhpzAdK4jj,001,2025-09-05_18h14.55.652,continuous_performance_test,2024.2.4,MacIntel,58.82352941,521ead57-2098-4907-947d-fccba963edb4,6,205.9961,207.746,space,1,0.4232,,0,2,2,23,1,Y,space,,,,,,,,,,
,,,,,R_4s63GuhpzAdK4jj,001,2025-09-05_18h14.55.652,continuous_performance_test,2024.2.4,MacIntel,58.82352941,521ead57-2098-4907-947d-fccba963edb4,6,207.7472,209.3461,space,1,0.3254,,0,3,3,21,1,V,space,,,,,,,,,,
,,,,,R_4s63GuhpzAdK4jj,001,2025-09-05_18h14.55.652,continuous_performance_test,2024.2.4,MacIntel,58.82352941,521ead57-2098-4907-947d-fccba963edb4,6,209.3471,211.0962,space,1,0.3007,,0,4,4,7,1,H,space,,,,,,,,,,
,,,,,R_4s63GuhpzAdK4jj,001,2025-09-05_18h14.55.652,continuous_performance_test,2024.2.4,MacIntel,58.82352941,521ead57-2098-4907-947d-fccba963edb4,6,211.0973,213.0462,space,1,0.3099,,0,5,5,10,1,K,space,,,,,,,,,,
,,,,,R_4s63GuhpzAdK4jj,001,2025-09-05_18h14.55.652,continuous_performance_test,2024.2.4,MacIntel,58.82352941,521ead57-2098-4907-947d-fccba963edb4,6,213.0477,214.5962,space,0,0.3248,,0,6,6,27,1,X,,,,,,,,,,,
,,,,,R_4s63GuhpzAdK4jj,001,2025-09-05_18h14.55.652,continuous_performance_test,2024.2.4,MacIntel,58.82352941,521ead57-2098-4907-947d-fccba963edb4,6,214.5973,216.1453,space,1,0.2582,,0,7,7,24,1,Z,space,,,,,,,,,,
,,,,,R_4s63GuhpzAdK4jj,001,2025-09-05_18h14.55.652,continuous_performance_test,2024.2.4,MacIntel,58.82352941,521ead57-2098-4907-947d-fccba963edb4,6,216.1463,217.7962,space,1,0.2581,,0,8,8,0,1,A,space,,,,,,,,,,
,,,,,R_4s63GuhpzAdK4jj,001,2025-09-05_18h14.55.652,continuous_performance_test,2024.2.4,MacIntel,58.82352941,521ead57-2098-4907-947d-fccba963edb4,6,217.7973,219.4963,space,1,0.2622,,0,9,9,11,1,L,space,,,,,,,,,,
,,,,,R_4s63GuhpzAdK4jj,001,2025-09-05_18h14.55.652,continuous_performance_test,2024.2.4,MacIntel,58.82352941,521ead57-2098-4907-947d-fccba963edb4,6,219.4974,221.2454,space,0,0.2462,,0,10,10,29,1,X,,,,,,,,,,,
,,,,,R_4s63GuhpzAdK4jj,001,2025-09-05_18h14.55.652,continuous_performance_test,2024.2.4,MacIntel,58.82352941,521ead57-2098-4907-947d-fccba963edb4,6,221.2465,222.9464,space,1,0.2589,,0,11,11,13,1,N,space,,,,,,,,,,
,,,,,R_4s63GuhpzAdK4jj,001,2025-09-05_18h14.55.652,continuous_performance_test,2024.2.4,MacIntel,58.82352941,521ead57-2098-4907-947d-fccba963edb4,6,222.9476,224.846,space,0,0.2634,,0,12,12,28,1,X,,,,,,,,,,,
,,,,,R_4s63GuhpzAdK4jj,001,2025-09-05_18h14.55.652,continuous_performance_test,2024.2.4,MacIntel,58.82352941,521ead57-2098-4907-947d-fccba963edb4,6,224.847,226.5955,space,1,0.5765,,0,13,13,3,1,D,space,,,,,,,,,,
,,,,,R_4s63GuhpzAdK4jj,001,2025-09-05_18h14.55.652,continuous_performance_test,2024.2.4,MacIntel,58.82352941,521ead57-2098-4907-947d-fccba963edb4,6,226.5965,228.2464,space,1,0.3137,,0,14,14,14,1,O,space,,,,,,,,,,
,,,,,R_4s63GuhpzAdK4jj,001,2025-09-05_18h14.55.652,continuous_performance_test,2024.2.4,MacIntel,58.82352941,521ead57-2098-4907-947d-fccba963edb4,6,228.2475,230.2463,space,1,0.2419,,0,15,15,20,1,U,space,,,,,,,,,,
,,,,,R_4s63GuhpzAdK4jj,001,2025-09-05_18h14.55.652,continuous_performance_test,2024.2.4,MacIntel,58.82352941,521ead57-2098-4907-947d-fccba963edb4,6,230.2475,231.8964,space,1,0.2195,,0,16,16,2,1,C,space,,,,,,,,,,
,,,,,R_4s63GuhpzAdK4jj,001,2025-09-05_18h14.55.652,continuous_performance_test,2024.2.4,MacIntel,58.82352941,521ead57-2098-4907-947d-fccba963edb4,6,231.8977,233.5965,space,1,0.1844,,0,17,17,12,1,M,space,,,,,,,,,,
,,,,,R_4s63GuhpzAdK4jj,001,2025-09-05_18h14.55.652,continuous_performance_test,2024.2.4,MacIntel,58.82352941,521ead57-2098-4907-947d-fccba963edb4,6,233.5976,235.3454,space,1,0.2535,,0,18,18,17,1,R,space,,,,,,,,,,
,,,,,R_4s63GuhpzAdK4jj,001,2025-09-05_18h14.55.652,continuous_performance_test,2024.2.4,MacIntel,58.82352941,521ead57-2098-4907-947d-fccba963edb4,6,235.3461,236.8962,space,1,0.3356,,0,19,19,6,1,G,space,,,,,,,,,,
,,,,,R_4s63GuhpzAdK4jj,001,2025-09-05_18h14.55.652,continuous_performance_test,2024.2.4,MacIntel,58.82352941,521ead57-2098-4907-947d-fccba963edb4,6,236.8974,238.7461,space,1,0.2625,,0,20,20,1,1,B,space,,,,,,,,,,
,,,,,R_4s63GuhpzAdK4jj,001,2025-09-05_18h14.55.652,continuous_performance_test,2024.2.4,MacIntel,58.82352941,521ead57-2098-4907-947d-fccba963edb4,6,238.7465,240.4962,space,1,0.2863,,0,21,21,4,1,E,space,,,,,,,,,,
,,,,,R_4s63GuhpzAdK4jj,001,2025-09-05_18h14.55.652,continuous_performance_test,2024.2.4,MacIntel,58.82352941,521ead57-2098-4907-947d-fccba963edb4,6,240.4966,242.2464,space,1,0.2425,,0,22,22,8,1,I,space,,,,,,,,,,
,,,,,R_4s63GuhpzAdK4jj,001,2025-09-05_18h14.55.652,continuous_performance_test,2024.2.4,MacIntel,58.82352941,521ead57-2098-4907-947d-fccba963edb4,6,242.2478,243.9457,space,0,0.2792,,0,23,23,26,1,X,,,,,,,,,,,
,,,,,R_4s63GuhpzAdK4jj,001,2025-09-05_18h14.55.652,continuous_performance_test,2024.2.4,MacIntel,58.82352941,521ead57-2098-4907-947d-fccba963edb4,6,243.9467,245.6457,space,1,0.2477,,0,24,24,22,1,W,space,,,,,,,,,,
,,,,,R_4s63GuhpzAdK4jj,001,2025-09-05_18h14.55.652,continuous_performance_test,2024.2.4,MacIntel,58.82352941,521ead57-2098-4907-947d-fccba963edb4,6,245.6468,247.2466,space,1,0.2127,,0,25,25,5,1,F,space,,,,,,,,,,
,,,,,R_4s63GuhpzAdK4jj,001,2025-09-05_18h14.55.652,continuous_performance_test,2024.2.4,MacIntel,58.82352941,521ead57-2098-4907-947d-fccba963edb4,6,247.2475,249.0466,space,1,0.2582,,0,26,26,9,1,J,space,,,,,,,,,,
,,,,,R_4s63GuhpzAdK4jj,001,2025-09-05_18h14.55.652,continuous_performance_test,2024.2.4,MacIntel,58.82352941,521ead57-2098-4907-947d-fccba963edb4,6,249.0478,250.7458,space,1,0.2469,,0,27,27,16,1,Q,space,,,,,,,,,,
,,,,,R_4s63GuhpzAdK4jj,001,2025-09-05_18h14.55.652,continuous_performance_test,2024.2.4,MacIntel,58.82352941,521ead57-2098-4907-947d-fccba963edb4,6,250.7469,252.4468,space,1,0.0923,,0,28,28,18,1,S,space,,,,,,,,,,
,,,,,R_4s63GuhpzAdK4jj,001,2025-09-05_18h14.55.652,continuous_performance_test,2024.2.4,MacIntel,58.82352941,521ead57-2098-4907-947d-fccba963edb4,6,252.448,254.0965,space,1,0.0919,,0,29,29,19,1,T,space,,,,,,,,,,
,,,,,R_4s63GuhpzAdK4jj,001,2025-09-05_18h14.55.652,continuous_performance_test,2024.2.4,MacIntel,58.82352941,521ead57-2098-4907-947d-fccba963edb4,6,258.2364,259.9301,space,1,0.4148,,0,0,0,15,1,P,space,254.0977,258.2293,space,4.1155,,,,,,
,,,,,R_4s63GuhpzAdK4jj,001,2025-09-05_18h14.55.652,continuous_performance_test,2024.2.4,MacIntel,58.82352941,521ead57-2098-4907-947d-fccba963edb4,6,259.9311,261.7803,,1,,,0,1,1,27,1,X,,,,,,,,,,,
,,,,,R_4s63GuhpzAdK4jj,001,2025-09-05_18h14.55.652,continuous_performance_test,2024.2.4,MacIntel,58.82352941,521ead57-2098-4907-947d-fccba963edb4,6,261.7817,263.7802,space,1,0.397,,0,2,2,1,1,B,space,,,,,,,,,,
,,,,,R_4s63GuhpzAdK4jj,001,2025-09-05_18h14.55.652,continuous_performance_test,2024.2.4,MacIntel,58.82352941,521ead57-2098-4907-947d-fccba963edb4,6,263.7814,265.6299,space,1,0.3561,,0,3,3,0,1,A,space,,,,,,,,,,
,,,,,R_4s63GuhpzAdK4jj,001,2025-09-05_18h14.55.652,continuous_performance_test,2024.2.4,MacIntel,58.82352941,521ead57-2098-4907-947d-fccba963edb4,6,265.6314,267.4303,space,1,0.5156,,0,4,4,24,1,Z,space,,,,,,,,,,
,,,,,R_4s63GuhpzAdK4jj,001,2025-09-05_18h14.55.652,continuous_performance_test,2024.2.4,MacIntel,58.82352941,521ead57-2098-4907-947d-fccba963edb4,6,267.4314,269.4294,space,1,0.2778,,0,5,5,8,1,I,space,,,,,,,,,,
,,,,,R_4s63GuhpzAdK4jj,001,2025-09-05_18h14.55.652,continuous_performance_test,2024.2.4,MacIntel,58.82352941,521ead57-2098-4907-947d-fccba963edb4,6,269.4307,271.3803,space,1,0.3124,,0,6,6,7,1,H,space,,,,,,,,,,
,,,,,R_4s63GuhpzAdK4jj,001,2025-09-05_18h14.55.652,continuous_performance_test,2024.2.4,MacIntel,58.82352941,521ead57-2098-4907-947d-fccba963edb4,6,271.3814,273.1303,space,1,0.2791,,0,7,7,12,1,M,space,,,,,,,,,,
,,,,,R_4s63GuhpzAdK4jj,001,2025-09-05_18h14.55.652,continuous_performance_test,2024.2.4,MacIntel,58.82352941,521ead57-2098-4907-947d-fccba963edb4,6,273.1315,274.6804,space,1,0.2767,,0,8,8,4,1,E,space,,,,,,,,,,
,,,,,R_4s63GuhpzAdK4jj,001,2025-09-05_18h14.55.652,continuous_performance_test,2024.2.4,MacIntel,58.82352941,521ead57-2098-4907-947d-fccba963edb4,6,274.6815,276.6805,space,1,0.4299,,0,9,9,22,1,W,space,,,,,,,,,,
,,,,,R_4s63GuhpzAdK4jj,001,2025-09-05_18h14.55.652,continuous_performance_test,2024.2.4,MacIntel,58.82352941,521ead57-2098-4907-947d-fccba963edb4,6,276.6816,278.5805,space,1,0.3327,,0,10,10,5,1,F,space,,,,,,,,,,
,,,,,R_4s63GuhpzAdK4jj,001,2025-09-05_18h14.55.652,continuous_performance_test,2024.2.4,MacIntel,58.82352941,521ead57-2098-4907-947d-fccba963edb4,6,278.5816,280.5296,space,1,0.3483,,0,11,11,6,1,G,space,,,,,,,,,,
,,,,,R_4s63GuhpzAdK4jj,001,2025-09-05_18h14.55.652,continuous_performance_test,2024.2.4,MacIntel,58.82352941,521ead57-2098-4907-947d-fccba963edb4,6,280.5308,282.4805,,1,,,0,12,12,26,1,X,,,,,,,,,,,
,,,,,R_4s63GuhpzAdK4jj,001,2025-09-05_18h14.55.652,continuous_performance_test,2024.2.4,MacIntel,58.82352941,521ead57-2098-4907-947d-fccba963edb4,6,282.4816,284.1305,space,1,0.3429,,0,13,13,19,1,T,space,,,,,,,,,,
,,,,,R_4s63GuhpzAdK4jj,001,2025-09-05_18h14.55.652,continuous_performance_test,2024.2.4,MacIntel,58.82352941,521ead57-2098-4907-947d-fccba963edb4,6,284.1317,285.8799,space,1,0.3434,,0,14,14,18,1,S,space,,,,,,,,,,
,,,,,R_4s63GuhpzAdK4jj,001,2025-09-05_18h14.55.652,continuous_performance_test,2024.2.4,MacIntel,58.82352941,521ead57-2098-4907-947d-fccba963edb4,6,285.8811,287.8801,space,1,0.3127,,0,15,15,21,1,V,space,,,,,,,,,,
,,,,,R_4s63GuhpzAdK4jj,001,2025-09-05_18h14.55.652,continuous_performance_test,2024.2.4,MacIntel,58.82352941,521ead57-2098-4907-947d-fccba963edb4,6,287.8812,289.6805,space,1,0.2962,,0,16,16,9,1,J,space,,,,,,,,,,
,,,,,R_4s63GuhpzAdK4jj,001,2025-09-05_18h14.55.652,continuous_performance_test,2024.2.4,MacIntel,58.82352941,521ead57-2098-4907-947d-fccba963edb4,6,289.6817,291.5298,space,1,0.3336,,0,17,17,3,1,D,space,,,,,,,,,,
,,,,,R_4s63GuhpzAdK4jj,001,2025-09-05_18h14.55.652,continuous_performance_test,2024.2.4,MacIntel,58.82352941,521ead57-2098-4907-947d-fccba963edb4,6,291.5308,293.3806,space,0,0.285,,0,18,18,28,1,X,,,,,,,,,,,
,,,,,R_4s63GuhpzAdK4jj,001,2025-09-05_18h14.55.652,continuous_performance_test,2024.2.4,MacIntel,58.82352941,521ead57-2098-4907-947d-fccba963edb4,6,293.3817,295.1307,space,0,0.2799,,0,19,19,29,1,X,,,,,,,,,,,
,,,,,R_4s63GuhpzAdK4jj,001,2025-09-05_18h14.55.652,continuous_performance_test,2024.2.4,MacIntel,58.82352941,521ead57-2098-4907-947d-fccba963edb4,6,295.1319,297.1306,space,1,0.3159,,0,20,20,17,1,R,space,,,,,,,,,,
,,,,,R_4s63GuhpzAdK4jj,001,2025-09-05_18h14.55.652,continuous_performance_test,2024.2.4,MacIntel,58.82352941,521ead57-2098-4907-947d-fccba963edb4,6,297.1318,298.78,space,1,0.3113,,0,21,21,23,1,Y,space,,,,,,,,,,
,,,,,R_4s63GuhpzAdK4jj,001,2025-09-05_18h14.55.652,continuous_performance_test,2024.2.4,MacIntel,58.82352941,521ead57-2098-4907-947d-fccba963edb4,6,298.7811,300.6308,space,0,0.2926,,0,22,22,25,1,X,,,,,,,,,,,
,,,,,R_4s63GuhpzAdK4jj,001,2025-09-05_18h14.55.652,continuous_performance_test,2024.2.4,MacIntel,58.82352941,521ead57-2098-4907-947d-fccba963edb4,6,300.6319,302.2308,space,1,0.3631,,0,23,23,20,1,U,space,,,,,,,,,,
,,,,,R_4s63GuhpzAdK4jj,001,2025-09-05_18h14.55.652,continuous_performance_test,2024.2.4,MacIntel,58.82352941,521ead57-2098-4907-947d-fccba963edb4,6,302.2319,303.9799,space,1,0.3129,,0,24,24,2,1,C,space,,,,,,,,,,
,,,,,R_4s63GuhpzAdK4jj,001,2025-09-05_18h14.55.652,continuous_performance_test,2024.2.4,MacIntel,58.82352941,521ead57-2098-4907-947d-fccba963edb4,6,303.981,305.9308,space,1,0.2801,,0,25,25,14,1,O,space,,,,,,,,,,
,,,,,R_4s63GuhpzAdK4jj,001,2025-09-05_18h14.55.652,continuous_performance_test,2024.2.4,MacIntel,58.82352941,521ead57-2098-4907-947d-fccba963edb4,6,305.932,307.9308,space,1,0.3313,,0,26,26,11,1,L,space,,,,,,,,,,
,,,,,R_4s63GuhpzAdK4jj,001,2025-09-05_18h14.55.652,continuous_performance_test,2024.2.4,MacIntel,58.82352941,521ead57-2098-4907-947d-fccba963edb4,6,307.932,309.7308,space,1,0.2644,,0,27,27,10,1,K,space,,,,,,,,,,
,,,,,R_4s63GuhpzAdK4jj,001,2025-09-05_18h14.55.652,continuous_performance_test,2024.2.4,MacIntel,58.82352941,521ead57-2098-4907-947d-fccba963edb4,6,309.732,311.531,space,1,0.2792,,0,28,28,16,1,Q,space,,,,,,,,,,
,,,,,R_4s63GuhpzAdK4jj,001,2025-09-05_18h14.55.652,continuous_performance_test,2024.2.4,MacIntel,58.82352941,521ead57-2098-4907-947d-fccba963edb4,6,311.5321,313.1809,space,1,0.3661,,0,29,29,13,1,N,space,,,,,,,,,,
,,,,,R_4s63GuhpzAdK4jj,001,2025-09-05_18h14.55.652,continuous_performance_test,2024.2.4,MacIntel,58.82352941,521ead57-2098-4907-947d-fccba963edb4,6,316.8393,318.381,space,1,0.4298,,0,0,0,12,1,M,space,313.1822,316.8312,space,3.639,,,,,,
,,,,,R_4s63GuhpzAdK4jj,001,2025-09-05_18h14.55.652,continuous_performance_test,2024.2.4,MacIntel,58.82352941,521ead57-2098-4907-947d-fccba963edb4,6,318.3823,320.131,space,1,0.3519,,0,1,1,4,1,E,space,,,,,,,,,,
,,,,,R_4s63GuhpzAdK4jj,001,2025-09-05_18h14.55.652,continuous_performance_test,2024.2.4,MacIntel,58.82352941,521ead57-2098-4907-947d-fccba963edb4,6,320.1322,321.7811,,1,,,0,2,2,28,1,X,,,,,,,,,,,
,,,,,R_4s63GuhpzAdK4jj,001,2025-09-05_18h14.55.652,continuous_performance_test,2024.2.4,MacIntel,58.82352941,521ead57-2098-4907-947d-fccba963edb4,6,321.7823,323.7312,space,1,0.2955,,0,3,3,24,1,Z,space,,,,,,,,,,
,,,,,R_4s63GuhpzAdK4jj,001,2025-09-05_18h14.55.652,continuous_performance_test,2024.2.4,MacIntel,58.82352941,521ead57-2098-4907-947d-fccba963edb4,6,323.7323,325.2803,space,1,0.3504,,0,4,4,15,1,P,space,,,,,,,,,,
,,,,,R_4s63GuhpzAdK4jj,001,2025-09-05_18h14.55.652,continuous_performance_test,2024.2.4,MacIntel,58.82352941,521ead57-2098-4907-947d-fccba963edb4,6,325.2814,327.2811,space,1,0.2757,,0,5,5,2,1,C,space,,,,,,,,,,
,,,,,R_4s63GuhpzAdK4jj,001,2025-09-05_18h14.55.652,continuous_performance_test,2024.2.4,MacIntel,58.82352941,521ead57-2098-4907-947d-fccba963edb4,6,327.2821,328.8812,space,1,0.3595,,0,6,6,7,1,H,space,,,,,,,,,,
,,,,,R_4s63GuhpzAdK4jj,001,2025-09-05_18h14.55.652,continuous_performance_test,2024.2.4,MacIntel,58.82352941,521ead57-2098-4907-947d-fccba963edb4,6,328.8825,330.5312,space,1,0.38,,0,7,7,22,1,W,space,,,,,,,,,,
,,,,,R_4s63GuhpzAdK4jj,001,2025-09-05_18h14.55.652,continuous_performance_test,2024.2.4,MacIntel,58.82352941,521ead57-2098-4907-947d-fccba963edb4,6,330.5323,332.0808,,1,,,0,8,8,25,1,X,,,,,,,,,,,
,,,,,R_4s63GuhpzAdK4jj,001,2025-09-05_18h14.55.652,continuous_performance_test,2024.2.4,MacIntel,58.82352941,521ead57-2098-4907-947d-fccba963edb4,6,332.0819,333.7812,space,1,0.3251,,0,9,9,19,1,T,space,,,,,,,,,,
,,,,,R_4s63GuhpzAdK4jj,001,2025-09-05_18h14.55.652,continuous_performance_test,2024.2.4,MacIntel,58.82352941,521ead57-2098-4907-947d-fccba963edb4,6,333.7823,335.7313,space,0,0.3013,,0,10,10,29,1,X,,,,,,,,,,,
,,,,,R_4s63GuhpzAdK4jj,001,2025-09-05_18h14.55.652,continuous_performance_test,2024.2.4,MacIntel,58.82352941,521ead57-2098-4907-947d-fccba963edb4,6,335.7324,337.5814,space,1,0.3429,,0,11,11,16,1,Q,space,,,,,,,,,,
,,,,,R_4s63GuhpzAdK4jj,001,2025-09-05_18h14.55.652,continuous_performance_test,2024.2.4,MacIntel,58.82352941,521ead57-2098-4907-947d-fccba963edb4,6,337.5828,339.2813,space,1,0.296,,0,12,12,18,1,S,space,,,,,,,,,,
,,,,,R_4s63GuhpzAdK4jj,001,2025-09-05_18h14.55.652,continuous_performance_test,2024.2.4,MacIntel,58.82352941,521ead57-2098-4907-947d-fccba963edb4,6,339.2822,341.2814,space,1,0.2991,,0,13,13,23,1,Y,space,,,,,,,,,,
,,,,,R_4s63GuhpzAdK4jj,001,2025-09-05_18h14.55.652,continuous_performance_test,2024.2.4,MacIntel,58.82352941,521ead57-2098-4907-947d-fccba963edb4,6,341.2825,342.9314,space,1,0.3046,,0,14,14,21,1,V,space,,,,,,,,,,
,,,,,R_4s63GuhpzAdK4jj,001,2025-09-05_18h14.55.652,continuous_performance_test,2024.2.4,MacIntel,58.82352941,521ead57-2098-4907-947d-fccba963edb4,6,342.9329,344.6306,space,1,0.3589,,0,15,15,6,1,G,space,,,,,,,,,,
,,,,,R_4s63GuhpzAdK4jj,001,2025-09-05_18h14.55.652,continuous_performance_test,2024.2.4,MacIntel,58.82352941,521ead57-2098-4907-947d-fccba963edb4,6,344.6316,346.6316,space,1,0.3234,,0,16,16,17,1,R,space,,,,,,,,,,
,,,,,R_4s63GuhpzAdK4jj,001,2025-09-05_18h14.55.652,continuous_performance_test,2024.2.4,MacIntel,58.82352941,521ead57-2098-4907-947d-fccba963edb4,6,346.6329,348.5314,space,1,0.3289,,0,17,17,0,1,A,space,,,,,,,,,,
,,,,,R_4s63GuhpzAdK4jj,001,2025-09-05_18h14.55.652,continuous_performance_test,2024.2.4,MacIntel,58.82352941,521ead57-2098-4907-947d-fccba963edb4,6,348.5326,350.2814,space,1,0.2982,,0,18,18,14,1,O,space,,,,,,,,,,
,,,,,R_4s63GuhpzAdK4jj,001,2025-09-05_18h14.55.652,continuous_performance_test,2024.2.4,MacIntel,58.82352941,521ead57-2098-4907-947d-fccba963edb4,6,350.2827,352.0815,,1,,,0,19,19,26,1,X,,,,,,,,,,,
,,,,,R_4s63GuhpzAdK4jj,001,2025-09-05_18h14.55.652,continuous_performance_test,2024.2.4,MacIntel,58.82352941,521ead57-2098-4907-947d-fccba963edb4,6,352.0826,353.7315,space,1,0.3636,,0,20,20,13,1,N,space,,,,,,,,,,
,,,,,R_4s63GuhpzAdK4jj,001,2025-09-05_18h14.55.652,continuous_performance_test,2024.2.4,MacIntel,58.82352941,521ead57-2098-4907-947d-fccba963edb4,6,353.7328,355.5317,space,1,0.3948,,0,21,21,10,1,K,space,,,,,,,,,,
,,,,,R_4s63GuhpzAdK4jj,001,2025-09-05_18h14.55.652,continuous_performance_test,2024.2.4,MacIntel,58.82352941,521ead57-2098-4907-947d-fccba963edb4,6,355.5331,357.3817,space,1,0.3739,,0,22,22,9,1,J,space,,,,,,,,,,
,,,,,R_4s63GuhpzAdK4jj,001,2025-09-05_18h14.55.652,continuous_performance_test,2024.2.4,MacIntel,58.82352941,521ead57-2098-4907-947d-fccba963edb4,6,357.3832,359.3316,space,1,0.2786,,0,23,23,1,1,B,space,,,,,,,,,,
,,,,,R_4s63GuhpzAdK4jj,001,2025-09-05_18h14.55.652,continuous_performance_test,2024.2.4,MacIntel,58.82352941,521ead57-2098-4907-947d-fccba963edb4,6,359.3329,361.3317,space,1,0.2923,,0,24,24,3,1,D,space,,,,,,,,,,
,,,,,R_4s63GuhpzAdK4jj,001,2025-09-05_18h14.55.652,continuous_performance_test,2024.2.4,MacIntel,58.82352941,521ead57-2098-4907-947d-fccba963edb4,6,361.3331,363.1818,space,1,0.3254,,0,25,25,20,1,U,space,,,,,,,,,,
,,,,,R_4s63GuhpzAdK4jj,001,2025-09-05_18h14.55.652,continuous_performance_test,2024.2.4,MacIntel,58.82352941,521ead57-2098-4907-947d-fccba963edb4,6,363.1832,364.7318,space,0,0.3124,,0,26,26,27,1,X,,,,,,,,,,,
,,,,,R_4s63GuhpzAdK4jj,001,2025-09-05_18h14.55.652,continuous_performance_test,2024.2.4,MacIntel,58.82352941,521ead57-2098-4907-947d-fccba963edb4,6,364.7334,366.4815,space,1,0.2951,,0,27,27,11,1,L,space,,,,,,,,,,
,,,,,R_4s63GuhpzAdK4jj,001,2025-09-05_18h14.55.652,continuous_performance_test,2024.2.4,MacIntel,58.82352941,521ead57-2098-4907-947d-fccba963edb4,6,366.4821,368.2817,space,1,0.2582,,0,28,28,8,1,I,space,,,,,,,,,,
,,,,,R_4s63GuhpzAdK4jj,001,2025-09-05_18h14.55.652,continuous_performance_test,2024.2.4,MacIntel,58.82352941,521ead57-2098-4907-947d-fccba963edb4,6,368.2827,370.1819,space,1,0.3254,,0,29,29,5,1,F,space,,,,,,,,,,
,,,,,R_4s63GuhpzAdK4jj,001,2025-09-05_18h14.55.652,continuous_performance_test,2024.2.4,MacIntel,58.82352941,521ead57-2098-4907-947d-fccba963edb4,6,371.7707,373.3154,space,1,0.6135,,0,0,0,1,1,B,space,370.1831,371.7645,space,1.5605,,,,,,
,,,,,R_4s63GuhpzAdK4jj,001,2025-09-05_18h14.55.652,continuous_performance_test,2024.2.4,MacIntel,58.82352941,521ead57-2098-4907-947d-fccba963edb4,6,373.3168,374.9652,,1,,,0,1,1,29,1,X,,,,,,,,,,,
,,,,,R_4s63GuhpzAdK4jj,001,2025-09-05_18h14.55.652,continuous_performance_test,2024.2.4,MacIntel,58.82352941,521ead57-2098-4907-947d-fccba963edb4,6,374.9661,376.9152,,1,,,0,2,2,25,1,X,,,,,,,,,,,
,,,,,R_4s63GuhpzAdK4jj,001,2025-09-05_18h14.55.652,continuous_performance_test,2024.2.4,MacIntel,58.82352941,521ead57-2098-4907-947d-fccba963edb4,6,376.9163,378.7152,space,1,0.375,,0,3,3,17,1,R,space,,,,,,,,,,
,,,,,R_4s63GuhpzAdK4jj,001,2025-09-05_18h14.55.652,continuous_performance_test,2024.2.4,MacIntel,58.82352941,521ead57-2098-4907-947d-fccba963edb4,6,378.7164,380.4153,space,1,0.3454,,0,4,4,11,1,L,space,,,,,,,,,,
,,,,,R_4s63GuhpzAdK4jj,001,2025-09-05_18h14.55.652,continuous_performance_test,2024.2.4,MacIntel,58.82352941,521ead57-2098-4907-947d-fccba963edb4,6,380.4164,381.9653,space,1,0.2755,,0,5,5,14,1,O,space,,,,,,,,,,
,,,,,R_4s63GuhpzAdK4jj,001,2025-09-05_18h14.55.652,continuous_performance_test,2024.2.4,MacIntel,58.82352941,521ead57-2098-4907-947d-fccba963edb4,6,381.9663,383.5654,space,1,0.346,,0,6,6,5,1,F,space,,,,,,,,,,
,,,,,R_4s63GuhpzAdK4jj,001,2025-09-05_18h14.55.652,continuous_performance_test,2024.2.4,MacIntel,58.82352941,521ead57-2098-4907-947d-fccba963edb4,6,383.5667,385.2144,space,1,0.313,,0,7,7,21,1,V,space,,,,,,,,,,
,,,,,R_4s63GuhpzAdK4jj,001,2025-09-05_18h14.55.652,continuous_performance_test,2024.2.4,MacIntel,58.82352941,521ead57-2098-4907-947d-fccba963edb4,6,385.2159,386.7653,,1,,,0,8,8,28,1,X,,,,,,,,,,,
,,,,,R_4s63GuhpzAdK4jj,001,2025-09-05_18h14.55.652,continuous_performance_test,2024.2.4,MacIntel,58.82352941,521ead57-2098-4907-947d-fccba963edb4,6,386.7668,388.6154,space,1,0.3449,,0,9,9,13,1,N,space,,,,,,,,,,
,,,,,R_4s63GuhpzAdK4jj,001,2025-09-05_18h14.55.652,continuous_performance_test,2024.2.4,MacIntel,58.82352941,521ead57-2098-4907-947d-fccba963edb4,6,388.6164,390.6153,space,1,0.4141,,0,10,10,12,1,M,space,,,,,,,,,,
,,,,,R_4s63GuhpzAdK4jj,001,2025-09-05_18h14.55.652,continuous_performance_test,2024.2.4,MacIntel,58.82352941,521ead57-2098-4907-947d-fccba963edb4,6,390.6163,392.4655,space,1,0.3629,,0,11,11,3,1,D,space,,,,,,,,,,
,,,,,R_4s63GuhpzAdK4jj,001,2025-09-05_18h14.55.652,continuous_performance_test,2024.2.4,MacIntel,58.82352941,521ead57-2098-4907-947d-fccba963edb4,6,392.4666,394.2155,,1,,,0,12,12,26,1,X,,,,,,,,,,,
,,,,,R_4s63GuhpzAdK4jj,001,2025-09-05_18h14.55.652,continuous_performance_test,2024.2.4,MacIntel,58.82352941,521ead57-2098-4907-947d-fccba963edb4,6,394.2169,396.1646,space,1,0.3113,,0,13,13,4,1,E,space,,,,,,,,,,
,,,,,R_4s63GuhpzAdK4jj,001,2025-09-05_18h14.55.652,continuous_performance_test,2024.2.4,MacIntel,58.82352941,521ead57-2098-4907-947d-fccba963edb4,6,396.1659,398.1655,space,0,0.496,,0,14,14,27,1,X,,,,,,,,,,,
,,,,,R_4s63GuhpzAdK4jj,001,2025-09-05_18h14.55.652,continuous_performance_test,2024.2.4,MacIntel,58.82352941,521ead57-2098-4907-947d-fccba963edb4,6,398.1667,399.9656,space,1,0.3327,,0,15,15,7,1,H,space,,,,,,,,,,
,,,,,R_4s63GuhpzAdK4jj,001,2025-09-05_18h14.55.652,continuous_performance_test,2024.2.4,MacIntel,58.82352941,521ead57-2098-4907-947d-fccba963edb4,6,399.9667,401.7147,space,1,0.2695,,0,16,16,18,1,S,space,,,,,,,,,,
,,,,,R_4s63GuhpzAdK4jj,001,2025-09-05_18h14.55.652,continuous_performance_test,2024.2.4,MacIntel,58.82352941,521ead57-2098-4907-947d-fccba963edb4,6,401.7158,403.5155,space,1,0.3288,,0,17,17,6,1,G,space,,,,,,,,,,
,,,,,R_4s63GuhpzAdK4jj,001,2025-09-05_18h14.55.652,continuous_performance_test,2024.2.4,MacIntel,58.82352941,521ead57-2098-4907-947d-fccba963edb4,6,403.5167,405.4658,space,1,0.0958,,0,18,18,10,1,K,space,,,,,,,,,,
,,,,,R_4s63GuhpzAdK4jj,001,2025-09-05_18h14.55.652,continuous_performance_test,2024.2.4,MacIntel,58.82352941,521ead57-2098-4907-947d-fccba963edb4,6,405.4671,407.4157,space,1,0.2787,,0,19,19,16,1,Q,space,,,,,,,,,,
,,,,,R_4s63GuhpzAdK4jj,001,2025-09-05_18h14.55.652,continuous_performance_test,2024.2.4,MacIntel,58.82352941,521ead57-2098-4907-947d-fccba963edb4,6,407.4169,409.1658,space,1,0.3781,,0,20,20,2,1,C,space,,,,,,,,,,
,,,,,R_4s63GuhpzAdK4jj,001,2025-09-05_18h14.55.652,continuous_performance_test,2024.2.4,MacIntel,58.82352941,521ead57-2098-4907-947d-fccba963edb4,6,409.1671,410.9657,space,1,0.3965,,0,21,21,23,1,Y,space,,,,,,,,,,
,,,,,R_4s63GuhpzAdK4jj,001,2025-09-05_18h14.55.652,continuous_performance_test,2024.2.4,MacIntel,58.82352941,521ead57-2098-4907-947d-fccba963edb4,6,410.9667,412.6159,space,1,0.3256,,0,22,22,19,1,T,space,,,,,,,,,,
,,,,,R_4s63GuhpzAdK4jj,001,2025-09-05_18h14.55.652,continuous_performance_test,2024.2.4,MacIntel,58.82352941,521ead57-2098-4907-947d-fccba963edb4,6,412.617,414.2658,space,1,0.3424,,0,23,23,20,1,U,space,,,,,,,,,,
,,,,,R_4s63GuhpzAdK4jj,001,2025-09-05_18h14.55.652,continuous_performance_test,2024.2.4,MacIntel,58.82352941,521ead57-2098-4907-947d-fccba963edb4,6,414.2668,416.2658,space,1,0.3003,,0,24,24,24,1,Z,space,,,,,,,,,,
,,,,,R_4s63GuhpzAdK4jj,001,2025-09-05_18h14.55.652,continuous_performance_test,2024.2.4,MacIntel,58.82352941,521ead57-2098-4907-947d-fccba963edb4,6,416.2673,418.1155,space,1,0.3144,,0,25,25,15,1,P,space,,,,,,,,,,
,,,,,R_4s63GuhpzAdK4jj,001,2025-09-05_18h14.55.652,continuous_performance_test,2024.2.4,MacIntel,58.82352941,521ead57-2098-4907-947d-fccba963edb4,6,418.1165,419.8648,space,1,0.3168,,0,26,26,22,1,W,space,,,,,,,,,,
,,,,,R_4s63GuhpzAdK4jj,001,2025-09-05_18h14.55.652,continuous_performance_test,2024.2.4,MacIntel,58.82352941,521ead57-2098-4907-947d-fccba963edb4,6,419.866,421.8658,space,1,0.2949,,0,27,27,9,1,J,space,,,,,,,,,,
,,,,,R_4s63GuhpzAdK4jj,001,2025-09-05_18h14.55.652,continuous_performance_test,2024.2.4,MacIntel,58.82352941,521ead57-2098-4907-947d-fccba963edb4,6,421.8671,423.8649,space,1,0.348,,0,28,28,8,1,I,space,,,,,,,,,,
,,,,,R_4s63GuhpzAdK4jj,001,2025-09-05_18h14.55.652,continuous_performance_test,2024.2.4,MacIntel,58.82352941,521ead57-2098-4907-947d-fccba963edb4,6,423.8661,425.7158,space,1,0.313,,0,29,29,0,1,A,space,,,,,,,,,,
,,,,,R_4s63GuhpzAdK4jj,001,2025-09-05_18h14.55.652,continuous_performance_test,2024.2.4,MacIntel,58.82352941,521ead57-2098-4907-947d-fccba963edb4,6,431.1062,432.9485,space,1,0.5272,,0,0,0,14,1,O,space,425.717,431.0995,space,5.3603,,,,,,
,,,,,R_4s63GuhpzAdK4jj,001,2025-09-05_18h14.55.652,continuous_performance_test,2024.2.4,MacIntel,58.82352941,521ead57-2098-4907-947d-fccba963edb4,6,432.9497,434.7483,space,1,0.4348,,0,1,1,10,1,K,space,,,,,,,,,,
,,,,,R_4s63GuhpzAdK4jj,001,2025-09-05_18h14.55.652,continuous_performance_test,2024.2.4,MacIntel,58.82352941,521ead57-2098-4907-947d-fccba963edb4,6,434.7495,436.4994,space,1,0.3964,,0,2,2,8,1,I,space,,,,,,,,,,
,,,,,R_4s63GuhpzAdK4jj,001,2025-09-05_18h14.55.652,continuous_performance_test,2024.2.4,MacIntel,58.82352941,521ead57-2098-4907-947d-fccba963edb4,6,436.5006,438.4984,space,1,0.3654,,0,3,3,1,1,B,space,,,,,,,,,,
,,,,,R_4s63GuhpzAdK4jj,001,2025-09-05_18h14.55.652,continuous_performance_test,2024.2.4,MacIntel,58.82352941,521ead57-2098-4907-947d-fccba963edb4,6,438.4994,440.3495,space,1,0.2923,,0,4,4,18,1,S,space,,,,,,,,,,
,,,,,R_4s63GuhpzAdK4jj,001,2025-09-05_18h14.55.652,continuous_performance_test,2024.2.4,MacIntel,58.82352941,521ead57-2098-4907-947d-fccba963edb4,6,440.3507,442.0994,space,1,0.3345,,0,5,5,15,1,P,space,,,,,,,,,,
,,,,,R_4s63GuhpzAdK4jj,001,2025-09-05_18h14.55.652,continuous_performance_test,2024.2.4,MacIntel,58.82352941,521ead57-2098-4907-947d-fccba963edb4,6,442.1007,443.8495,space,1,0.3669,,0,6,6,6,1,G,space,,,,,,,,,,
,,,,,R_4s63GuhpzAdK4jj,001,2025-09-05_18h14.55.652,continuous_performance_test,2024.2.4,MacIntel,58.82352941,521ead57-2098-4907-947d-fccba963edb4,6,443.8507,445.4987,,1,,,0,7,7,27,1,X,,,,,,,,,,,
,,,,,R_4s63GuhpzAdK4jj,001,2025-09-05_18h14.55.652,continuous_performance_test,2024.2.4,MacIntel,58.82352941,521ead57-2098-4907-947d-fccba963edb4,6,445.5,447.2495,space,1,0.3387,,0,8,8,19,1,T,space,,,,,,,,,,
,,,,,R_4s63GuhpzAdK4jj,001,2025-09-05_18h14.55.652,continuous_performance_test,2024.2.4,MacIntel,58.82352941,521ead57-2098-4907-947d-fccba963edb4,6,447.2509,449.0496,space,0,0.6023,,0,9,9,26,1,X,,,,,,,,,,,
,,,,,R_4s63GuhpzAdK4jj,001,2025-09-05_18h14.55.652,continuous_performance_test,2024.2.4,MacIntel,58.82352941,521ead57-2098-4907-947d-fccba963edb4,6,449.0509,450.8989,space,1,0.3161,,0,10,10,23,1,Y,space,,,,,,,,,,
,,,,,R_4s63GuhpzAdK4jj,001,2025-09-05_18h14.55.652,continuous_performance_test,2024.2.4,MacIntel,58.82352941,521ead57-2098-4907-947d-fccba963edb4,6,450.8999,452.8997,space,1,0.3469,,0,11,11,24,1,Z,space,,,,,,,,,,
,,,,,R_4s63GuhpzAdK4jj,001,2025-09-05_18h14.55.652,continuous_performance_test,2024.2.4,MacIntel,58.82352941,521ead57-2098-4907-947d-fccba963edb4,6,452.9009,454.8488,space,1,0.3796,,0,12,12,0,1,A,space,,,,,,,,,,
,,,,,R_4s63GuhpzAdK4jj,001,2025-09-05_18h14.55.652,continuous_performance_test,2024.2.4,MacIntel,58.82352941,521ead57-2098-4907-947d-fccba963edb4,6,454.8501,456.4498,space,1,0.383,,0,13,13,12,1,M,space,,,,,,,,,,
,,,,,R_4s63GuhpzAdK4jj,001,2025-09-05_18h14.55.652,continuous_performance_test,2024.2.4,MacIntel,58.82352941,521ead57-2098-4907-947d-fccba963edb4,6,456.4512,458.3997,space,1,0.4462,,0,14,14,4,1,E,space,,,,,,,,,,
,,,,,R_4s63GuhpzAdK4jj,001,2025-09-05_18h14.55.652,continuous_performance_test,2024.2.4,MacIntel,58.82352941,521ead57-2098-4907-947d-fccba963edb4,6,458.401,460.0998,space,1,0.3961,,0,15,15,13,1,N,space,,,,,,,,,,
,,,,,R_4s63GuhpzAdK4jj,001,2025-09-05_18h14.55.652,continuous_performance_test,2024.2.4,MacIntel,58.82352941,521ead57-2098-4907-947d-fccba963edb4,6,460.1009,461.799,space,1,0.2654,,0,16,16,21,1,V,space,,,,,,,,,,
,,,,,R_4s63GuhpzAdK4jj,001,2025-09-05_18h14.55.652,continuous_performance_test,2024.2.4,MacIntel,58.82352941,521ead57-2098-4907-947d-fccba963edb4,6,461.8005,463.4489,,1,,,0,17,17,29,1,X,,,,,,,,,,,
,,,,,R_4s63GuhpzAdK4jj,001,2025-09-05_18h14.55.652,continuous_performance_test,2024.2.4,MacIntel,58.82352941,521ead57-2098-4907-947d-fccba963edb4,6,463.4503,465.2499,space,1,0.3447,,0,18,18,2,1,C,space,,,,,,,,,,
,,,,,R_4s63GuhpzAdK4jj,001,2025-09-05_18h14.55.652,continuous_performance_test,2024.2.4,MacIntel,58.82352941,521ead57-2098-4907-947d-fccba963edb4,6,465.2511,466.9999,,1,,,0,19,19,25,1,X,,,,,,,,,,,
,,,,,R_4s63GuhpzAdK4jj,001,2025-09-05_18h14.55.652,continuous_performance_test,2024.2.4,MacIntel,58.82352941,521ead57-2098-4907-947d-fccba963edb4,6,467.0011,468.9991,,0,,,0,20,20,17,1,R,space,,,,,,,,,,
,,,,,R_4s63GuhpzAdK4jj,001,2025-09-05_18h14.55.652,continuous_performance_test,2024.2.4,MacIntel,58.82352941,521ead57-2098-4907-947d-fccba963edb4,6,469.0005,470.6,space,1,0.275,,0,21,21,3,1,D,space,,,,,,,,,,
,,,,,R_4s63GuhpzAdK4jj,001,2025-09-05_18h14.55.652,continuous_performance_test,2024.2.4,MacIntel,58.82352941,521ead57-2098-4907-947d-fccba963edb4,6,470.6011,472.4,space,1,0.2807,,0,22,22,11,1,L,space,,,,,,,,,,
,,,,,R_4s63GuhpzAdK4jj,001,2025-09-05_18h14.55.652,continuous_performance_test,2024.2.4,MacIntel,58.82352941,521ead57-2098-4907-947d-fccba963edb4,6,472.4011,474.149,space,1,0.224,,0,23,23,20,1,U,space,,,,,,,,,,
,,,,,R_4s63GuhpzAdK4jj,001,2025-09-05_18h14.55.652,continuous_performance_test,2024.2.4,MacIntel,58.82352941,521ead57-2098-4907-947d-fccba963edb4,6,474.1502,475.7,space,1,0.2653,,0,24,24,22,1,W,space,,,,,,,,,,
,,,,,R_4s63GuhpzAdK4jj,001,2025-09-05_18h14.55.652,continuous_performance_test,2024.2.4,MacIntel,58.82352941,521ead57-2098-4907-947d-fccba963edb4,6,475.7011,477.3993,space,1,0.2984,,0,25,25,5,1,F,space,,,,,,,,,,
,,,,,R_4s63GuhpzAdK4jj,001,2025-09-05_18h14.55.652,continuous_performance_test,2024.2.4,MacIntel,58.82352941,521ead57-2098-4907-947d-fccba963edb4,6,477.4006,479.1,space,0,0.5794,,0,26,26,28,1,X,,,,,,,,,,,
,,,,,R_4s63GuhpzAdK4jj,001,2025-09-05_18h14.55.652,continuous_performance_test,2024.2.4,MacIntel,58.82352941,521ead57-2098-4907-947d-fccba963edb4,6,479.1008,480.6991,space,1,0.2991,,0,27,27,9,1,J,space,,,,,,,,,,
,,,,,R_4s63GuhpzAdK4jj,001,2025-09-05_18h14.55.652,continuous_performance_test,2024.2.4,MacIntel,58.82352941,521ead57-2098-4907-947d-fccba963edb4,6,480.7,482.6501,space,1,0.2674,,0,28,28,7,1,H,space,,,,,,,,,,
,,,,,R_4s63GuhpzAdK4jj,001,2025-09-05_18h14.55.652,continuous_performance_test,2024.2.4,MacIntel,58.82352941,521ead57-2098-4907-947d-fccba963edb4,6,482.6511,484.4001,space,1,0.2466,,0,29,29,16,1,Q,space,,,,,,,,,,
,,,,,R_4s63GuhpzAdK4jj,001,2025-09-05_18h14.55.652,continuous_performance_test,2024.2.4,MacIntel,58.82352941,521ead57-2098-4907-947d-fccba963edb4,6,488.1569,490.1501,space,1,0.3647,,0,0,0,20,1,U,space,484.4015,488.1504,space,3.7239,,,,,,
,,,,,R_4s63GuhpzAdK4jj,001,2025-09-05_18h14.55.652,continuous_performance_test,2024.2.4,MacIntel,58.82352941,521ead57-2098-4907-947d-fccba963edb4,6,490.1514,491.7502,space,1,0.3283,,0,1,1,9,1,J,space,,,,,,,,,,
,,,,,R_4s63GuhpzAdK4jj,001,2025-09-05_18h14.55.652,continuous_performance_test,2024.2.4,MacIntel,58.82352941,521ead57-2098-4907-947d-fccba963edb4,6,491.7516,493.3503,space,1,0.2804,,0,2,2,21,1,V,space,,,,,,,,,,
,,,,,R_4s63GuhpzAdK4jj,001,2025-09-05_18h14.55.652,continuous_performance_test,2024.2.4,MacIntel,58.82352941,521ead57-2098-4907-947d-fccba963edb4,6,493.3515,495.1504,space,1,0.3455,,0,3,3,22,1,W,space,,,,,,,,,,
,,,,,R_4s63GuhpzAdK4jj,001,2025-09-05_18h14.55.652,continuous_performance_test,2024.2.4,MacIntel,58.82352941,521ead57-2098-4907-947d-fccba963edb4,6,495.1518,497.0493,,1,,,0,4,4,27,1,X,,,,,,,,,,,
,,,,,R_4s63GuhpzAdK4jj,001,2025-09-05_18h14.55.652,continuous_performance_test,2024.2.4,MacIntel,58.82352941,521ead57-2098-4907-947d-fccba963edb4,6,497.0506,498.6004,space,1,0.4455,,0,5,5,23,1,Y,space,,,,,,,,,,
,,,,,R_4s63GuhpzAdK4jj,001,2025-09-05_18h14.55.652,continuous_performance_test,2024.2.4,MacIntel,58.82352941,521ead57-2098-4907-947d-fccba963edb4,6,498.6016,500.5004,,1,,,0,6,6,29,1,X,,,,,,,,,,,
,,,,,R_4s63GuhpzAdK4jj,001,2025-09-05_18h14.55.652,continuous_performance_test,2024.2.4,MacIntel,58.82352941,521ead57-2098-4907-947d-fccba963edb4,6,500.5015,502.4003,space,1,0.3467,,0,7,7,6,1,G,space,,,,,,,,,,
,,,,,R_4s63GuhpzAdK4jj,001,2025-09-05_18h14.55.652,continuous_performance_test,2024.2.4,MacIntel,58.82352941,521ead57-2098-4907-947d-fccba963edb4,6,502.4015,504.0004,space,1,0.3615,,0,8,8,15,1,P,space,,,,,,,,,,
,,,,,R_4s63GuhpzAdK4jj,001,2025-09-05_18h14.55.652,continuous_performance_test,2024.2.4,MacIntel,58.82352941,521ead57-2098-4907-947d-fccba963edb4,6,504.0015,505.8004,space,1,0.2676,,0,9,9,0,1,A,space,,,,,,,,,,
,,,,,R_4s63GuhpzAdK4jj,001,2025-09-05_18h14.55.652,continuous_performance_test,2024.2.4,MacIntel,58.82352941,521ead57-2098-4907-947d-fccba963edb4,6,505.8011,507.3996,space,1,0.236,,0,10,10,14,1,O,space,,,,,,,,,,
,,,,,R_4s63GuhpzAdK4jj,001,2025-09-05_18h14.55.652,continuous_performance_test,2024.2.4,MacIntel,58.82352941,521ead57-2098-4907-947d-fccba963edb4,6,507.4009,509.2505,space,0,0.2491,,0,11,11,25,1,X,,,,,,,,,,,
,,,,,R_4s63GuhpzAdK4jj,001,2025-09-05_18h14.55.652,continuous_performance_test,2024.2.4,MacIntel,58.82352941,521ead57-2098-4907-947d-fccba963edb4,6,509.2517,511.0006,space,1,0.2603,,0,12,12,7,1,H,space,,,,,,,,,,
,,,,,R_4s63GuhpzAdK4jj,001,2025-09-05_18h14.55.652,continuous_performance_test,2024.2.4,MacIntel,58.82352941,521ead57-2098-4907-947d-fccba963edb4,6,511.0018,512.9505,space,1,0.0004,,0,13,13,24,1,Z,space,,,,,,,,,,
,,,,,R_4s63GuhpzAdK4jj,001,2025-09-05_18h14.55.652,continuous_performance_test,2024.2.4,MacIntel,58.82352941,521ead57-2098-4907-947d-fccba963edb4,6,512.9518,514.9507,space,1,0.2457,,0,14,14,4,1,E,space,,,,,,,,,,
,,,,,R_4s63GuhpzAdK4jj,001,2025-09-05_18h14.55.652,continuous_performance_test,2024.2.4,MacIntel,58.82352941,521ead57-2098-4907-947d-fccba963edb4,6,514.9521,516.6506,space,1,0.2801,,0,15,15,18,1,S,space,,,,,,,,,,
,,,,,R_4s63GuhpzAdK4jj,001,2025-09-05_18h14.55.652,continuous_performance_test,2024.2.4,MacIntel,58.82352941,521ead57-2098-4907-947d-fccba963edb4,6,516.6517,518.6508,space,1,0.2752,,0,16,16,10,1,K,space,,,,,,,,,,
,,,,,R_4s63GuhpzAdK4jj,001,2025-09-05_18h14.55.652,continuous_performance_test,2024.2.4,MacIntel,58.82352941,521ead57-2098-4907-947d-fccba963edb4,6,518.6521,520.5007,space,1,0.2498,,0,17,17,16,1,Q,space,,,,,,,,,,
,,,,,R_4s63GuhpzAdK4jj,001,2025-09-05_18h14.55.652,continuous_performance_test,2024.2.4,MacIntel,58.82352941,521ead57-2098-4907-947d-fccba963edb4,6,520.5019,522.2009,space,1,0.2637,,0,18,18,2,1,C,space,,,,,,,,,,
,,,,,R_4s63GuhpzAdK4jj,001,2025-09-05_18h14.55.652,continuous_performance_test,2024.2.4,MacIntel,58.82352941,521ead57-2098-4907-947d-fccba963edb4,6,522.2021,523.8003,space,0,0.2796,,0,19,19,26,1,X,,,,,,,,,,,
,,,,,R_4s63GuhpzAdK4jj,001,2025-09-05_18h14.55.652,continuous_performance_test,2024.2.4,MacIntel,58.82352941,521ead57-2098-4907-947d-fccba963edb4,6,523.8011,525.4998,space,0,0.2504,,0,20,20,28,1,X,,,,,,,,,,,
,,,,,R_4s63GuhpzAdK4jj,001,2025-09-05_18h14.55.652,continuous_performance_test,2024.2.4,MacIntel,58.82352941,521ead57-2098-4907-947d-fccba963edb4,6,525.5009,527.2998,space,1,0.3292,,0,21,21,19,1,T,space,,,,,,,,,,
,,,,,R_4s63GuhpzAdK4jj,001,2025-09-05_18h14.55.652,continuous_performance_test,2024.2.4,MacIntel,58.82352941,521ead57-2098-4907-947d-fccba963edb4,6,527.3009,529.0009,space,1,0.2925,,0,22,22,5,1,F,space,,,,,,,,,,
,,,,,R_4s63GuhpzAdK4jj,001,2025-09-05_18h14.55.652,continuous_performance_test,2024.2.4,MacIntel,58.82352941,521ead57-2098-4907-947d-fccba963edb4,6,529.0023,530.8508,space,1,0.2743,,0,23,23,3,1,D,space,,,,,,,,,,
,,,,,R_4s63GuhpzAdK4jj,001,2025-09-05_18h14.55.652,continuous_performance_test,2024.2.4,MacIntel,58.82352941,521ead57-2098-4907-947d-fccba963edb4,6,530.8521,532.8505,space,1,0.2656,,0,24,24,11,1,L,space,,,,,,,,,,
,,,,,R_4s63GuhpzAdK4jj,001,2025-09-05_18h14.55.652,continuous_performance_test,2024.2.4,MacIntel,58.82352941,521ead57-2098-4907-947d-fccba963edb4,6,532.8511,534.4999,space,1,0.2951,,0,25,25,17,1,R,space,,,,,,,,,,
,,,,,R_4s63GuhpzAdK4jj,001,2025-09-05_18h14.55.652,continuous_performance_test,2024.2.4,MacIntel,58.82352941,521ead57-2098-4907-947d-fccba963edb4,6,534.501,536.101,space,1,0.2748,,0,26,26,8,1,I,space,,,,,,,,,,
,,,,,R_4s63GuhpzAdK4jj,001,2025-09-05_18h14.55.652,continuous_performance_test,2024.2.4,MacIntel,58.82352941,521ead57-2098-4907-947d-fccba963edb4,6,536.1024,538.101,space,1,0.279,,0,27,27,1,1,B,space,,,,,,,,,,
,,,,,R_4s63GuhpzAdK4jj,001,2025-09-05_18h14.55.652,continuous_performance_test,2024.2.4,MacIntel,58.82352941,521ead57-2098-4907-947d-fccba963edb4,6,538.1023,540.0002,space,1,0.3903,,0,28,28,13,1,N,space,,,,,,,,,,
,,,,,R_4s63GuhpzAdK4jj,001,2025-09-05_18h14.55.652,continuous_performance_test,2024.2.4,MacIntel,58.82352941,521ead57-2098-4907-947d-fccba963edb4,6,540.0016,541.9001,space,1,0.3961,,0,29,29,12,1,M,space,,,,,,,,,,
,,,,,R_4s63GuhpzAdK4jj,001,2025-09-05_18h14.55.652,continuous_performance_test,2024.2.4,MacIntel,58.82352941,521ead57-2098-4907-947d-fccba963edb4,6,548.792,550.4337,space,1,0.3864,,0,0,0,6,1,G,space,541.9013,548.7846,space,6.8637,,,,,,
,,,,,R_4s63GuhpzAdK4jj,001,2025-09-05_18h14.55.652,continuous_performance_test,2024.2.4,MacIntel,58.82352941,521ead57-2098-4907-947d-fccba963edb4,6,550.4351,551.9843,space,1,0.3129,,0,1,1,5,1,F,space,,,,,,,,,,
,,,,,R_4s63GuhpzAdK4jj,001,2025-09-05_18h14.55.652,continuous_performance_test,2024.2.4,MacIntel,58.82352941,521ead57-2098-4907-947d-fccba963edb4,6,551.9855,553.8845,space,0,0.175,,0,2,2,25,1,X,,,,,,,,,,,
,,,,,R_4s63GuhpzAdK4jj,001,2025-09-05_18h14.55.652,continuous_performance_test,2024.2.4,MacIntel,58.82352941,521ead57-2098-4907-947d-fccba963edb4,6,553.8861,555.5345,space,1,0.3674,,0,3,3,16,1,Q,space,,,,,,,,,,
,,,,,R_4s63GuhpzAdK4jj,001,2025-09-05_18h14.55.652,continuous_performance_test,2024.2.4,MacIntel,58.82352941,521ead57-2098-4907-947d-fccba963edb4,6,555.5356,557.3336,space,1,0.3625,,0,4,4,2,1,C,space,,,,,,,,,,
,,,,,R_4s63GuhpzAdK4jj,001,2025-09-05_18h14.55.652,continuous_performance_test,2024.2.4,MacIntel,58.82352941,521ead57-2098-4907-947d-fccba963edb4,6,557.3348,559.1845,space,1,0.3006,,0,5,5,18,1,S,space,,,,,,,,,,
,,,,,R_4s63GuhpzAdK4jj,001,2025-09-05_18h14.55.652,continuous_performance_test,2024.2.4,MacIntel,58.82352941,521ead57-2098-4907-947d-fccba963edb4,6,559.1857,560.7843,space,1,0.3016,,0,6,6,9,1,J,space,,,,,,,,,,
,,,,,R_4s63GuhpzAdK4jj,001,2025-09-05_18h14.55.652,continuous_performance_test,2024.2.4,MacIntel,58.82352941,521ead57-2098-4907-947d-fccba963edb4,6,560.7855,562.4338,space,1,0.3975,,0,7,7,23,1,Y,space,,,,,,,,,,
,,,,,R_4s63GuhpzAdK4jj,001,2025-09-05_18h14.55.652,continuous_performance_test,2024.2.4,MacIntel,58.82352941,521ead57-2098-4907-947d-fccba963edb4,6,562.4349,564.4348,space,1,0.3149,,0,8,8,4,1,E,space,,,,,,,,,,
,,,,,R_4s63GuhpzAdK4jj,001,2025-09-05_18h14.55.652,continuous_performance_test,2024.2.4,MacIntel,58.82352941,521ead57-2098-4907-947d-fccba963edb4,6,564.436,566.0347,space,1,0.2754,,0,9,9,17,1,R,space,,,,,,,,,,
,,,,,R_4s63GuhpzAdK4jj,001,2025-09-05_18h14.55.652,continuous_performance_test,2024.2.4,MacIntel,58.82352941,521ead57-2098-4907-947d-fccba963edb4,6,566.0359,567.7847,space,1,0.3627,,0,10,10,20,1,U,space,,,,,,,,,,
,,,,,R_4s63GuhpzAdK4jj,001,2025-09-05_18h14.55.652,continuous_performance_test,2024.2.4,MacIntel,58.82352941,521ead57-2098-4907-947d-fccba963edb4,6,567.7859,569.6348,,1,,,0,11,11,27,1,X,,,,,,,,,,,
,,,,,R_4s63GuhpzAdK4jj,001,2025-09-05_18h14.55.652,continuous_performance_test,2024.2.4,MacIntel,58.82352941,521ead57-2098-4907-947d-fccba963edb4,6,569.636,571.4339,,1,,,0,12,12,29,1,X,,,,,,,,,,,
,,,,,R_4s63GuhpzAdK4jj,001,2025-09-05_18h14.55.652,continuous_performance_test,2024.2.4,MacIntel,58.82352941,521ead57-2098-4907-947d-fccba963edb4,6,571.435,573.2848,space,0,0.3687,0.0095,0,13,13,28,1,X,,,,,,,,,,,
,,,,,R_4s63GuhpzAdK4jj,001,2025-09-05_18h14.55.652,continuous_performance_test,2024.2.4,MacIntel,58.82352941,521ead57-2098-4907-947d-fccba963edb4,6,573.286,574.934,space,1,0.496,,0,14,14,12,1,M,space,,,,,,,,,,
,,,,,R_4s63GuhpzAdK4jj,001,2025-09-05_18h14.55.652,continuous_performance_test,2024.2.4,MacIntel,58.82352941,521ead57-2098-4907-947d-fccba963edb4,6,574.9354,576.6849,space,1,0.2947,,0,15,15,10,1,K,space,,,,,,,,,,
,,,,,R_4s63GuhpzAdK4jj,001,2025-09-05_18h14.55.652,continuous_performance_test,2024.2.4,MacIntel,58.82352941,521ead57-2098-4907-947d-fccba963edb4,6,576.6863,578.634,space,1,0.125,,0,16,16,1,1,B,space,,,,,,,,,,
,,,,,R_4s63GuhpzAdK4jj,001,2025-09-05_18h14.55.652,continuous_performance_test,2024.2.4,MacIntel,58.82352941,521ead57-2098-4907-947d-fccba963edb4,6,578.6352,580.3849,space,1,0.2793,,0,17,17,15,1,P,space,,,,,,,,,,
,,,,,R_4s63GuhpzAdK4jj,001,2025-09-05_18h14.55.652,continuous_performance_test,2024.2.4,MacIntel,58.82352941,521ead57-2098-4907-947d-fccba963edb4,6,580.386,582.2349,space,1,0.2919,,0,18,18,8,1,I,space,,,,,,,,,,
,,,,,R_4s63GuhpzAdK4jj,001,2025-09-05_18h14.55.652,continuous_performance_test,2024.2.4,MacIntel,58.82352941,521ead57-2098-4907-947d-fccba963edb4,6,582.2362,583.7849,space,1,0.3122,,0,19,19,14,1,O,space,,,,,,,,,,
,,,,,R_4s63GuhpzAdK4jj,001,2025-09-05_18h14.55.652,continuous_performance_test,2024.2.4,MacIntel,58.82352941,521ead57-2098-4907-947d-fccba963edb4,6,583.786,585.5349,space,1,0.2917,,0,20,20,21,1,V,space,,,,,,,,,,
,,,,,R_4s63GuhpzAdK4jj,001,2025-09-05_18h14.55.652,continuous_performance_test,2024.2.4,MacIntel,58.82352941,521ead57-2098-4907-947d-fccba963edb4,6,585.5362,587.1842,space,1,0.2582,,0,21,21,22,1,W,space,,,,,,,,,,
,,,,,R_4s63GuhpzAdK4jj,001,2025-09-05_18h14.55.652,continuous_performance_test,2024.2.4,MacIntel,58.82352941,521ead57-2098-4907-947d-fccba963edb4,6,587.1857,588.7847,space,1,0.3124,,0,22,22,24,1,Z,space,,,,,,,,,,
,,,,,R_4s63GuhpzAdK4jj,001,2025-09-05_18h14.55.652,continuous_performance_test,2024.2.4,MacIntel,58.82352941,521ead57-2098-4907-947d-fccba963edb4,6,588.7858,590.3341,space,1,0.2918,,0,23,23,7,1,H,space,,,,,,,,,,
,,,,,R_4s63GuhpzAdK4jj,001,2025-09-05_18h14.55.652,continuous_performance_test,2024.2.4,MacIntel,58.82352941,521ead57-2098-4907-947d-fccba963edb4,6,590.3353,592.2851,space,1,0.1413,,0,24,24,11,1,L,space,,,,,,,,,,
,,,,,R_4s63GuhpzAdK4jj,001,2025-09-05_18h14.55.652,continuous_performance_test,2024.2.4,MacIntel,58.82352941,521ead57-2098-4907-947d-fccba963edb4,6,592.2862,594.2342,space,1,0.3624,,0,25,25,19,1,T,space,,,,,,,,,,
,,,,,R_4s63GuhpzAdK4jj,001,2025-09-05_18h14.55.652,continuous_performance_test,2024.2.4,MacIntel,58.82352941,521ead57-2098-4907-947d-fccba963edb4,6,594.2353,596.0844,space,1,0.3788,,0,26,26,0,1,A,space,,,,,,,,,,
,,,,,R_4s63GuhpzAdK4jj,001,2025-09-05_18h14.55.652,continuous_performance_test,2024.2.4,MacIntel,58.82352941,521ead57-2098-4907-947d-fccba963edb4,6,596.0855,597.7352,space,1,0.3787,,0,27,27,3,1,D,space,,,,,,,,,,
,,,,,R_4s63GuhpzAdK4jj,001,2025-09-05_18h14.55.652,continuous_performance_test,2024.2.4,MacIntel,58.82352941,521ead57-2098-4907-947d-fccba963edb4,6,597.7366,599.2842,space,1,0.3825,,0,28,28,13,1,N,space,,,,,,,,,,
,,,,,R_4s63GuhpzAdK4jj,001,2025-09-05_18h14.55.652,continuous_performance_test,2024.2.4,MacIntel,58.82352941,521ead57-2098-4907-947d-fccba963edb4,6,599.2853,600.9842,space,0,0.375,,0,29,29,26,1,X,,,,,,,,,,,
,,,,,R_4s63GuhpzAdK4jj,001,2025-09-05_18h14.55.652,continuous_performance_test,2024.2.4,MacIntel,58.82352941,521ead57-2098-4907-947d-fccba963edb4,6,,,,,,,,,,,,,,600.9856,600.9864,,,,600.9868,606.0524,space,5.0396,
