Instructions.started,Instructions.stopped,key_resp.keys,key_resp.rt,key_resp.duration,participant,session,date,expName,psychopyVersion,OS,frameRate,realeye-tester-id,realeye-tester-quality_grade,Trial_noX.started,Trial_noX.stopped,response.keys,response.corr,response.rt,response.duration,trials_noX.thisRepN,trials_noX.thisTrialN,trials_noX.thisN,trials_noX.thisIndex,trials_noX.ran,letter,corrAns,BlockBreak.started,BlockBreak.stopped,key_instruct.keys,key_instruct.rt,key_instruct.duration,End_NoX.started,End_NoX.stopped,key_resp_end_noX.keys,key_resp_end_noX.rt,key_resp_end_noX.duration
0,22.844,space,22.806,,R_4VSM3zp8j6mxKPD,001,2025-09-16_21h04.03.734,continuous_performance_test,2024.2.4,MacIntel,58.82352941,90ec4ac7-1e8a-4fb2-b196-3d8844506e59,6,,,,,,,,,,,,,,,,,,,,,,,
,,,,,R_4VSM3zp8j6mxKPD,001,2025-09-16_21h04.03.734,continuous_performance_test,2024.2.4,MacIntel,58.82352941,90ec4ac7-1e8a-4fb2-b196-3d8844506e59,6,22.863,24.661,space,1,0.584,,0,0,0,6,1,G,space,,,,,,,,,,
,,,,,R_4VSM3zp8j6mxKPD,001,2025-09-16_21h04.03.734,continuous_performance_test,2024.2.4,MacIntel,58.82352941,90ec4ac7-1e8a-4fb2-b196-3d8844506e59,6,24.663,26.36,space,1,0.35,,0,1,1,16,1,Q,space,,,,,,,,,,
,,,,,R_4VSM3zp8j6mxKPD,001,2025-09-16_21h04.03.734,continuous_performance_test,2024.2.4,MacIntel,58.82352941,90ec4ac7-1e8a-4fb2-b196-3d8844506e59,6,26.362,28.06,space,1,0.335,,0,2,2,8,1,I,space,,,,,,,,,,
,,,,,R_4VSM3zp8j6mxKPD,001,2025-09-16_21h04.03.734,continuous_performance_test,2024.2.4,MacIntel,58.82352941,90ec4ac7-1e8a-4fb2-b196-3d8844506e59,6,28.062,29.96,space,1,0.349,,0,3,3,0,1,A,space,,,,,,,,,,
,,,,,R_4VSM3zp8j6mxKPD,001,2025-09-16_21h04.03.734,continuous_performance_test,2024.2.4,MacIntel,58.82352941,90ec4ac7-1e8a-4fb2-b196-3d8844506e59,6,29.961,31.66,space,1,0.332,,0,4,4,2,1,C,space,,,,,,,,,,
,,,,,R_4VSM3zp8j6mxKPD,001,2025-09-16_21h04.03.734,continuous_performance_test,2024.2.4,MacIntel,58.82352941,90ec4ac7-1e8a-4fb2-b196-3d8844506e59,6,31.661,33.31,,1,,,0,5,5,29,1,X,,,,,,,,,,,
,,,,,R_4VSM3zp8j6mxKPD,001,2025-09-16_21h04.03.734,continuous_performance_test,2024.2.4,MacIntel,58.82352941,90ec4ac7-1e8a-4fb2-b196-3d8844506e59,6,33.312,35.26,space,1,0.233,,0,6,6,24,1,Z,space,,,,,,,,,,
,,,,,R_4VSM3zp8j6mxKPD,001,2025-09-16_21h04.03.734,continuous_performance_test,2024.2.4,MacIntel,58.82352941,90ec4ac7-1e8a-4fb2-b196-3d8844506e59,6,35.261,36.91,space,1,0.346,,0,7,7,22,1,W,space,,,,,,,,,,
,,,,,R_4VSM3zp8j6mxKPD,001,2025-09-16_21h04.03.734,continuous_performance_test,2024.2.4,MacIntel,58.82352941,90ec4ac7-1e8a-4fb2-b196-3d8844506e59,6,36.911,38.81,space,0,0.489,,0,8,8,25,1,X,,,,,,,,,,,
,,,,,R_4VSM3zp8j6mxKPD,001,2025-09-16_21h04.03.734,continuous_performance_test,2024.2.4,MacIntel,58.82352941,90ec4ac7-1e8a-4fb2-b196-3d8844506e59,6,38.812,40.61,space,1,0.396,,0,9,9,9,1,J,space,,,,,,,,,,
,,,,,R_4VSM3zp8j6mxKPD,001,2025-09-16_21h04.03.734,continuous_performance_test,2024.2.4,MacIntel,58.82352941,90ec4ac7-1e8a-4fb2-b196-3d8844506e59,6,40.611,42.21,space,1,0.363,,0,10,10,11,1,L,space,,,,,,,,,,
,,,,,R_4VSM3zp8j6mxKPD,001,2025-09-16_21h04.03.734,continuous_performance_test,2024.2.4,MacIntel,58.82352941,90ec4ac7-1e8a-4fb2-b196-3d8844506e59,6,42.212,44.06,space,1,0.349,,0,11,11,15,1,P,space,,,,,,,,,,
,,,,,R_4VSM3zp8j6mxKPD,001,2025-09-16_21h04.03.734,continuous_performance_test,2024.2.4,MacIntel,58.82352941,90ec4ac7-1e8a-4fb2-b196-3d8844506e59,6,44.061,45.96,,1,,,0,12,12,28,1,X,,,,,,,,,,,
,,,,,R_4VSM3zp8j6mxKPD,001,2025-09-16_21h04.03.734,continuous_performance_test,2024.2.4,MacIntel,58.82352941,90ec4ac7-1e8a-4fb2-b196-3d8844506e59,6,45.961,47.66,space,1,0.33,,0,13,13,5,1,F,space,,,,,,,,,,
,,,,,R_4VSM3zp8j6mxKPD,001,2025-09-16_21h04.03.734,continuous_performance_test,2024.2.4,MacIntel,58.82352941,90ec4ac7-1e8a-4fb2-b196-3d8844506e59,6,47.661,49.459,space,1,0.363,,0,14,14,20,1,U,space,,,,,,,,,,
,,,,,R_4VSM3zp8j6mxKPD,001,2025-09-16_21h04.03.734,continuous_performance_test,2024.2.4,MacIntel,58.82352941,90ec4ac7-1e8a-4fb2-b196-3d8844506e59,6,49.46,51.159,space,1,0.648,,0,15,15,18,1,S,space,,,,,,,,,,
,,,,,R_4VSM3zp8j6mxKPD,001,2025-09-16_21h04.03.734,continuous_performance_test,2024.2.4,MacIntel,58.82352941,90ec4ac7-1e8a-4fb2-b196-3d8844506e59,6,51.162,53.109,space,1,0.471,,0,16,16,19,1,T,space,,,,,,,,,,
,,,,,R_4VSM3zp8j6mxKPD,001,2025-09-16_21h04.03.734,continuous_performance_test,2024.2.4,MacIntel,58.82352941,90ec4ac7-1e8a-4fb2-b196-3d8844506e59,6,53.111,54.86,space,1,0.386,,0,17,17,7,1,H,space,,,,,,,,,,
,,,,,R_4VSM3zp8j6mxKPD,001,2025-09-16_21h04.03.734,continuous_performance_test,2024.2.4,MacIntel,58.82352941,90ec4ac7-1e8a-4fb2-b196-3d8844506e59,6,54.861,56.66,space,1,0.331,,0,18,18,3,1,D,space,,,,,,,,,,
,,,,,R_4VSM3zp8j6mxKPD,001,2025-09-16_21h04.03.734,continuous_performance_test,2024.2.4,MacIntel,58.82352941,90ec4ac7-1e8a-4fb2-b196-3d8844506e59,6,56.661,58.41,space,1,0.649,,0,19,19,13,1,N,space,,,,,,,,,,
,,,,,R_4VSM3zp8j6mxKPD,001,2025-09-16_21h04.03.734,continuous_performance_test,2024.2.4,MacIntel,58.82352941,90ec4ac7-1e8a-4fb2-b196-3d8844506e59,6,58.412,60.21,space,1,0.353,,0,20,20,21,1,V,space,,,,,,,,,,
,,,,,R_4VSM3zp8j6mxKPD,001,2025-09-16_21h04.03.734,continuous_performance_test,2024.2.4,MacIntel,58.82352941,90ec4ac7-1e8a-4fb2-b196-3d8844506e59,6,60.212,61.76,space,1,0.33,,0,21,21,4,1,E,space,,,,,,,,,,
,,,,,R_4VSM3zp8j6mxKPD,001,2025-09-16_21h04.03.734,continuous_performance_test,2024.2.4,MacIntel,58.82352941,90ec4ac7-1e8a-4fb2-b196-3d8844506e59,6,61.761,63.66,space,1,0.368,,0,22,22,17,1,R,space,,,,,,,,,,
,,,,,R_4VSM3zp8j6mxKPD,001,2025-09-16_21h04.03.734,continuous_performance_test,2024.2.4,MacIntel,58.82352941,90ec4ac7-1e8a-4fb2-b196-3d8844506e59,6,63.662,65.36,space,1,0.28,,0,23,23,10,1,K,space,,,,,,,,,,
,,,,,R_4VSM3zp8j6mxKPD,001,2025-09-16_21h04.03.734,continuous_performance_test,2024.2.4,MacIntel,58.82352941,90ec4ac7-1e8a-4fb2-b196-3d8844506e59,6,65.361,67.06,space,1,0.338,,0,24,24,14,1,O,space,,,,,,,,,,
,,,,,R_4VSM3zp8j6mxKPD,001,2025-09-16_21h04.03.734,continuous_performance_test,2024.2.4,MacIntel,58.82352941,90ec4ac7-1e8a-4fb2-b196-3d8844506e59,6,67.061,68.76,space,1,0.252,,0,25,25,12,1,M,space,,,,,,,,,,
,,,,,R_4VSM3zp8j6mxKPD,001,2025-09-16_21h04.03.734,continuous_performance_test,2024.2.4,MacIntel,58.82352941,90ec4ac7-1e8a-4fb2-b196-3d8844506e59,6,68.761,70.709,space,1,0.402,,0,26,26,23,1,Y,space,,,,,,,,,,
,,,,,R_4VSM3zp8j6mxKPD,001,2025-09-16_21h04.03.734,continuous_performance_test,2024.2.4,MacIntel,58.82352941,90ec4ac7-1e8a-4fb2-b196-3d8844506e59,6,70.711,72.46,space,1,0.347,,0,27,27,1,1,B,space,,,,,,,,,,
,,,,,R_4VSM3zp8j6mxKPD,001,2025-09-16_21h04.03.734,continuous_performance_test,2024.2.4,MacIntel,58.82352941,90ec4ac7-1e8a-4fb2-b196-3d8844506e59,6,72.462,74.31,space,0,0.362,,0,28,28,27,1,X,,,,,,,,,,,
,,,,,R_4VSM3zp8j6mxKPD,001,2025-09-16_21h04.03.734,continuous_performance_test,2024.2.4,MacIntel,58.82352941,90ec4ac7-1e8a-4fb2-b196-3d8844506e59,6,74.311,76.159,space,0,0.451,,0,29,29,26,1,X,,,,,,,,,,,
,,,,,R_4VSM3zp8j6mxKPD,001,2025-09-16_21h04.03.734,continuous_performance_test,2024.2.4,MacIntel,58.82352941,90ec4ac7-1e8a-4fb2-b196-3d8844506e59,6,85.802,87.793,,1,,,0,0,0,28,1,X,,76.164,85.794,space,9.595,,,,,,
,,,,,R_4VSM3zp8j6mxKPD,001,2025-09-16_21h04.03.734,continuous_performance_test,2024.2.4,MacIntel,58.82352941,90ec4ac7-1e8a-4fb2-b196-3d8844506e59,6,87.794,89.692,space,0,0.276,,0,1,1,29,1,X,,,,,,,,,,,
,,,,,R_4VSM3zp8j6mxKPD,001,2025-09-16_21h04.03.734,continuous_performance_test,2024.2.4,MacIntel,58.82352941,90ec4ac7-1e8a-4fb2-b196-3d8844506e59,6,89.695,91.492,space,1,0.35,,0,2,2,9,1,J,space,,,,,,,,,,
,,,,,R_4VSM3zp8j6mxKPD,001,2025-09-16_21h04.03.734,continuous_performance_test,2024.2.4,MacIntel,58.82352941,90ec4ac7-1e8a-4fb2-b196-3d8844506e59,6,91.494,93.493,space,1,0.315,,0,3,3,16,1,Q,space,,,,,,,,,,
,,,,,R_4VSM3zp8j6mxKPD,001,2025-09-16_21h04.03.734,continuous_performance_test,2024.2.4,MacIntel,58.82352941,90ec4ac7-1e8a-4fb2-b196-3d8844506e59,6,93.495,95.193,space,1,0.313,,0,4,4,15,1,P,space,,,,,,,,,,
,,,,,R_4VSM3zp8j6mxKPD,001,2025-09-16_21h04.03.734,continuous_performance_test,2024.2.4,MacIntel,58.82352941,90ec4ac7-1e8a-4fb2-b196-3d8844506e59,6,95.195,96.993,,1,,,0,5,5,26,1,X,,,,,,,,,,,
,,,,,R_4VSM3zp8j6mxKPD,001,2025-09-16_21h04.03.734,continuous_performance_test,2024.2.4,MacIntel,58.82352941,90ec4ac7-1e8a-4fb2-b196-3d8844506e59,6,96.994,98.893,space,1,0.363,,0,6,6,4,1,E,space,,,,,,,,,,
,,,,,R_4VSM3zp8j6mxKPD,001,2025-09-16_21h04.03.734,continuous_performance_test,2024.2.4,MacIntel,58.82352941,90ec4ac7-1e8a-4fb2-b196-3d8844506e59,6,98.894,100.893,space,1,0.42,,0,7,7,11,1,L,space,,,,,,,,,,
,,,,,R_4VSM3zp8j6mxKPD,001,2025-09-16_21h04.03.734,continuous_performance_test,2024.2.4,MacIntel,58.82352941,90ec4ac7-1e8a-4fb2-b196-3d8844506e59,6,100.894,102.493,space,1,0.418,,0,8,8,5,1,F,space,,,,,,,,,,
,,,,,R_4VSM3zp8j6mxKPD,001,2025-09-16_21h04.03.734,continuous_performance_test,2024.2.4,MacIntel,58.82352941,90ec4ac7-1e8a-4fb2-b196-3d8844506e59,6,102.495,104.193,space,1,0.436,,0,9,9,12,1,M,space,,,,,,,,,,
,,,,,R_4VSM3zp8j6mxKPD,001,2025-09-16_21h04.03.734,continuous_performance_test,2024.2.4,MacIntel,58.82352941,90ec4ac7-1e8a-4fb2-b196-3d8844506e59,6,104.194,105.892,,1,,,0,10,10,27,1,X,,,,,,,,,,,
,,,,,R_4VSM3zp8j6mxKPD,001,2025-09-16_21h04.03.734,continuous_performance_test,2024.2.4,MacIntel,58.82352941,90ec4ac7-1e8a-4fb2-b196-3d8844506e59,6,105.894,107.843,space,1,0.312,,0,11,11,10,1,K,space,,,,,,,,,,
,,,,,R_4VSM3zp8j6mxKPD,001,2025-09-16_21h04.03.734,continuous_performance_test,2024.2.4,MacIntel,58.82352941,90ec4ac7-1e8a-4fb2-b196-3d8844506e59,6,107.844,109.743,space,1,0.379,,0,12,12,23,1,Y,space,,,,,,,,,,
,,,,,R_4VSM3zp8j6mxKPD,001,2025-09-16_21h04.03.734,continuous_performance_test,2024.2.4,MacIntel,58.82352941,90ec4ac7-1e8a-4fb2-b196-3d8844506e59,6,109.744,111.593,space,1,0.411,,0,13,13,8,1,I,space,,,,,,,,,,
,,,,,R_4VSM3zp8j6mxKPD,001,2025-09-16_21h04.03.734,continuous_performance_test,2024.2.4,MacIntel,58.82352941,90ec4ac7-1e8a-4fb2-b196-3d8844506e59,6,111.596,113.443,space,1,0.349,,0,14,14,1,1,B,space,,,,,,,,,,
,,,,,R_4VSM3zp8j6mxKPD,001,2025-09-16_21h04.03.734,continuous_performance_test,2024.2.4,MacIntel,58.82352941,90ec4ac7-1e8a-4fb2-b196-3d8844506e59,6,113.444,115.093,space,1,0.466,,0,15,15,7,1,H,space,,,,,,,,,,
,,,,,R_4VSM3zp8j6mxKPD,001,2025-09-16_21h04.03.734,continuous_performance_test,2024.2.4,MacIntel,58.82352941,90ec4ac7-1e8a-4fb2-b196-3d8844506e59,6,115.094,116.842,space,1,0.366,,0,16,16,0,1,A,space,,,,,,,,,,
,,,,,R_4VSM3zp8j6mxKPD,001,2025-09-16_21h04.03.734,continuous_performance_test,2024.2.4,MacIntel,58.82352941,90ec4ac7-1e8a-4fb2-b196-3d8844506e59,6,116.844,118.693,space,0,0.38,,0,17,17,25,1,X,,,,,,,,,,,
,,,,,R_4VSM3zp8j6mxKPD,001,2025-09-16_21h04.03.734,continuous_performance_test,2024.2.4,MacIntel,58.82352941,90ec4ac7-1e8a-4fb2-b196-3d8844506e59,6,118.694,120.443,space,1,0.48,,0,18,18,21,1,V,space,,,,,,,,,,
,,,,,R_4VSM3zp8j6mxKPD,001,2025-09-16_21h04.03.734,continuous_performance_test,2024.2.4,MacIntel,58.82352941,90ec4ac7-1e8a-4fb2-b196-3d8844506e59,6,120.444,122.143,space,1,0.38,,0,19,19,3,1,D,space,,,,,,,,,,
,,,,,R_4VSM3zp8j6mxKPD,001,2025-09-16_21h04.03.734,continuous_performance_test,2024.2.4,MacIntel,58.82352941,90ec4ac7-1e8a-4fb2-b196-3d8844506e59,6,122.144,123.843,space,1,0.514,,0,20,20,24,1,Z,space,,,,,,,,,,
,,,,,R_4VSM3zp8j6mxKPD,001,2025-09-16_21h04.03.734,continuous_performance_test,2024.2.4,MacIntel,58.82352941,90ec4ac7-1e8a-4fb2-b196-3d8844506e59,6,123.845,125.743,space,1,0.369,,0,21,21,20,1,U,space,,,,,,,,,,
,,,,,R_4VSM3zp8j6mxKPD,001,2025-09-16_21h04.03.734,continuous_performance_test,2024.2.4,MacIntel,58.82352941,90ec4ac7-1e8a-4fb2-b196-3d8844506e59,6,125.744,127.593,space,1,0.396,,0,22,22,14,1,O,space,,,,,,,,,,
,,,,,R_4VSM3zp8j6mxKPD,001,2025-09-16_21h04.03.734,continuous_performance_test,2024.2.4,MacIntel,58.82352941,90ec4ac7-1e8a-4fb2-b196-3d8844506e59,6,127.595,129.143,space,1,0.446,,0,23,23,19,1,T,space,,,,,,,,,,
,,,,,R_4VSM3zp8j6mxKPD,001,2025-09-16_21h04.03.734,continuous_performance_test,2024.2.4,MacIntel,58.82352941,90ec4ac7-1e8a-4fb2-b196-3d8844506e59,6,129.145,131.043,space,1,0.416,,0,24,24,6,1,G,space,,,,,,,,,,
,,,,,R_4VSM3zp8j6mxKPD,001,2025-09-16_21h04.03.734,continuous_performance_test,2024.2.4,MacIntel,58.82352941,90ec4ac7-1e8a-4fb2-b196-3d8844506e59,6,131.044,132.593,space,1,0.552,,0,25,25,22,1,W,space,,,,,,,,,,
,,,,,R_4VSM3zp8j6mxKPD,001,2025-09-16_21h04.03.734,continuous_performance_test,2024.2.4,MacIntel,58.82352941,90ec4ac7-1e8a-4fb2-b196-3d8844506e59,6,132.594,134.243,space,1,0.452,,0,26,26,17,1,R,space,,,,,,,,,,
,,,,,R_4VSM3zp8j6mxKPD,001,2025-09-16_21h04.03.734,continuous_performance_test,2024.2.4,MacIntel,58.82352941,90ec4ac7-1e8a-4fb2-b196-3d8844506e59,6,134.244,136.043,space,1,0.384,,0,27,27,13,1,N,space,,,,,,,,,,
,,,,,R_4VSM3zp8j6mxKPD,001,2025-09-16_21h04.03.734,continuous_performance_test,2024.2.4,MacIntel,58.82352941,90ec4ac7-1e8a-4fb2-b196-3d8844506e59,6,136.044,137.943,space,1,0.38,,0,28,28,2,1,C,space,,,,,,,,,,
,,,,,R_4VSM3zp8j6mxKPD,001,2025-09-16_21h04.03.734,continuous_performance_test,2024.2.4,MacIntel,58.82352941,90ec4ac7-1e8a-4fb2-b196-3d8844506e59,6,137.945,139.493,space,1,0.447,,0,29,29,18,1,S,space,,,,,,,,,,
,,,,,R_4VSM3zp8j6mxKPD,001,2025-09-16_21h04.03.734,continuous_performance_test,2024.2.4,MacIntel,58.82352941,90ec4ac7-1e8a-4fb2-b196-3d8844506e59,6,150.885,152.676,space,1,0.501,,0,0,0,8,1,I,space,139.494,150.876,space,11.351,,,,,,
,,,,,R_4VSM3zp8j6mxKPD,001,2025-09-16_21h04.03.734,continuous_performance_test,2024.2.4,MacIntel,58.82352941,90ec4ac7-1e8a-4fb2-b196-3d8844506e59,6,152.677,154.626,space,1,0.363,,0,1,1,0,1,A,space,,,,,,,,,,
,,,,,R_4VSM3zp8j6mxKPD,001,2025-09-16_21h04.03.734,continuous_performance_test,2024.2.4,MacIntel,58.82352941,90ec4ac7-1e8a-4fb2-b196-3d8844506e59,6,154.628,156.627,space,1,0.329,,0,2,2,13,1,N,space,,,,,,,,,,
,,,,,R_4VSM3zp8j6mxKPD,001,2025-09-16_21h04.03.734,continuous_performance_test,2024.2.4,MacIntel,58.82352941,90ec4ac7-1e8a-4fb2-b196-3d8844506e59,6,156.628,158.327,space,1,0.352,,0,3,3,9,1,J,space,,,,,,,,,,
,,,,,R_4VSM3zp8j6mxKPD,001,2025-09-16_21h04.03.734,continuous_performance_test,2024.2.4,MacIntel,58.82352941,90ec4ac7-1e8a-4fb2-b196-3d8844506e59,6,158.328,159.926,space,1,0.335,,0,4,4,3,1,D,space,,,,,,,,,,
,,,,,R_4VSM3zp8j6mxKPD,001,2025-09-16_21h04.03.734,continuous_performance_test,2024.2.4,MacIntel,58.82352941,90ec4ac7-1e8a-4fb2-b196-3d8844506e59,6,159.927,161.526,space,1,0.319,,0,5,5,6,1,G,space,,,,,,,,,,
,,,,,R_4VSM3zp8j6mxKPD,001,2025-09-16_21h04.03.734,continuous_performance_test,2024.2.4,MacIntel,58.82352941,90ec4ac7-1e8a-4fb2-b196-3d8844506e59,6,161.527,163.127,space,1,0.334,,0,6,6,14,1,O,space,,,,,,,,,,
,,,,,R_4VSM3zp8j6mxKPD,001,2025-09-16_21h04.03.734,continuous_performance_test,2024.2.4,MacIntel,58.82352941,90ec4ac7-1e8a-4fb2-b196-3d8844506e59,6,163.128,164.677,,1,,,0,7,7,27,1,X,,,,,,,,,,,
,,,,,R_4VSM3zp8j6mxKPD,001,2025-09-16_21h04.03.734,continuous_performance_test,2024.2.4,MacIntel,58.82352941,90ec4ac7-1e8a-4fb2-b196-3d8844506e59,6,164.678,166.526,space,1,0.388,,0,8,8,23,1,Y,space,,,,,,,,,,
,,,,,R_4VSM3zp8j6mxKPD,001,2025-09-16_21h04.03.734,continuous_performance_test,2024.2.4,MacIntel,58.82352941,90ec4ac7-1e8a-4fb2-b196-3d8844506e59,6,166.527,168.127,space,1,0.413,,0,9,9,21,1,V,space,,,,,,,,,,
,,,,,R_4VSM3zp8j6mxKPD,001,2025-09-16_21h04.03.734,continuous_performance_test,2024.2.4,MacIntel,58.82352941,90ec4ac7-1e8a-4fb2-b196-3d8844506e59,6,168.128,169.926,space,1,0.366,,0,10,10,11,1,L,space,,,,,,,,,,
,,,,,R_4VSM3zp8j6mxKPD,001,2025-09-16_21h04.03.734,continuous_performance_test,2024.2.4,MacIntel,58.82352941,90ec4ac7-1e8a-4fb2-b196-3d8844506e59,6,169.928,171.926,space,1,0.362,,0,11,11,18,1,S,space,,,,,,,,,,
,,,,,R_4VSM3zp8j6mxKPD,001,2025-09-16_21h04.03.734,continuous_performance_test,2024.2.4,MacIntel,58.82352941,90ec4ac7-1e8a-4fb2-b196-3d8844506e59,6,171.928,173.576,space,1,0.38,,0,12,12,12,1,M,space,,,,,,,,,,
,,,,,R_4VSM3zp8j6mxKPD,001,2025-09-16_21h04.03.734,continuous_performance_test,2024.2.4,MacIntel,58.82352941,90ec4ac7-1e8a-4fb2-b196-3d8844506e59,6,173.578,175.127,,1,,,0,13,13,29,1,X,,,,,,,,,,,
,,,,,R_4VSM3zp8j6mxKPD,001,2025-09-16_21h04.03.734,continuous_performance_test,2024.2.4,MacIntel,58.82352941,90ec4ac7-1e8a-4fb2-b196-3d8844506e59,6,175.128,176.727,space,1,0.313,,0,14,14,16,1,Q,space,,,,,,,,,,
,,,,,R_4VSM3zp8j6mxKPD,001,2025-09-16_21h04.03.734,continuous_performance_test,2024.2.4,MacIntel,58.82352941,90ec4ac7-1e8a-4fb2-b196-3d8844506e59,6,176.728,178.327,space,1,0.346,,0,15,15,15,1,P,space,,,,,,,,,,
,,,,,R_4VSM3zp8j6mxKPD,001,2025-09-16_21h04.03.734,continuous_performance_test,2024.2.4,MacIntel,58.82352941,90ec4ac7-1e8a-4fb2-b196-3d8844506e59,6,178.328,180.277,space,1,0.362,,0,16,16,22,1,W,space,,,,,,,,,,
,,,,,R_4VSM3zp8j6mxKPD,001,2025-09-16_21h04.03.734,continuous_performance_test,2024.2.4,MacIntel,58.82352941,90ec4ac7-1e8a-4fb2-b196-3d8844506e59,6,180.278,182.277,,1,,,0,17,17,26,1,X,,,,,,,,,,,
,,,,,R_4VSM3zp8j6mxKPD,001,2025-09-16_21h04.03.734,continuous_performance_test,2024.2.4,MacIntel,58.82352941,90ec4ac7-1e8a-4fb2-b196-3d8844506e59,6,182.277,183.976,space,1,0.363,,0,18,18,1,1,B,space,,,,,,,,,,
,,,,,R_4VSM3zp8j6mxKPD,001,2025-09-16_21h04.03.734,continuous_performance_test,2024.2.4,MacIntel,58.82352941,90ec4ac7-1e8a-4fb2-b196-3d8844506e59,6,183.978,185.976,space,1,0.381,,0,19,19,4,1,E,space,,,,,,,,,,
,,,,,R_4VSM3zp8j6mxKPD,001,2025-09-16_21h04.03.734,continuous_performance_test,2024.2.4,MacIntel,58.82352941,90ec4ac7-1e8a-4fb2-b196-3d8844506e59,6,185.978,187.676,,1,,,0,20,20,25,1,X,,,,,,,,,,,
,,,,,R_4VSM3zp8j6mxKPD,001,2025-09-16_21h04.03.734,continuous_performance_test,2024.2.4,MacIntel,58.82352941,90ec4ac7-1e8a-4fb2-b196-3d8844506e59,6,187.678,189.477,space,1,0.334,,0,21,21,24,1,Z,space,,,,,,,,,,
,,,,,R_4VSM3zp8j6mxKPD,001,2025-09-16_21h04.03.734,continuous_performance_test,2024.2.4,MacIntel,58.82352941,90ec4ac7-1e8a-4fb2-b196-3d8844506e59,6,189.478,191.427,space,1,0.48,,0,22,22,17,1,R,space,,,,,,,,,,
,,,,,R_4VSM3zp8j6mxKPD,001,2025-09-16_21h04.03.734,continuous_performance_test,2024.2.4,MacIntel,58.82352941,90ec4ac7-1e8a-4fb2-b196-3d8844506e59,6,191.428,193.326,space,1,0.413,,0,23,23,19,1,T,space,,,,,,,,,,
,,,,,R_4VSM3zp8j6mxKPD,001,2025-09-16_21h04.03.734,continuous_performance_test,2024.2.4,MacIntel,58.82352941,90ec4ac7-1e8a-4fb2-b196-3d8844506e59,6,193.328,194.977,space,1,0.48,,0,24,24,7,1,H,space,,,,,,,,,,
,,,,,R_4VSM3zp8j6mxKPD,001,2025-09-16_21h04.03.734,continuous_performance_test,2024.2.4,MacIntel,58.82352941,90ec4ac7-1e8a-4fb2-b196-3d8844506e59,6,194.978,196.676,space,1,0.367,,0,25,25,20,1,U,space,,,,,,,,,,
,,,,,R_4VSM3zp8j6mxKPD,001,2025-09-16_21h04.03.734,continuous_performance_test,2024.2.4,MacIntel,58.82352941,90ec4ac7-1e8a-4fb2-b196-3d8844506e59,6,196.678,198.577,space,1,0.513,,0,26,26,10,1,K,space,,,,,,,,,,
,,,,,R_4VSM3zp8j6mxKPD,001,2025-09-16_21h04.03.734,continuous_performance_test,2024.2.4,MacIntel,58.82352941,90ec4ac7-1e8a-4fb2-b196-3d8844506e59,6,198.578,200.176,space,1,0.355,,0,27,27,2,1,C,space,,,,,,,,,,
,,,,,R_4VSM3zp8j6mxKPD,001,2025-09-16_21h04.03.734,continuous_performance_test,2024.2.4,MacIntel,58.82352941,90ec4ac7-1e8a-4fb2-b196-3d8844506e59,6,200.179,202.076,,1,,,0,28,28,28,1,X,,,,,,,,,,,
,,,,,R_4VSM3zp8j6mxKPD,001,2025-09-16_21h04.03.734,continuous_performance_test,2024.2.4,MacIntel,58.82352941,90ec4ac7-1e8a-4fb2-b196-3d8844506e59,6,202.077,203.627,space,1,0.351,,0,29,29,5,1,F,space,,,,,,,,,,
,,,,,R_4VSM3zp8j6mxKPD,001,2025-09-16_21h04.03.734,continuous_performance_test,2024.2.4,MacIntel,58.82352941,90ec4ac7-1e8a-4fb2-b196-3d8844506e59,6,204.682,206.577,space,1,0.468,,0,0,0,5,1,F,space,203.628,204.676,space,1.02,,,,,,
,,,,,R_4VSM3zp8j6mxKPD,001,2025-09-16_21h04.03.734,continuous_performance_test,2024.2.4,MacIntel,58.82352941,90ec4ac7-1e8a-4fb2-b196-3d8844506e59,6,206.578,208.176,space,1,0.313,,0,1,1,19,1,T,space,,,,,,,,,,
,,,,,R_4VSM3zp8j6mxKPD,001,2025-09-16_21h04.03.734,continuous_performance_test,2024.2.4,MacIntel,58.82352941,90ec4ac7-1e8a-4fb2-b196-3d8844506e59,6,208.178,209.976,space,1,0.337,,0,2,2,24,1,Z,space,,,,,,,,,,
,,,,,R_4VSM3zp8j6mxKPD,001,2025-09-16_21h04.03.734,continuous_performance_test,2024.2.4,MacIntel,58.82352941,90ec4ac7-1e8a-4fb2-b196-3d8844506e59,6,209.978,211.776,,1,,,0,3,3,28,1,X,,,,,,,,,,,
,,,,,R_4VSM3zp8j6mxKPD,001,2025-09-16_21h04.03.734,continuous_performance_test,2024.2.4,MacIntel,58.82352941,90ec4ac7-1e8a-4fb2-b196-3d8844506e59,6,211.777,213.526,space,1,0.331,,0,4,4,23,1,Y,space,,,,,,,,,,
,,,,,R_4VSM3zp8j6mxKPD,001,2025-09-16_21h04.03.734,continuous_performance_test,2024.2.4,MacIntel,58.82352941,90ec4ac7-1e8a-4fb2-b196-3d8844506e59,6,213.528,215.076,space,1,0.368,,0,5,5,9,1,J,space,,,,,,,,,,
,,,,,R_4VSM3zp8j6mxKPD,001,2025-09-16_21h04.03.734,continuous_performance_test,2024.2.4,MacIntel,58.82352941,90ec4ac7-1e8a-4fb2-b196-3d8844506e59,6,215.078,216.977,space,1,0.347,,0,6,6,21,1,V,space,,,,,,,,,,
,,,,,R_4VSM3zp8j6mxKPD,001,2025-09-16_21h04.03.734,continuous_performance_test,2024.2.4,MacIntel,58.82352941,90ec4ac7-1e8a-4fb2-b196-3d8844506e59,6,216.978,218.676,space,1,0.33,,0,7,7,11,1,L,space,,,,,,,,,,
,,,,,R_4VSM3zp8j6mxKPD,001,2025-09-16_21h04.03.734,continuous_performance_test,2024.2.4,MacIntel,58.82352941,90ec4ac7-1e8a-4fb2-b196-3d8844506e59,6,218.678,220.276,space,1,0.347,,0,8,8,20,1,U,space,,,,,,,,,,
,,,,,R_4VSM3zp8j6mxKPD,001,2025-09-16_21h04.03.734,continuous_performance_test,2024.2.4,MacIntel,58.82352941,90ec4ac7-1e8a-4fb2-b196-3d8844506e59,6,220.278,221.876,space,1,0.368,,0,9,9,14,1,O,space,,,,,,,,,,
,,,,,R_4VSM3zp8j6mxKPD,001,2025-09-16_21h04.03.734,continuous_performance_test,2024.2.4,MacIntel,58.82352941,90ec4ac7-1e8a-4fb2-b196-3d8844506e59,6,221.877,223.475,space,1,0.381,,0,10,10,0,1,A,space,,,,,,,,,,
,,,,,R_4VSM3zp8j6mxKPD,001,2025-09-16_21h04.03.734,continuous_performance_test,2024.2.4,MacIntel,58.82352941,90ec4ac7-1e8a-4fb2-b196-3d8844506e59,6,223.477,225.177,,1,,,0,11,11,25,1,X,,,,,,,,,,,
,,,,,R_4VSM3zp8j6mxKPD,001,2025-09-16_21h04.03.734,continuous_performance_test,2024.2.4,MacIntel,58.82352941,90ec4ac7-1e8a-4fb2-b196-3d8844506e59,6,225.178,226.726,space,1,0.352,,0,12,12,10,1,K,space,,,,,,,,,,
,,,,,R_4VSM3zp8j6mxKPD,001,2025-09-16_21h04.03.734,continuous_performance_test,2024.2.4,MacIntel,58.82352941,90ec4ac7-1e8a-4fb2-b196-3d8844506e59,6,226.727,228.576,space,1,0.321,,0,13,13,4,1,E,space,,,,,,,,,,
,,,,,R_4VSM3zp8j6mxKPD,001,2025-09-16_21h04.03.734,continuous_performance_test,2024.2.4,MacIntel,58.82352941,90ec4ac7-1e8a-4fb2-b196-3d8844506e59,6,228.578,230.326,space,1,0.346,,0,14,14,1,1,B,space,,,,,,,,,,
,,,,,R_4VSM3zp8j6mxKPD,001,2025-09-16_21h04.03.734,continuous_performance_test,2024.2.4,MacIntel,58.82352941,90ec4ac7-1e8a-4fb2-b196-3d8844506e59,6,230.329,232.076,space,1,0.347,,0,15,15,3,1,D,space,,,,,,,,,,
,,,,,R_4VSM3zp8j6mxKPD,001,2025-09-16_21h04.03.734,continuous_performance_test,2024.2.4,MacIntel,58.82352941,90ec4ac7-1e8a-4fb2-b196-3d8844506e59,6,232.077,234.077,space,1,0.466,,0,16,16,22,1,W,space,,,,,,,,,,
,,,,,R_4VSM3zp8j6mxKPD,001,2025-09-16_21h04.03.734,continuous_performance_test,2024.2.4,MacIntel,58.82352941,90ec4ac7-1e8a-4fb2-b196-3d8844506e59,6,234.077,236.026,,1,,,0,17,17,27,1,X,,,,,,,,,,,
,,,,,R_4VSM3zp8j6mxKPD,001,2025-09-16_21h04.03.734,continuous_performance_test,2024.2.4,MacIntel,58.82352941,90ec4ac7-1e8a-4fb2-b196-3d8844506e59,6,236.027,237.976,,1,,,0,18,18,26,1,X,,,,,,,,,,,
,,,,,R_4VSM3zp8j6mxKPD,001,2025-09-16_21h04.03.734,continuous_performance_test,2024.2.4,MacIntel,58.82352941,90ec4ac7-1e8a-4fb2-b196-3d8844506e59,6,237.977,239.826,space,1,0.337,,0,19,19,13,1,N,space,,,,,,,,,,
,,,,,R_4VSM3zp8j6mxKPD,001,2025-09-16_21h04.03.734,continuous_performance_test,2024.2.4,MacIntel,58.82352941,90ec4ac7-1e8a-4fb2-b196-3d8844506e59,6,239.828,241.376,space,1,0.353,,0,20,20,7,1,H,space,,,,,,,,,,
,,,,,R_4VSM3zp8j6mxKPD,001,2025-09-16_21h04.03.734,continuous_performance_test,2024.2.4,MacIntel,58.82352941,90ec4ac7-1e8a-4fb2-b196-3d8844506e59,6,241.378,243.326,space,1,0.33,,0,21,21,18,1,S,space,,,,,,,,,,
,,,,,R_4VSM3zp8j6mxKPD,001,2025-09-16_21h04.03.734,continuous_performance_test,2024.2.4,MacIntel,58.82352941,90ec4ac7-1e8a-4fb2-b196-3d8844506e59,6,243.327,245.276,space,1,0.396,,0,22,22,2,1,C,space,,,,,,,,,,
,,,,,R_4VSM3zp8j6mxKPD,001,2025-09-16_21h04.03.734,continuous_performance_test,2024.2.4,MacIntel,58.82352941,90ec4ac7-1e8a-4fb2-b196-3d8844506e59,6,245.277,246.876,space,1,0.381,,0,23,23,6,1,G,space,,,,,,,,,,
,,,,,R_4VSM3zp8j6mxKPD,001,2025-09-16_21h04.03.734,continuous_performance_test,2024.2.4,MacIntel,58.82352941,90ec4ac7-1e8a-4fb2-b196-3d8844506e59,6,246.877,248.725,space,1,0.43,,0,24,24,12,1,M,space,,,,,,,,,,
,,,,,R_4VSM3zp8j6mxKPD,001,2025-09-16_21h04.03.734,continuous_performance_test,2024.2.4,MacIntel,58.82352941,90ec4ac7-1e8a-4fb2-b196-3d8844506e59,6,248.726,250.676,space,1,0.37,,0,25,25,15,1,P,space,,,,,,,,,,
,,,,,R_4VSM3zp8j6mxKPD,001,2025-09-16_21h04.03.734,continuous_performance_test,2024.2.4,MacIntel,58.82352941,90ec4ac7-1e8a-4fb2-b196-3d8844506e59,6,250.678,252.426,,1,,,0,26,26,29,1,X,,,,,,,,,,,
,,,,,R_4VSM3zp8j6mxKPD,001,2025-09-16_21h04.03.734,continuous_performance_test,2024.2.4,MacIntel,58.82352941,90ec4ac7-1e8a-4fb2-b196-3d8844506e59,6,252.427,254.326,space,1,0.301,,0,27,27,16,1,Q,space,,,,,,,,,,
,,,,,R_4VSM3zp8j6mxKPD,001,2025-09-16_21h04.03.734,continuous_performance_test,2024.2.4,MacIntel,58.82352941,90ec4ac7-1e8a-4fb2-b196-3d8844506e59,6,254.327,256.226,space,1,0.313,,0,28,28,17,1,R,space,,,,,,,,,,
,,,,,R_4VSM3zp8j6mxKPD,001,2025-09-16_21h04.03.734,continuous_performance_test,2024.2.4,MacIntel,58.82352941,90ec4ac7-1e8a-4fb2-b196-3d8844506e59,6,256.228,257.876,space,1,0.366,,0,29,29,8,1,I,space,,,,,,,,,,
,,,,,R_4VSM3zp8j6mxKPD,001,2025-09-16_21h04.03.734,continuous_performance_test,2024.2.4,MacIntel,58.82352941,90ec4ac7-1e8a-4fb2-b196-3d8844506e59,6,258.915,260.559,space,1,0.667,,0,0,0,19,1,T,space,257.878,258.91,space,0.996,,,,,,
,,,,,R_4VSM3zp8j6mxKPD,001,2025-09-16_21h04.03.734,continuous_performance_test,2024.2.4,MacIntel,58.82352941,90ec4ac7-1e8a-4fb2-b196-3d8844506e59,6,260.562,262.31,space,1,0.296,,0,1,1,18,1,S,space,,,,,,,,,,
,,,,,R_4VSM3zp8j6mxKPD,001,2025-09-16_21h04.03.734,continuous_performance_test,2024.2.4,MacIntel,58.82352941,90ec4ac7-1e8a-4fb2-b196-3d8844506e59,6,262.311,264.31,space,1,0.315,,0,2,2,17,1,R,space,,,,,,,,,,
,,,,,R_4VSM3zp8j6mxKPD,001,2025-09-16_21h04.03.734,continuous_performance_test,2024.2.4,MacIntel,58.82352941,90ec4ac7-1e8a-4fb2-b196-3d8844506e59,6,264.311,266.31,space,1,0.346,,0,3,3,2,1,C,space,,,,,,,,,,
,,,,,R_4VSM3zp8j6mxKPD,001,2025-09-16_21h04.03.734,continuous_performance_test,2024.2.4,MacIntel,58.82352941,90ec4ac7-1e8a-4fb2-b196-3d8844506e59,6,266.311,268.159,space,1,0.336,,0,4,4,13,1,N,space,,,,,,,,,,
,,,,,R_4VSM3zp8j6mxKPD,001,2025-09-16_21h04.03.734,continuous_performance_test,2024.2.4,MacIntel,58.82352941,90ec4ac7-1e8a-4fb2-b196-3d8844506e59,6,268.161,269.86,space,1,0.316,,0,5,5,12,1,M,space,,,,,,,,,,
,,,,,R_4VSM3zp8j6mxKPD,001,2025-09-16_21h04.03.734,continuous_performance_test,2024.2.4,MacIntel,58.82352941,90ec4ac7-1e8a-4fb2-b196-3d8844506e59,6,269.861,271.46,space,1,0.314,,0,6,6,6,1,G,space,,,,,,,,,,
,,,,,R_4VSM3zp8j6mxKPD,001,2025-09-16_21h04.03.734,continuous_performance_test,2024.2.4,MacIntel,58.82352941,90ec4ac7-1e8a-4fb2-b196-3d8844506e59,6,271.461,273.309,space,1,0.279,,0,7,7,1,1,B,space,,,,,,,,,,
,,,,,R_4VSM3zp8j6mxKPD,001,2025-09-16_21h04.03.734,continuous_performance_test,2024.2.4,MacIntel,58.82352941,90ec4ac7-1e8a-4fb2-b196-3d8844506e59,6,273.31,275.16,space,1,0.279,,0,8,8,20,1,U,space,,,,,,,,,,
,,,,,R_4VSM3zp8j6mxKPD,001,2025-09-16_21h04.03.734,continuous_performance_test,2024.2.4,MacIntel,58.82352941,90ec4ac7-1e8a-4fb2-b196-3d8844506e59,6,275.161,277.109,space,1,0.352,,0,9,9,9,1,J,space,,,,,,,,,,
,,,,,R_4VSM3zp8j6mxKPD,001,2025-09-16_21h04.03.734,continuous_performance_test,2024.2.4,MacIntel,58.82352941,90ec4ac7-1e8a-4fb2-b196-3d8844506e59,6,277.111,279.06,space,1,0.349,,0,10,10,16,1,Q,space,,,,,,,,,,
,,,,,R_4VSM3zp8j6mxKPD,001,2025-09-16_21h04.03.734,continuous_performance_test,2024.2.4,MacIntel,58.82352941,90ec4ac7-1e8a-4fb2-b196-3d8844506e59,6,279.061,280.86,,1,,,0,11,11,29,1,X,,,,,,,,,,,
,,,,,R_4VSM3zp8j6mxKPD,001,2025-09-16_21h04.03.734,continuous_performance_test,2024.2.4,MacIntel,58.82352941,90ec4ac7-1e8a-4fb2-b196-3d8844506e59,6,280.861,282.509,space,1,0.354,,0,12,12,24,1,Z,space,,,,,,,,,,
,,,,,R_4VSM3zp8j6mxKPD,001,2025-09-16_21h04.03.734,continuous_performance_test,2024.2.4,MacIntel,58.82352941,90ec4ac7-1e8a-4fb2-b196-3d8844506e59,6,282.511,284.109,space,1,0.38,,0,13,13,23,1,Y,space,,,,,,,,,,
,,,,,R_4VSM3zp8j6mxKPD,001,2025-09-16_21h04.03.734,continuous_performance_test,2024.2.4,MacIntel,58.82352941,90ec4ac7-1e8a-4fb2-b196-3d8844506e59,6,284.111,286.01,space,1,0.282,,0,14,14,11,1,L,space,,,,,,,,,,
,,,,,R_4VSM3zp8j6mxKPD,001,2025-09-16_21h04.03.734,continuous_performance_test,2024.2.4,MacIntel,58.82352941,90ec4ac7-1e8a-4fb2-b196-3d8844506e59,6,286.011,287.76,space,1,0.313,,0,15,15,0,1,A,space,,,,,,,,,,
,,,,,R_4VSM3zp8j6mxKPD,001,2025-09-16_21h04.03.734,continuous_performance_test,2024.2.4,MacIntel,58.82352941,90ec4ac7-1e8a-4fb2-b196-3d8844506e59,6,287.761,289.31,space,1,0.334,,0,16,16,7,1,H,space,,,,,,,,,,
,,,,,R_4VSM3zp8j6mxKPD,001,2025-09-16_21h04.03.734,continuous_performance_test,2024.2.4,MacIntel,58.82352941,90ec4ac7-1e8a-4fb2-b196-3d8844506e59,6,289.311,291.26,space,0,0.298,,0,17,17,27,1,X,,,,,,,,,,,
,,,,,R_4VSM3zp8j6mxKPD,001,2025-09-16_21h04.03.734,continuous_performance_test,2024.2.4,MacIntel,58.82352941,90ec4ac7-1e8a-4fb2-b196-3d8844506e59,6,291.262,293.009,,1,,,0,18,18,26,1,X,,,,,,,,,,,
,,,,,R_4VSM3zp8j6mxKPD,001,2025-09-16_21h04.03.734,continuous_performance_test,2024.2.4,MacIntel,58.82352941,90ec4ac7-1e8a-4fb2-b196-3d8844506e59,6,293.01,294.81,,1,,,0,19,19,25,1,X,,,,,,,,,,,
,,,,,R_4VSM3zp8j6mxKPD,001,2025-09-16_21h04.03.734,continuous_performance_test,2024.2.4,MacIntel,58.82352941,90ec4ac7-1e8a-4fb2-b196-3d8844506e59,6,294.811,296.459,space,1,0.414,,0,20,20,21,1,V,space,,,,,,,,,,
,,,,,R_4VSM3zp8j6mxKPD,001,2025-09-16_21h04.03.734,continuous_performance_test,2024.2.4,MacIntel,58.82352941,90ec4ac7-1e8a-4fb2-b196-3d8844506e59,6,296.461,298.159,space,1,0.38,,0,21,21,8,1,I,space,,,,,,,,,,
,,,,,R_4VSM3zp8j6mxKPD,001,2025-09-16_21h04.03.734,continuous_performance_test,2024.2.4,MacIntel,58.82352941,90ec4ac7-1e8a-4fb2-b196-3d8844506e59,6,298.161,300.11,space,1,0.363,,0,22,22,15,1,P,space,,,,,,,,,,
,,,,,R_4VSM3zp8j6mxKPD,001,2025-09-16_21h04.03.734,continuous_performance_test,2024.2.4,MacIntel,58.82352941,90ec4ac7-1e8a-4fb2-b196-3d8844506e59,6,300.111,302.11,space,1,0.496,,0,23,23,22,1,W,space,,,,,,,,,,
,,,,,R_4VSM3zp8j6mxKPD,001,2025-09-16_21h04.03.734,continuous_performance_test,2024.2.4,MacIntel,58.82352941,90ec4ac7-1e8a-4fb2-b196-3d8844506e59,6,302.111,303.658,space,1,0.367,,0,24,24,14,1,O,space,,,,,,,,,,
,,,,,R_4VSM3zp8j6mxKPD,001,2025-09-16_21h04.03.734,continuous_performance_test,2024.2.4,MacIntel,58.82352941,90ec4ac7-1e8a-4fb2-b196-3d8844506e59,6,303.66,305.36,space,1,0.422,,0,25,25,10,1,K,space,,,,,,,,,,
,,,,,R_4VSM3zp8j6mxKPD,001,2025-09-16_21h04.03.734,continuous_performance_test,2024.2.4,MacIntel,58.82352941,90ec4ac7-1e8a-4fb2-b196-3d8844506e59,6,305.361,307.16,space,1,0.363,,0,26,26,4,1,E,space,,,,,,,,,,
,,,,,R_4VSM3zp8j6mxKPD,001,2025-09-16_21h04.03.734,continuous_performance_test,2024.2.4,MacIntel,58.82352941,90ec4ac7-1e8a-4fb2-b196-3d8844506e59,6,307.161,309.159,space,1,0.351,,0,27,27,5,1,F,space,,,,,,,,,,
,,,,,R_4VSM3zp8j6mxKPD,001,2025-09-16_21h04.03.734,continuous_performance_test,2024.2.4,MacIntel,58.82352941,90ec4ac7-1e8a-4fb2-b196-3d8844506e59,6,309.161,311.009,,1,,,0,28,28,28,1,X,,,,,,,,,,,
,,,,,R_4VSM3zp8j6mxKPD,001,2025-09-16_21h04.03.734,continuous_performance_test,2024.2.4,MacIntel,58.82352941,90ec4ac7-1e8a-4fb2-b196-3d8844506e59,6,311.011,312.81,space,1,0.447,,0,29,29,3,1,D,space,,,,,,,,,,
,,,,,R_4VSM3zp8j6mxKPD,001,2025-09-16_21h04.03.734,continuous_performance_test,2024.2.4,MacIntel,58.82352941,90ec4ac7-1e8a-4fb2-b196-3d8844506e59,6,327.817,329.609,,1,,,0,0,0,28,1,X,,312.811,327.81,,,,,,,,
,,,,,R_4VSM3zp8j6mxKPD,001,2025-09-16_21h04.03.734,continuous_performance_test,2024.2.4,MacIntel,58.82352941,90ec4ac7-1e8a-4fb2-b196-3d8844506e59,6,329.611,331.41,,0,,,0,1,1,11,1,L,space,,,,,,,,,,
,,,,,R_4VSM3zp8j6mxKPD,001,2025-09-16_21h04.03.734,continuous_performance_test,2024.2.4,MacIntel,58.82352941,90ec4ac7-1e8a-4fb2-b196-3d8844506e59,6,331.411,333.109,,0,,,0,2,2,7,1,H,space,,,,,,,,,,
,,,,,R_4VSM3zp8j6mxKPD,001,2025-09-16_21h04.03.734,continuous_performance_test,2024.2.4,MacIntel,58.82352941,90ec4ac7-1e8a-4fb2-b196-3d8844506e59,6,333.11,335.109,,1,,,0,3,3,29,1,X,,,,,,,,,,,
,,,,,R_4VSM3zp8j6mxKPD,001,2025-09-16_21h04.03.734,continuous_performance_test,2024.2.4,MacIntel,58.82352941,90ec4ac7-1e8a-4fb2-b196-3d8844506e59,6,335.111,336.959,space,1,0.599,,0,4,4,16,1,Q,space,,,,,,,,,,
,,,,,R_4VSM3zp8j6mxKPD,001,2025-09-16_21h04.03.734,continuous_performance_test,2024.2.4,MacIntel,58.82352941,90ec4ac7-1e8a-4fb2-b196-3d8844506e59,6,336.961,338.86,,1,,,0,5,5,27,1,X,,,,,,,,,,,
,,,,,R_4VSM3zp8j6mxKPD,001,2025-09-16_21h04.03.734,continuous_performance_test,2024.2.4,MacIntel,58.82352941,90ec4ac7-1e8a-4fb2-b196-3d8844506e59,6,338.861,340.81,space,1,0.27,,0,6,6,22,1,W,space,,,,,,,,,,
,,,,,R_4VSM3zp8j6mxKPD,001,2025-09-16_21h04.03.734,continuous_performance_test,2024.2.4,MacIntel,58.82352941,90ec4ac7-1e8a-4fb2-b196-3d8844506e59,6,340.81,342.51,space,1,0.347,,0,7,7,9,1,J,space,,,,,,,,,,
,,,,,R_4VSM3zp8j6mxKPD,001,2025-09-16_21h04.03.734,continuous_performance_test,2024.2.4,MacIntel,58.82352941,90ec4ac7-1e8a-4fb2-b196-3d8844506e59,6,342.511,344.509,space,0,0.383,,0,8,8,25,1,X,,,,,,,,,,,
,,,,,R_4VSM3zp8j6mxKPD,001,2025-09-16_21h04.03.734,continuous_performance_test,2024.2.4,MacIntel,58.82352941,90ec4ac7-1e8a-4fb2-b196-3d8844506e59,6,344.511,346.36,space,1,0.483,,0,9,9,23,1,Y,space,,,,,,,,,,
,,,,,R_4VSM3zp8j6mxKPD,001,2025-09-16_21h04.03.734,continuous_performance_test,2024.2.4,MacIntel,58.82352941,90ec4ac7-1e8a-4fb2-b196-3d8844506e59,6,346.361,348.11,space,1,0.321,,0,10,10,0,1,A,space,,,,,,,,,,
,,,,,R_4VSM3zp8j6mxKPD,001,2025-09-16_21h04.03.734,continuous_performance_test,2024.2.4,MacIntel,58.82352941,90ec4ac7-1e8a-4fb2-b196-3d8844506e59,6,348.111,350.009,space,1,0.301,,0,11,11,19,1,T,space,,,,,,,,,,
,,,,,R_4VSM3zp8j6mxKPD,001,2025-09-16_21h04.03.734,continuous_performance_test,2024.2.4,MacIntel,58.82352941,90ec4ac7-1e8a-4fb2-b196-3d8844506e59,6,350.01,352.01,space,1,0.345,,0,12,12,2,1,C,space,,,,,,,,,,
,,,,,R_4VSM3zp8j6mxKPD,001,2025-09-16_21h04.03.734,continuous_performance_test,2024.2.4,MacIntel,58.82352941,90ec4ac7-1e8a-4fb2-b196-3d8844506e59,6,352.012,353.66,space,1,0.32,,0,13,13,14,1,O,space,,,,,,,,,,
,,,,,R_4VSM3zp8j6mxKPD,001,2025-09-16_21h04.03.734,continuous_performance_test,2024.2.4,MacIntel,58.82352941,90ec4ac7-1e8a-4fb2-b196-3d8844506e59,6,353.661,355.509,space,1,0.333,,0,14,14,3,1,D,space,,,,,,,,,,
,,,,,R_4VSM3zp8j6mxKPD,001,2025-09-16_21h04.03.734,continuous_performance_test,2024.2.4,MacIntel,58.82352941,90ec4ac7-1e8a-4fb2-b196-3d8844506e59,6,355.51,357.46,space,1,0.321,,0,15,15,17,1,R,space,,,,,,,,,,
,,,,,R_4VSM3zp8j6mxKPD,001,2025-09-16_21h04.03.734,continuous_performance_test,2024.2.4,MacIntel,58.82352941,90ec4ac7-1e8a-4fb2-b196-3d8844506e59,6,357.461,359.359,space,1,0.4,,0,16,16,24,1,Z,space,,,,,,,,,,
,,,,,R_4VSM3zp8j6mxKPD,001,2025-09-16_21h04.03.734,continuous_performance_test,2024.2.4,MacIntel,58.82352941,90ec4ac7-1e8a-4fb2-b196-3d8844506e59,6,359.361,360.959,space,1,0.347,,0,17,17,13,1,N,space,,,,,,,,,,
,,,,,R_4VSM3zp8j6mxKPD,001,2025-09-16_21h04.03.734,continuous_performance_test,2024.2.4,MacIntel,58.82352941,90ec4ac7-1e8a-4fb2-b196-3d8844506e59,6,360.961,362.759,space,1,0.384,,0,18,18,10,1,K,space,,,,,,,,,,
,,,,,R_4VSM3zp8j6mxKPD,001,2025-09-16_21h04.03.734,continuous_performance_test,2024.2.4,MacIntel,58.82352941,90ec4ac7-1e8a-4fb2-b196-3d8844506e59,6,362.761,364.559,space,1,0.347,,0,19,19,8,1,I,space,,,,,,,,,,
,,,,,R_4VSM3zp8j6mxKPD,001,2025-09-16_21h04.03.734,continuous_performance_test,2024.2.4,MacIntel,58.82352941,90ec4ac7-1e8a-4fb2-b196-3d8844506e59,6,364.56,366.459,space,1,0.363,,0,20,20,12,1,M,space,,,,,,,,,,
,,,,,R_4VSM3zp8j6mxKPD,001,2025-09-16_21h04.03.734,continuous_performance_test,2024.2.4,MacIntel,58.82352941,90ec4ac7-1e8a-4fb2-b196-3d8844506e59,6,366.461,368.31,space,1,0.351,,0,21,21,4,1,E,space,,,,,,,,,,
,,,,,R_4VSM3zp8j6mxKPD,001,2025-09-16_21h04.03.734,continuous_performance_test,2024.2.4,MacIntel,58.82352941,90ec4ac7-1e8a-4fb2-b196-3d8844506e59,6,368.311,369.86,,1,,,0,22,22,26,1,X,,,,,,,,,,,
,,,,,R_4VSM3zp8j6mxKPD,001,2025-09-16_21h04.03.734,continuous_performance_test,2024.2.4,MacIntel,58.82352941,90ec4ac7-1e8a-4fb2-b196-3d8844506e59,6,369.861,371.66,space,1,0.351,,0,23,23,20,1,U,space,,,,,,,,,,
,,,,,R_4VSM3zp8j6mxKPD,001,2025-09-16_21h04.03.734,continuous_performance_test,2024.2.4,MacIntel,58.82352941,90ec4ac7-1e8a-4fb2-b196-3d8844506e59,6,371.661,373.26,space,1,0.329,,0,24,24,18,1,S,space,,,,,,,,,,
,,,,,R_4VSM3zp8j6mxKPD,001,2025-09-16_21h04.03.734,continuous_performance_test,2024.2.4,MacIntel,58.82352941,90ec4ac7-1e8a-4fb2-b196-3d8844506e59,6,373.261,375.26,space,1,0.433,,0,25,25,5,1,F,space,,,,,,,,,,
,,,,,R_4VSM3zp8j6mxKPD,001,2025-09-16_21h04.03.734,continuous_performance_test,2024.2.4,MacIntel,58.82352941,90ec4ac7-1e8a-4fb2-b196-3d8844506e59,6,375.261,377.009,space,1,0.363,,0,26,26,6,1,G,space,,,,,,,,,,
,,,,,R_4VSM3zp8j6mxKPD,001,2025-09-16_21h04.03.734,continuous_performance_test,2024.2.4,MacIntel,58.82352941,90ec4ac7-1e8a-4fb2-b196-3d8844506e59,6,377.011,378.909,space,1,0.348,,0,27,27,15,1,P,space,,,,,,,,,,
,,,,,R_4VSM3zp8j6mxKPD,001,2025-09-16_21h04.03.734,continuous_performance_test,2024.2.4,MacIntel,58.82352941,90ec4ac7-1e8a-4fb2-b196-3d8844506e59,6,378.911,380.71,space,1,0.514,,0,28,28,21,1,V,space,,,,,,,,,,
,,,,,R_4VSM3zp8j6mxKPD,001,2025-09-16_21h04.03.734,continuous_performance_test,2024.2.4,MacIntel,58.82352941,90ec4ac7-1e8a-4fb2-b196-3d8844506e59,6,380.713,382.56,space,1,0.37,,0,29,29,1,1,B,space,,,,,,,,,,
,,,,,R_4VSM3zp8j6mxKPD,001,2025-09-16_21h04.03.734,continuous_performance_test,2024.2.4,MacIntel,58.82352941,90ec4ac7-1e8a-4fb2-b196-3d8844506e59,6,394.766,396.76,space,1,0.349,,0,0,0,17,1,R,space,382.561,394.759,space,12.167,,,,,,
,,,,,R_4VSM3zp8j6mxKPD,001,2025-09-16_21h04.03.734,continuous_performance_test,2024.2.4,MacIntel,58.82352941,90ec4ac7-1e8a-4fb2-b196-3d8844506e59,6,396.761,398.709,space,1,0.313,,0,1,1,22,1,W,space,,,,,,,,,,
,,,,,R_4VSM3zp8j6mxKPD,001,2025-09-16_21h04.03.734,continuous_performance_test,2024.2.4,MacIntel,58.82352941,90ec4ac7-1e8a-4fb2-b196-3d8844506e59,6,398.711,400.51,space,1,0.314,,0,2,2,1,1,B,space,,,,,,,,,,
,,,,,R_4VSM3zp8j6mxKPD,001,2025-09-16_21h04.03.734,continuous_performance_test,2024.2.4,MacIntel,58.82352941,90ec4ac7-1e8a-4fb2-b196-3d8844506e59,6,400.511,402.46,space,1,0.315,,0,3,3,16,1,Q,space,,,,,,,,,,
,,,,,R_4VSM3zp8j6mxKPD,001,2025-09-16_21h04.03.734,continuous_performance_test,2024.2.4,MacIntel,58.82352941,90ec4ac7-1e8a-4fb2-b196-3d8844506e59,6,402.461,404.308,space,1,0.316,,0,4,4,3,1,D,space,,,,,,,,,,
,,,,,R_4VSM3zp8j6mxKPD,001,2025-09-16_21h04.03.734,continuous_performance_test,2024.2.4,MacIntel,58.82352941,90ec4ac7-1e8a-4fb2-b196-3d8844506e59,6,404.31,406.21,,1,,,0,5,5,28,1,X,,,,,,,,,,,
,,,,,R_4VSM3zp8j6mxKPD,001,2025-09-16_21h04.03.734,continuous_performance_test,2024.2.4,MacIntel,58.82352941,90ec4ac7-1e8a-4fb2-b196-3d8844506e59,6,406.21,407.759,space,1,0.318,,0,6,6,2,1,C,space,,,,,,,,,,
,,,,,R_4VSM3zp8j6mxKPD,001,2025-09-16_21h04.03.734,continuous_performance_test,2024.2.4,MacIntel,58.82352941,90ec4ac7-1e8a-4fb2-b196-3d8844506e59,6,407.76,409.36,space,1,0.33,,0,7,7,0,1,A,space,,,,,,,,,,
,,,,,R_4VSM3zp8j6mxKPD,001,2025-09-16_21h04.03.734,continuous_performance_test,2024.2.4,MacIntel,58.82352941,90ec4ac7-1e8a-4fb2-b196-3d8844506e59,6,409.361,410.909,space,1,0.329,,0,8,8,12,1,M,space,,,,,,,,,,
,,,,,R_4VSM3zp8j6mxKPD,001,2025-09-16_21h04.03.734,continuous_performance_test,2024.2.4,MacIntel,58.82352941,90ec4ac7-1e8a-4fb2-b196-3d8844506e59,6,410.912,412.71,space,1,0.332,,0,9,9,20,1,U,space,,,,,,,,,,
,,,,,R_4VSM3zp8j6mxKPD,001,2025-09-16_21h04.03.734,continuous_performance_test,2024.2.4,MacIntel,58.82352941,90ec4ac7-1e8a-4fb2-b196-3d8844506e59,6,412.711,414.509,,1,,,0,10,10,29,1,X,,,,,,,,,,,
,,,,,R_4VSM3zp8j6mxKPD,001,2025-09-16_21h04.03.734,continuous_performance_test,2024.2.4,MacIntel,58.82352941,90ec4ac7-1e8a-4fb2-b196-3d8844506e59,6,414.511,416.509,space,1,0.362,,0,11,11,15,1,P,space,,,,,,,,,,
,,,,,R_4VSM3zp8j6mxKPD,001,2025-09-16_21h04.03.734,continuous_performance_test,2024.2.4,MacIntel,58.82352941,90ec4ac7-1e8a-4fb2-b196-3d8844506e59,6,416.511,418.41,space,1,0.364,,0,12,12,8,1,I,space,,,,,,,,,,
,,,,,R_4VSM3zp8j6mxKPD,001,2025-09-16_21h04.03.734,continuous_performance_test,2024.2.4,MacIntel,58.82352941,90ec4ac7-1e8a-4fb2-b196-3d8844506e59,6,418.41,420.259,space,0,0.35,,0,13,13,25,1,X,,,,,,,,,,,
,,,,,R_4VSM3zp8j6mxKPD,001,2025-09-16_21h04.03.734,continuous_performance_test,2024.2.4,MacIntel,58.82352941,90ec4ac7-1e8a-4fb2-b196-3d8844506e59,6,420.26,422.109,space,1,0.368,,0,14,14,5,1,F,space,,,,,,,,,,
,,,,,R_4VSM3zp8j6mxKPD,001,2025-09-16_21h04.03.734,continuous_performance_test,2024.2.4,MacIntel,58.82352941,90ec4ac7-1e8a-4fb2-b196-3d8844506e59,6,422.111,423.759,space,1,0.396,,0,15,15,18,1,S,space,,,,,,,,,,
,,,,,R_4VSM3zp8j6mxKPD,001,2025-09-16_21h04.03.734,continuous_performance_test,2024.2.4,MacIntel,58.82352941,90ec4ac7-1e8a-4fb2-b196-3d8844506e59,6,423.761,425.309,space,1,0.447,,0,16,16,21,1,V,space,,,,,,,,,,
,,,,,R_4VSM3zp8j6mxKPD,001,2025-09-16_21h04.03.734,continuous_performance_test,2024.2.4,MacIntel,58.82352941,90ec4ac7-1e8a-4fb2-b196-3d8844506e59,6,425.311,427.26,space,1,0.366,,0,17,17,19,1,T,space,,,,,,,,,,
,,,,,R_4VSM3zp8j6mxKPD,001,2025-09-16_21h04.03.734,continuous_performance_test,2024.2.4,MacIntel,58.82352941,90ec4ac7-1e8a-4fb2-b196-3d8844506e59,6,427.261,429.209,space,1,0.421,,0,18,18,7,1,H,space,,,,,,,,,,
,,,,,R_4VSM3zp8j6mxKPD,001,2025-09-16_21h04.03.734,continuous_performance_test,2024.2.4,MacIntel,58.82352941,90ec4ac7-1e8a-4fb2-b196-3d8844506e59,6,429.211,431.109,space,1,0.363,,0,19,19,10,1,K,space,,,,,,,,,,
,,,,,R_4VSM3zp8j6mxKPD,001,2025-09-16_21h04.03.734,continuous_performance_test,2024.2.4,MacIntel,58.82352941,90ec4ac7-1e8a-4fb2-b196-3d8844506e59,6,431.111,432.86,space,1,0.363,,0,20,20,14,1,O,space,,,,,,,,,,
,,,,,R_4VSM3zp8j6mxKPD,001,2025-09-16_21h04.03.734,continuous_performance_test,2024.2.4,MacIntel,58.82352941,90ec4ac7-1e8a-4fb2-b196-3d8844506e59,6,432.861,434.81,,1,,,0,21,21,27,1,X,,,,,,,,,,,
,,,,,R_4VSM3zp8j6mxKPD,001,2025-09-16_21h04.03.734,continuous_performance_test,2024.2.4,MacIntel,58.82352941,90ec4ac7-1e8a-4fb2-b196-3d8844506e59,6,434.811,436.359,space,1,0.363,,0,22,22,9,1,J,space,,,,,,,,,,
,,,,,R_4VSM3zp8j6mxKPD,001,2025-09-16_21h04.03.734,continuous_performance_test,2024.2.4,MacIntel,58.82352941,90ec4ac7-1e8a-4fb2-b196-3d8844506e59,6,436.361,438.109,space,1,0.313,,0,23,23,6,1,G,space,,,,,,,,,,
,,,,,R_4VSM3zp8j6mxKPD,001,2025-09-16_21h04.03.734,continuous_performance_test,2024.2.4,MacIntel,58.82352941,90ec4ac7-1e8a-4fb2-b196-3d8844506e59,6,438.111,439.759,space,1,0.346,,0,24,24,11,1,L,space,,,,,,,,,,
,,,,,R_4VSM3zp8j6mxKPD,001,2025-09-16_21h04.03.734,continuous_performance_test,2024.2.4,MacIntel,58.82352941,90ec4ac7-1e8a-4fb2-b196-3d8844506e59,6,439.76,441.359,space,1,0.37,,0,25,25,24,1,Z,space,,,,,,,,,,
,,,,,R_4VSM3zp8j6mxKPD,001,2025-09-16_21h04.03.734,continuous_performance_test,2024.2.4,MacIntel,58.82352941,90ec4ac7-1e8a-4fb2-b196-3d8844506e59,6,441.361,443.159,space,1,0.496,,0,26,26,13,1,N,space,,,,,,,,,,
,,,,,R_4VSM3zp8j6mxKPD,001,2025-09-16_21h04.03.734,continuous_performance_test,2024.2.4,MacIntel,58.82352941,90ec4ac7-1e8a-4fb2-b196-3d8844506e59,6,443.16,444.909,space,1,0.401,,0,27,27,23,1,Y,space,,,,,,,,,,
,,,,,R_4VSM3zp8j6mxKPD,001,2025-09-16_21h04.03.734,continuous_performance_test,2024.2.4,MacIntel,58.82352941,90ec4ac7-1e8a-4fb2-b196-3d8844506e59,6,444.911,446.46,,1,,,0,28,28,26,1,X,,,,,,,,,,,
,,,,,R_4VSM3zp8j6mxKPD,001,2025-09-16_21h04.03.734,continuous_performance_test,2024.2.4,MacIntel,58.82352941,90ec4ac7-1e8a-4fb2-b196-3d8844506e59,6,446.46,448.31,space,1,0.463,,0,29,29,4,1,E,space,,,,,,,,,,
,,,,,R_4VSM3zp8j6mxKPD,001,2025-09-16_21h04.03.734,continuous_performance_test,2024.2.4,MacIntel,58.82352941,90ec4ac7-1e8a-4fb2-b196-3d8844506e59,6,449.231,450.876,space,1,0.381,,0,0,0,21,1,V,space,448.311,449.226,space,0.879,,,,,,
,,,,,R_4VSM3zp8j6mxKPD,001,2025-09-16_21h04.03.734,continuous_performance_test,2024.2.4,MacIntel,58.82352941,90ec4ac7-1e8a-4fb2-b196-3d8844506e59,6,450.877,452.476,space,1,0.315,,0,1,1,0,1,A,space,,,,,,,,,,
,,,,,R_4VSM3zp8j6mxKPD,001,2025-09-16_21h04.03.734,continuous_performance_test,2024.2.4,MacIntel,58.82352941,90ec4ac7-1e8a-4fb2-b196-3d8844506e59,6,452.477,454.076,space,1,0.313,,0,2,2,17,1,R,space,,,,,,,,,,
,,,,,R_4VSM3zp8j6mxKPD,001,2025-09-16_21h04.03.734,continuous_performance_test,2024.2.4,MacIntel,58.82352941,90ec4ac7-1e8a-4fb2-b196-3d8844506e59,6,454.077,455.676,space,1,0.333,,0,3,3,18,1,S,space,,,,,,,,,,
,,,,,R_4VSM3zp8j6mxKPD,001,2025-09-16_21h04.03.734,continuous_performance_test,2024.2.4,MacIntel,58.82352941,90ec4ac7-1e8a-4fb2-b196-3d8844506e59,6,455.677,457.476,space,1,0.384,,0,4,4,22,1,W,space,,,,,,,,,,
,,,,,R_4VSM3zp8j6mxKPD,001,2025-09-16_21h04.03.734,continuous_performance_test,2024.2.4,MacIntel,58.82352941,90ec4ac7-1e8a-4fb2-b196-3d8844506e59,6,457.477,459.176,space,1,0.346,,0,5,5,7,1,H,space,,,,,,,,,,
,,,,,R_4VSM3zp8j6mxKPD,001,2025-09-16_21h04.03.734,continuous_performance_test,2024.2.4,MacIntel,58.82352941,90ec4ac7-1e8a-4fb2-b196-3d8844506e59,6,459.177,461.176,,1,,,0,6,6,27,1,X,,,,,,,,,,,
,,,,,R_4VSM3zp8j6mxKPD,001,2025-09-16_21h04.03.734,continuous_performance_test,2024.2.4,MacIntel,58.82352941,90ec4ac7-1e8a-4fb2-b196-3d8844506e59,6,461.177,462.876,space,1,0.33,,0,7,7,3,1,D,space,,,,,,,,,,
,,,,,R_4VSM3zp8j6mxKPD,001,2025-09-16_21h04.03.734,continuous_performance_test,2024.2.4,MacIntel,58.82352941,90ec4ac7-1e8a-4fb2-b196-3d8844506e59,6,462.877,464.726,space,1,0.267,,0,8,8,4,1,E,space,,,,,,,,,,
,,,,,R_4VSM3zp8j6mxKPD,001,2025-09-16_21h04.03.734,continuous_performance_test,2024.2.4,MacIntel,58.82352941,90ec4ac7-1e8a-4fb2-b196-3d8844506e59,6,464.727,466.426,space,1,0.313,,0,9,9,1,1,B,space,,,,,,,,,,
,,,,,R_4VSM3zp8j6mxKPD,001,2025-09-16_21h04.03.734,continuous_performance_test,2024.2.4,MacIntel,58.82352941,90ec4ac7-1e8a-4fb2-b196-3d8844506e59,6,466.427,467.976,space,0,0.33,,0,10,10,28,1,X,,,,,,,,,,,
,,,,,R_4VSM3zp8j6mxKPD,001,2025-09-16_21h04.03.734,continuous_performance_test,2024.2.4,MacIntel,58.82352941,90ec4ac7-1e8a-4fb2-b196-3d8844506e59,6,467.977,469.626,space,1,0.282,,0,11,11,6,1,G,space,,,,,,,,,,
,,,,,R_4VSM3zp8j6mxKPD,001,2025-09-16_21h04.03.734,continuous_performance_test,2024.2.4,MacIntel,58.82352941,90ec4ac7-1e8a-4fb2-b196-3d8844506e59,6,469.627,471.376,space,1,0.286,,0,12,12,5,1,F,space,,,,,,,,,,
,,,,,R_4VSM3zp8j6mxKPD,001,2025-09-16_21h04.03.734,continuous_performance_test,2024.2.4,MacIntel,58.82352941,90ec4ac7-1e8a-4fb2-b196-3d8844506e59,6,471.378,472.976,space,1,0.447,,0,13,13,2,1,C,space,,,,,,,,,,
,,,,,R_4VSM3zp8j6mxKPD,001,2025-09-16_21h04.03.734,continuous_performance_test,2024.2.4,MacIntel,58.82352941,90ec4ac7-1e8a-4fb2-b196-3d8844506e59,6,472.977,474.526,space,1,0.366,,0,14,14,20,1,U,space,,,,,,,,,,
,,,,,R_4VSM3zp8j6mxKPD,001,2025-09-16_21h04.03.734,continuous_performance_test,2024.2.4,MacIntel,58.82352941,90ec4ac7-1e8a-4fb2-b196-3d8844506e59,6,474.527,476.176,space,1,0.414,,0,15,15,12,1,M,space,,,,,,,,,,
,,,,,R_4VSM3zp8j6mxKPD,001,2025-09-16_21h04.03.734,continuous_performance_test,2024.2.4,MacIntel,58.82352941,90ec4ac7-1e8a-4fb2-b196-3d8844506e59,6,476.177,477.876,space,1,0.435,,0,16,16,24,1,Z,space,,,,,,,,,,
,,,,,R_4VSM3zp8j6mxKPD,001,2025-09-16_21h04.03.734,continuous_performance_test,2024.2.4,MacIntel,58.82352941,90ec4ac7-1e8a-4fb2-b196-3d8844506e59,6,477.877,479.776,,1,,,0,17,17,29,1,X,,,,,,,,,,,
,,,,,R_4VSM3zp8j6mxKPD,001,2025-09-16_21h04.03.734,continuous_performance_test,2024.2.4,MacIntel,58.82352941,90ec4ac7-1e8a-4fb2-b196-3d8844506e59,6,479.777,481.476,space,1,0.383,,0,18,18,23,1,Y,space,,,,,,,,,,
,,,,,R_4VSM3zp8j6mxKPD,001,2025-09-16_21h04.03.734,continuous_performance_test,2024.2.4,MacIntel,58.82352941,90ec4ac7-1e8a-4fb2-b196-3d8844506e59,6,481.477,483.076,,1,,,0,19,19,25,1,X,,,,,,,,,,,
,,,,,R_4VSM3zp8j6mxKPD,001,2025-09-16_21h04.03.734,continuous_performance_test,2024.2.4,MacIntel,58.82352941,90ec4ac7-1e8a-4fb2-b196-3d8844506e59,6,483.077,484.626,space,1,0.337,,0,20,20,14,1,O,space,,,,,,,,,,
,,,,,R_4VSM3zp8j6mxKPD,001,2025-09-16_21h04.03.734,continuous_performance_test,2024.2.4,MacIntel,58.82352941,90ec4ac7-1e8a-4fb2-b196-3d8844506e59,6,484.627,486.276,space,1,0.43,,0,21,21,8,1,I,space,,,,,,,,,,
,,,,,R_4VSM3zp8j6mxKPD,001,2025-09-16_21h04.03.734,continuous_performance_test,2024.2.4,MacIntel,58.82352941,90ec4ac7-1e8a-4fb2-b196-3d8844506e59,6,486.277,487.826,space,1,0.434,,0,22,22,10,1,K,space,,,,,,,,,,
,,,,,R_4VSM3zp8j6mxKPD,001,2025-09-16_21h04.03.734,continuous_performance_test,2024.2.4,MacIntel,58.82352941,90ec4ac7-1e8a-4fb2-b196-3d8844506e59,6,487.827,489.626,space,1,0.33,,0,23,23,15,1,P,space,,,,,,,,,,
,,,,,R_4VSM3zp8j6mxKPD,001,2025-09-16_21h04.03.734,continuous_performance_test,2024.2.4,MacIntel,58.82352941,90ec4ac7-1e8a-4fb2-b196-3d8844506e59,6,489.627,491.576,space,1,0.33,,0,24,24,16,1,Q,space,,,,,,,,,,
,,,,,R_4VSM3zp8j6mxKPD,001,2025-09-16_21h04.03.734,continuous_performance_test,2024.2.4,MacIntel,58.82352941,90ec4ac7-1e8a-4fb2-b196-3d8844506e59,6,491.577,493.375,space,1,0.351,,0,25,25,11,1,L,space,,,,,,,,,,
,,,,,R_4VSM3zp8j6mxKPD,001,2025-09-16_21h04.03.734,continuous_performance_test,2024.2.4,MacIntel,58.82352941,90ec4ac7-1e8a-4fb2-b196-3d8844506e59,6,493.377,494.926,space,1,0.413,,0,26,26,13,1,N,space,,,,,,,,,,
,,,,,R_4VSM3zp8j6mxKPD,001,2025-09-16_21h04.03.734,continuous_performance_test,2024.2.4,MacIntel,58.82352941,90ec4ac7-1e8a-4fb2-b196-3d8844506e59,6,494.927,496.776,space,1,0.398,,0,27,27,9,1,J,space,,,,,,,,,,
,,,,,R_4VSM3zp8j6mxKPD,001,2025-09-16_21h04.03.734,continuous_performance_test,2024.2.4,MacIntel,58.82352941,90ec4ac7-1e8a-4fb2-b196-3d8844506e59,6,496.777,498.626,space,1,0.346,,0,28,28,19,1,T,space,,,,,,,,,,
,,,,,R_4VSM3zp8j6mxKPD,001,2025-09-16_21h04.03.734,continuous_performance_test,2024.2.4,MacIntel,58.82352941,90ec4ac7-1e8a-4fb2-b196-3d8844506e59,6,498.627,500.376,,1,,,0,29,29,26,1,X,,,,,,,,,,,
,,,,,R_4VSM3zp8j6mxKPD,001,2025-09-16_21h04.03.734,continuous_performance_test,2024.2.4,MacIntel,58.82352941,90ec4ac7-1e8a-4fb2-b196-3d8844506e59,6,502.016,503.859,space,1,0.453,,0,0,0,23,1,Y,space,500.379,502.009,space,1.593,,,,,,
,,,,,R_4VSM3zp8j6mxKPD,001,2025-09-16_21h04.03.734,continuous_performance_test,2024.2.4,MacIntel,58.82352941,90ec4ac7-1e8a-4fb2-b196-3d8844506e59,6,503.861,505.509,space,1,0.485,,0,1,1,12,1,M,space,,,,,,,,,,
,,,,,R_4VSM3zp8j6mxKPD,001,2025-09-16_21h04.03.734,continuous_performance_test,2024.2.4,MacIntel,58.82352941,90ec4ac7-1e8a-4fb2-b196-3d8844506e59,6,505.511,507.159,space,1,0.352,,0,2,2,5,1,F,space,,,,,,,,,,
,,,,,R_4VSM3zp8j6mxKPD,001,2025-09-16_21h04.03.734,continuous_performance_test,2024.2.4,MacIntel,58.82352941,90ec4ac7-1e8a-4fb2-b196-3d8844506e59,6,507.161,509.159,space,1,0.313,,0,3,3,14,1,O,space,,,,,,,,,,
,,,,,R_4VSM3zp8j6mxKPD,001,2025-09-16_21h04.03.734,continuous_performance_test,2024.2.4,MacIntel,58.82352941,90ec4ac7-1e8a-4fb2-b196-3d8844506e59,6,509.161,511.009,space,1,0.313,,0,4,4,20,1,U,space,,,,,,,,,,
,,,,,R_4VSM3zp8j6mxKPD,001,2025-09-16_21h04.03.734,continuous_performance_test,2024.2.4,MacIntel,58.82352941,90ec4ac7-1e8a-4fb2-b196-3d8844506e59,6,511.01,512.909,space,1,0.352,,0,5,5,11,1,L,space,,,,,,,,,,
,,,,,R_4VSM3zp8j6mxKPD,001,2025-09-16_21h04.03.734,continuous_performance_test,2024.2.4,MacIntel,58.82352941,90ec4ac7-1e8a-4fb2-b196-3d8844506e59,6,512.911,514.509,space,1,0.319,,0,6,6,1,1,B,space,,,,,,,,,,
,,,,,R_4VSM3zp8j6mxKPD,001,2025-09-16_21h04.03.734,continuous_performance_test,2024.2.4,MacIntel,58.82352941,90ec4ac7-1e8a-4fb2-b196-3d8844506e59,6,514.511,516.409,space,1,0.265,,0,7,7,18,1,S,space,,,,,,,,,,
,,,,,R_4VSM3zp8j6mxKPD,001,2025-09-16_21h04.03.734,continuous_performance_test,2024.2.4,MacIntel,58.82352941,90ec4ac7-1e8a-4fb2-b196-3d8844506e59,6,516.411,518.309,space,0,0.314,,0,8,8,26,1,X,,,,,,,,,,,
,,,,,R_4VSM3zp8j6mxKPD,001,2025-09-16_21h04.03.734,continuous_performance_test,2024.2.4,MacIntel,58.82352941,90ec4ac7-1e8a-4fb2-b196-3d8844506e59,6,518.31,520.309,space,0,0.284,,0,9,9,28,1,X,,,,,,,,,,,
,,,,,R_4VSM3zp8j6mxKPD,001,2025-09-16_21h04.03.734,continuous_performance_test,2024.2.4,MacIntel,58.82352941,90ec4ac7-1e8a-4fb2-b196-3d8844506e59,6,520.311,522.109,space,1,0.38,,0,10,10,6,1,G,space,,,,,,,,,,
,,,,,R_4VSM3zp8j6mxKPD,001,2025-09-16_21h04.03.734,continuous_performance_test,2024.2.4,MacIntel,58.82352941,90ec4ac7-1e8a-4fb2-b196-3d8844506e59,6,522.111,523.709,space,0,0.263,,0,11,11,29,1,X,,,,,,,,,,,
,,,,,R_4VSM3zp8j6mxKPD,001,2025-09-16_21h04.03.734,continuous_performance_test,2024.2.4,MacIntel,58.82352941,90ec4ac7-1e8a-4fb2-b196-3d8844506e59,6,523.711,525.709,space,1,0.33,,0,12,12,24,1,Z,space,,,,,,,,,,
,,,,,R_4VSM3zp8j6mxKPD,001,2025-09-16_21h04.03.734,continuous_performance_test,2024.2.4,MacIntel,58.82352941,90ec4ac7-1e8a-4fb2-b196-3d8844506e59,6,525.71,527.259,space,1,0.379,,0,13,13,8,1,I,space,,,,,,,,,,
,,,,,R_4VSM3zp8j6mxKPD,001,2025-09-16_21h04.03.734,continuous_performance_test,2024.2.4,MacIntel,58.82352941,90ec4ac7-1e8a-4fb2-b196-3d8844506e59,6,527.26,529.159,space,1,0.329,,0,14,14,19,1,T,space,,,,,,,,,,
,,,,,R_4VSM3zp8j6mxKPD,001,2025-09-16_21h04.03.734,continuous_performance_test,2024.2.4,MacIntel,58.82352941,90ec4ac7-1e8a-4fb2-b196-3d8844506e59,6,529.16,530.759,space,1,0.372,,0,15,15,3,1,D,space,,,,,,,,,,
,,,,,R_4VSM3zp8j6mxKPD,001,2025-09-16_21h04.03.734,continuous_performance_test,2024.2.4,MacIntel,58.82352941,90ec4ac7-1e8a-4fb2-b196-3d8844506e59,6,530.762,532.359,space,1,0.451,,0,16,16,16,1,Q,space,,,,,,,,,,
,,,,,R_4VSM3zp8j6mxKPD,001,2025-09-16_21h04.03.734,continuous_performance_test,2024.2.4,MacIntel,58.82352941,90ec4ac7-1e8a-4fb2-b196-3d8844506e59,6,532.36,534.21,space,1,0.364,,0,17,17,9,1,J,space,,,,,,,,,,
,,,,,R_4VSM3zp8j6mxKPD,001,2025-09-16_21h04.03.734,continuous_performance_test,2024.2.4,MacIntel,58.82352941,90ec4ac7-1e8a-4fb2-b196-3d8844506e59,6,534.211,536.209,space,1,0.381,,0,18,18,17,1,R,space,,,,,,,,,,
,,,,,R_4VSM3zp8j6mxKPD,001,2025-09-16_21h04.03.734,continuous_performance_test,2024.2.4,MacIntel,58.82352941,90ec4ac7-1e8a-4fb2-b196-3d8844506e59,6,536.211,538.109,,1,,,0,19,19,25,1,X,,,,,,,,,,,
,,,,,R_4VSM3zp8j6mxKPD,001,2025-09-16_21h04.03.734,continuous_performance_test,2024.2.4,MacIntel,58.82352941,90ec4ac7-1e8a-4fb2-b196-3d8844506e59,6,538.111,540.009,space,1,0.368,,0,20,20,15,1,P,space,,,,,,,,,,
,,,,,R_4VSM3zp8j6mxKPD,001,2025-09-16_21h04.03.734,continuous_performance_test,2024.2.4,MacIntel,58.82352941,90ec4ac7-1e8a-4fb2-b196-3d8844506e59,6,540.01,542.009,space,1,0.381,,0,21,21,13,1,N,space,,,,,,,,,,
,,,,,R_4VSM3zp8j6mxKPD,001,2025-09-16_21h04.03.734,continuous_performance_test,2024.2.4,MacIntel,58.82352941,90ec4ac7-1e8a-4fb2-b196-3d8844506e59,6,542.01,543.66,space,1,0.347,,0,22,22,0,1,A,space,,,,,,,,,,
,,,,,R_4VSM3zp8j6mxKPD,001,2025-09-16_21h04.03.734,continuous_performance_test,2024.2.4,MacIntel,58.82352941,90ec4ac7-1e8a-4fb2-b196-3d8844506e59,6,543.661,545.209,space,1,0.413,,0,23,23,10,1,K,space,,,,,,,,,,
,,,,,R_4VSM3zp8j6mxKPD,001,2025-09-16_21h04.03.734,continuous_performance_test,2024.2.4,MacIntel,58.82352941,90ec4ac7-1e8a-4fb2-b196-3d8844506e59,6,545.211,546.859,,1,,,0,24,24,27,1,X,,,,,,,,,,,
,,,,,R_4VSM3zp8j6mxKPD,001,2025-09-16_21h04.03.734,continuous_performance_test,2024.2.4,MacIntel,58.82352941,90ec4ac7-1e8a-4fb2-b196-3d8844506e59,6,546.86,548.759,space,1,0.333,,0,25,25,2,1,C,space,,,,,,,,,,
,,,,,R_4VSM3zp8j6mxKPD,001,2025-09-16_21h04.03.734,continuous_performance_test,2024.2.4,MacIntel,58.82352941,90ec4ac7-1e8a-4fb2-b196-3d8844506e59,6,548.761,550.659,space,1,0.496,,0,26,26,22,1,W,space,,,,,,,,,,
,,,,,R_4VSM3zp8j6mxKPD,001,2025-09-16_21h04.03.734,continuous_performance_test,2024.2.4,MacIntel,58.82352941,90ec4ac7-1e8a-4fb2-b196-3d8844506e59,6,550.661,552.659,space,1,0.382,,0,27,27,21,1,V,space,,,,,,,,,,
,,,,,R_4VSM3zp8j6mxKPD,001,2025-09-16_21h04.03.734,continuous_performance_test,2024.2.4,MacIntel,58.82352941,90ec4ac7-1e8a-4fb2-b196-3d8844506e59,6,552.661,554.659,space,1,0.403,,0,28,28,7,1,H,space,,,,,,,,,,
,,,,,R_4VSM3zp8j6mxKPD,001,2025-09-16_21h04.03.734,continuous_performance_test,2024.2.4,MacIntel,58.82352941,90ec4ac7-1e8a-4fb2-b196-3d8844506e59,6,554.66,556.611,space,1,0.384,,0,29,29,4,1,E,space,,,,,,,,,,
,,,,,R_4VSM3zp8j6mxKPD,001,2025-09-16_21h04.03.734,continuous_performance_test,2024.2.4,MacIntel,58.82352941,90ec4ac7-1e8a-4fb2-b196-3d8844506e59,6,563.401,565.243,,1,,,0,0,0,29,1,X,,556.612,563.393,space,6.748,,,,,,
,,,,,R_4VSM3zp8j6mxKPD,001,2025-09-16_21h04.03.734,continuous_performance_test,2024.2.4,MacIntel,58.82352941,90ec4ac7-1e8a-4fb2-b196-3d8844506e59,6,565.244,567.092,,1,,,0,1,1,27,1,X,,,,,,,,,,,
,,,,,R_4VSM3zp8j6mxKPD,001,2025-09-16_21h04.03.734,continuous_performance_test,2024.2.4,MacIntel,58.82352941,90ec4ac7-1e8a-4fb2-b196-3d8844506e59,6,567.094,569.093,space,1,0.396,,0,2,2,5,1,F,space,,,,,,,,,,
,,,,,R_4VSM3zp8j6mxKPD,001,2025-09-16_21h04.03.734,continuous_performance_test,2024.2.4,MacIntel,58.82352941,90ec4ac7-1e8a-4fb2-b196-3d8844506e59,6,569.094,570.843,space,1,0.363,,0,3,3,19,1,T,space,,,,,,,,,,
,,,,,R_4VSM3zp8j6mxKPD,001,2025-09-16_21h04.03.734,continuous_performance_test,2024.2.4,MacIntel,58.82352941,90ec4ac7-1e8a-4fb2-b196-3d8844506e59,6,570.844,572.543,space,1,0.396,,0,4,4,8,1,I,space,,,,,,,,,,
,,,,,R_4VSM3zp8j6mxKPD,001,2025-09-16_21h04.03.734,continuous_performance_test,2024.2.4,MacIntel,58.82352941,90ec4ac7-1e8a-4fb2-b196-3d8844506e59,6,572.544,574.343,space,1,0.312,,0,5,5,11,1,L,space,,,,,,,,,,
,,,,,R_4VSM3zp8j6mxKPD,001,2025-09-16_21h04.03.734,continuous_performance_test,2024.2.4,MacIntel,58.82352941,90ec4ac7-1e8a-4fb2-b196-3d8844506e59,6,574.344,576.193,space,1,0.352,,0,6,6,23,1,Y,space,,,,,,,,,,
,,,,,R_4VSM3zp8j6mxKPD,001,2025-09-16_21h04.03.734,continuous_performance_test,2024.2.4,MacIntel,58.82352941,90ec4ac7-1e8a-4fb2-b196-3d8844506e59,6,576.194,578.093,space,1,0.347,,0,7,7,14,1,O,space,,,,,,,,,,
,,,,,R_4VSM3zp8j6mxKPD,001,2025-09-16_21h04.03.734,continuous_performance_test,2024.2.4,MacIntel,58.82352941,90ec4ac7-1e8a-4fb2-b196-3d8844506e59,6,578.094,579.943,,1,,,0,8,8,28,1,X,,,,,,,,,,,
,,,,,R_4VSM3zp8j6mxKPD,001,2025-09-16_21h04.03.734,continuous_performance_test,2024.2.4,MacIntel,58.82352941,90ec4ac7-1e8a-4fb2-b196-3d8844506e59,6,579.944,581.492,space,1,0.363,,0,9,9,24,1,Z,space,,,,,,,,,,
,,,,,R_4VSM3zp8j6mxKPD,001,2025-09-16_21h04.03.734,continuous_performance_test,2024.2.4,MacIntel,58.82352941,90ec4ac7-1e8a-4fb2-b196-3d8844506e59,6,581.494,583.142,space,1,0.379,,0,10,10,3,1,D,space,,,,,,,,,,
,,,,,R_4VSM3zp8j6mxKPD,001,2025-09-16_21h04.03.734,continuous_performance_test,2024.2.4,MacIntel,58.82352941,90ec4ac7-1e8a-4fb2-b196-3d8844506e59,6,583.143,585.143,space,1,0.384,,0,11,11,1,1,B,space,,,,,,,,,,
,,,,,R_4VSM3zp8j6mxKPD,001,2025-09-16_21h04.03.734,continuous_performance_test,2024.2.4,MacIntel,58.82352941,90ec4ac7-1e8a-4fb2-b196-3d8844506e59,6,585.144,586.943,space,1,0.367,,0,12,12,7,1,H,space,,,,,,,,,,
,,,,,R_4VSM3zp8j6mxKPD,001,2025-09-16_21h04.03.734,continuous_performance_test,2024.2.4,MacIntel,58.82352941,90ec4ac7-1e8a-4fb2-b196-3d8844506e59,6,586.944,588.493,space,1,0.446,,0,13,13,20,1,U,space,,,,,,,,,,
,,,,,R_4VSM3zp8j6mxKPD,001,2025-09-16_21h04.03.734,continuous_performance_test,2024.2.4,MacIntel,58.82352941,90ec4ac7-1e8a-4fb2-b196-3d8844506e59,6,588.494,590.343,,1,,,0,14,14,26,1,X,,,,,,,,,,,
,,,,,R_4VSM3zp8j6mxKPD,001,2025-09-16_21h04.03.734,continuous_performance_test,2024.2.4,MacIntel,58.82352941,90ec4ac7-1e8a-4fb2-b196-3d8844506e59,6,590.346,591.992,space,1,0.363,,0,15,15,22,1,W,space,,,,,,,,,,
,,,,,R_4VSM3zp8j6mxKPD,001,2025-09-16_21h04.03.734,continuous_performance_test,2024.2.4,MacIntel,58.82352941,90ec4ac7-1e8a-4fb2-b196-3d8844506e59,6,591.994,593.793,,1,,,0,16,16,25,1,X,,,,,,,,,,,
,,,,,R_4VSM3zp8j6mxKPD,001,2025-09-16_21h04.03.734,continuous_performance_test,2024.2.4,MacIntel,58.82352941,90ec4ac7-1e8a-4fb2-b196-3d8844506e59,6,593.794,595.743,space,1,0.354,,0,17,17,6,1,G,space,,,,,,,,,,
,,,,,R_4VSM3zp8j6mxKPD,001,2025-09-16_21h04.03.734,continuous_performance_test,2024.2.4,MacIntel,58.82352941,90ec4ac7-1e8a-4fb2-b196-3d8844506e59,6,595.744,597.393,space,1,0.403,,0,18,18,13,1,N,space,,,,,,,,,,
,,,,,R_4VSM3zp8j6mxKPD,001,2025-09-16_21h04.03.734,continuous_performance_test,2024.2.4,MacIntel,58.82352941,90ec4ac7-1e8a-4fb2-b196-3d8844506e59,6,597.394,599.393,space,1,0.417,,0,19,19,16,1,Q,space,,,,,,,,,,
,,,,,R_4VSM3zp8j6mxKPD,001,2025-09-16_21h04.03.734,continuous_performance_test,2024.2.4,MacIntel,58.82352941,90ec4ac7-1e8a-4fb2-b196-3d8844506e59,6,599.394,601.343,space,1,0.498,,0,20,20,21,1,V,space,,,,,,,,,,
,,,,,R_4VSM3zp8j6mxKPD,001,2025-09-16_21h04.03.734,continuous_performance_test,2024.2.4,MacIntel,58.82352941,90ec4ac7-1e8a-4fb2-b196-3d8844506e59,6,601.344,603.242,space,1,0.453,,0,21,21,2,1,C,space,,,,,,,,,,
,,,,,R_4VSM3zp8j6mxKPD,001,2025-09-16_21h04.03.734,continuous_performance_test,2024.2.4,MacIntel,58.82352941,90ec4ac7-1e8a-4fb2-b196-3d8844506e59,6,603.243,605.143,space,1,0.365,,0,22,22,15,1,P,space,,,,,,,,,,
,,,,,R_4VSM3zp8j6mxKPD,001,2025-09-16_21h04.03.734,continuous_performance_test,2024.2.4,MacIntel,58.82352941,90ec4ac7-1e8a-4fb2-b196-3d8844506e59,6,605.144,606.842,space,1,0.38,,0,23,23,17,1,R,space,,,,,,,,,,
,,,,,R_4VSM3zp8j6mxKPD,001,2025-09-16_21h04.03.734,continuous_performance_test,2024.2.4,MacIntel,58.82352941,90ec4ac7-1e8a-4fb2-b196-3d8844506e59,6,606.844,608.393,space,1,0.363,,0,24,24,9,1,J,space,,,,,,,,,,
,,,,,R_4VSM3zp8j6mxKPD,001,2025-09-16_21h04.03.734,continuous_performance_test,2024.2.4,MacIntel,58.82352941,90ec4ac7-1e8a-4fb2-b196-3d8844506e59,6,608.394,609.992,space,1,0.413,,0,25,25,18,1,S,space,,,,,,,,,,
,,,,,R_4VSM3zp8j6mxKPD,001,2025-09-16_21h04.03.734,continuous_performance_test,2024.2.4,MacIntel,58.82352941,90ec4ac7-1e8a-4fb2-b196-3d8844506e59,6,609.994,611.843,space,1,0.397,,0,26,26,4,1,E,space,,,,,,,,,,
,,,,,R_4VSM3zp8j6mxKPD,001,2025-09-16_21h04.03.734,continuous_performance_test,2024.2.4,MacIntel,58.82352941,90ec4ac7-1e8a-4fb2-b196-3d8844506e59,6,611.844,613.693,space,1,0.404,,0,27,27,10,1,K,space,,,,,,,,,,
,,,,,R_4VSM3zp8j6mxKPD,001,2025-09-16_21h04.03.734,continuous_performance_test,2024.2.4,MacIntel,58.82352941,90ec4ac7-1e8a-4fb2-b196-3d8844506e59,6,613.694,615.391,space,1,0.485,,0,28,28,12,1,M,space,,,,,,,,,,
,,,,,R_4VSM3zp8j6mxKPD,001,2025-09-16_21h04.03.734,continuous_performance_test,2024.2.4,MacIntel,58.82352941,90ec4ac7-1e8a-4fb2-b196-3d8844506e59,6,615.393,617.193,space,1,0.403,,0,29,29,0,1,A,space,,,,,,,,,,
,,,,,R_4VSM3zp8j6mxKPD,001,2025-09-16_21h04.03.734,continuous_performance_test,2024.2.4,MacIntel,58.82352941,90ec4ac7-1e8a-4fb2-b196-3d8844506e59,6,,,,,,,,,,,,,,617.194,617.196,,,,617.197,622.027,space,4.791,
