Instructions.started,Instructions.stopped,key_resp.keys,key_resp.rt,key_resp.duration,participant,session,date,expName,psychopyVersion,OS,frameRate,realeye-tester-id,realeye-tester-quality_grade,Trial_noX.started,Trial_noX.stopped,response.keys,response.corr,response.rt,response.duration,trials_noX.thisRepN,trials_noX.thisTrialN,trials_noX.thisN,trials_noX.thisIndex,trials_noX.ran,letter,corrAns,BlockBreak.started,BlockBreak.stopped,key_instruct.keys,key_instruct.rt,key_instruct.duration,End_NoX.started,End_NoX.stopped,key_resp_end_noX.keys,key_resp_end_noX.rt,key_resp_end_noX.duration
0,11.349,space,11.322,,R_6qRPhXWdcXRBrAB,001,2025-08-19_22h51.10.559,continuous_performance_test,2024.2.4,Win32,144.092219,faa3a202-5e22-498d-987f-9625ceea7133,4,,,,,,,,,,,,,,,,,,,,,,,
,,,,,R_6qRPhXWdcXRBrAB,001,2025-08-19_22h51.10.559,continuous_performance_test,2024.2.4,Win32,144.092219,faa3a202-5e22-498d-987f-9625ceea7133,4,11.357,13.308,space,0,0.329,,0,0,0,26,1,X,,,,,,,,,,,
,,,,,R_6qRPhXWdcXRBrAB,001,2025-08-19_22h51.10.559,continuous_performance_test,2024.2.4,Win32,144.092219,faa3a202-5e22-498d-987f-9625ceea7133,4,13.309,15.307,,1,,,0,1,1,28,1,X,,,,,,,,,,,
,,,,,R_6qRPhXWdcXRBrAB,001,2025-08-19_22h51.10.559,continuous_performance_test,2024.2.4,Win32,144.092219,faa3a202-5e22-498d-987f-9625ceea7133,4,15.308,17.058,space,1,0.335,,0,2,2,9,1,J,space,,,,,,,,,,
,,,,,R_6qRPhXWdcXRBrAB,001,2025-08-19_22h51.10.559,continuous_performance_test,2024.2.4,Win32,144.092219,faa3a202-5e22-498d-987f-9625ceea7133,4,17.059,18.654,space,1,0.409,,0,3,3,8,1,I,space,,,,,,,,,,
,,,,,R_6qRPhXWdcXRBrAB,001,2025-08-19_22h51.10.559,continuous_performance_test,2024.2.4,Win32,144.092219,faa3a202-5e22-498d-987f-9625ceea7133,4,18.655,20.404,space,1,0.33,,0,4,4,5,1,F,space,,,,,,,,,,
,,,,,R_6qRPhXWdcXRBrAB,001,2025-08-19_22h51.10.559,continuous_performance_test,2024.2.4,Win32,144.092219,faa3a202-5e22-498d-987f-9625ceea7133,4,20.405,22.35,space,1,0.238,,0,5,5,10,1,K,space,,,,,,,,,,
,,,,,R_6qRPhXWdcXRBrAB,001,2025-08-19_22h51.10.559,continuous_performance_test,2024.2.4,Win32,144.092219,faa3a202-5e22-498d-987f-9625ceea7133,4,22.351,23.999,space,1,0.253,,0,6,6,24,1,Z,space,,,,,,,,,,
,,,,,R_6qRPhXWdcXRBrAB,001,2025-08-19_22h51.10.559,continuous_performance_test,2024.2.4,Win32,144.092219,faa3a202-5e22-498d-987f-9625ceea7133,4,24.001,25.802,space,1,0.199,,0,7,7,1,1,B,space,,,,,,,,,,
,,,,,R_6qRPhXWdcXRBrAB,001,2025-08-19_22h51.10.559,continuous_performance_test,2024.2.4,Win32,144.092219,faa3a202-5e22-498d-987f-9625ceea7133,4,25.803,27.704,space,1,0.304,,0,8,8,16,1,Q,space,,,,,,,,,,
,,,,,R_6qRPhXWdcXRBrAB,001,2025-08-19_22h51.10.559,continuous_performance_test,2024.2.4,Win32,144.092219,faa3a202-5e22-498d-987f-9625ceea7133,4,27.705,29.299,space,1,0.319,,0,9,9,13,1,N,space,,,,,,,,,,
,,,,,R_6qRPhXWdcXRBrAB,001,2025-08-19_22h51.10.559,continuous_performance_test,2024.2.4,Win32,144.092219,faa3a202-5e22-498d-987f-9625ceea7133,4,29.3,30.995,space,1,0.241,,0,10,10,21,1,V,space,,,,,,,,,,
,,,,,R_6qRPhXWdcXRBrAB,001,2025-08-19_22h51.10.559,continuous_performance_test,2024.2.4,Win32,144.092219,faa3a202-5e22-498d-987f-9625ceea7133,4,30.996,32.647,space,1,0.263,,0,11,11,22,1,W,space,,,,,,,,,,
,,,,,R_6qRPhXWdcXRBrAB,001,2025-08-19_22h51.10.559,continuous_performance_test,2024.2.4,Win32,144.092219,faa3a202-5e22-498d-987f-9625ceea7133,4,32.648,34.348,space,0,0.273,,0,12,12,27,1,X,,,,,,,,,,,
,,,,,R_6qRPhXWdcXRBrAB,001,2025-08-19_22h51.10.559,continuous_performance_test,2024.2.4,Win32,144.092219,faa3a202-5e22-498d-987f-9625ceea7133,4,34.348,36.044,space,1,0.367,,0,13,13,23,1,Y,space,,,,,,,,,,
,,,,,R_6qRPhXWdcXRBrAB,001,2025-08-19_22h51.10.559,continuous_performance_test,2024.2.4,Win32,144.092219,faa3a202-5e22-498d-987f-9625ceea7133,4,36.045,37.641,space,1,0.278,,0,14,14,17,1,R,space,,,,,,,,,,
,,,,,R_6qRPhXWdcXRBrAB,001,2025-08-19_22h51.10.559,continuous_performance_test,2024.2.4,Win32,144.092219,faa3a202-5e22-498d-987f-9625ceea7133,4,37.644,39.239,space,1,0.277,,0,15,15,15,1,P,space,,,,,,,,,,
,,,,,R_6qRPhXWdcXRBrAB,001,2025-08-19_22h51.10.559,continuous_performance_test,2024.2.4,Win32,144.092219,faa3a202-5e22-498d-987f-9625ceea7133,4,39.24,40.89,space,1,0.278,,0,16,16,11,1,L,space,,,,,,,,,,
,,,,,R_6qRPhXWdcXRBrAB,001,2025-08-19_22h51.10.559,continuous_performance_test,2024.2.4,Win32,144.092219,faa3a202-5e22-498d-987f-9625ceea7133,4,40.891,42.689,space,1,0.308,,0,17,17,0,1,A,space,,,,,,,,,,
,,,,,R_6qRPhXWdcXRBrAB,001,2025-08-19_22h51.10.559,continuous_performance_test,2024.2.4,Win32,144.092219,faa3a202-5e22-498d-987f-9625ceea7133,4,42.69,44.238,space,1,0.317,,0,18,18,18,1,S,space,,,,,,,,,,
,,,,,R_6qRPhXWdcXRBrAB,001,2025-08-19_22h51.10.559,continuous_performance_test,2024.2.4,Win32,144.092219,faa3a202-5e22-498d-987f-9625ceea7133,4,44.239,45.835,space,1,0.256,,0,19,19,14,1,O,space,,,,,,,,,,
,,,,,R_6qRPhXWdcXRBrAB,001,2025-08-19_22h51.10.559,continuous_performance_test,2024.2.4,Win32,144.092219,faa3a202-5e22-498d-987f-9625ceea7133,4,45.836,47.383,space,1,0.255,,0,20,20,2,1,C,space,,,,,,,,,,
,,,,,R_6qRPhXWdcXRBrAB,001,2025-08-19_22h51.10.559,continuous_performance_test,2024.2.4,Win32,144.092219,faa3a202-5e22-498d-987f-9625ceea7133,4,47.384,49.278,space,1,0.269,,0,21,21,7,1,H,space,,,,,,,,,,
,,,,,R_6qRPhXWdcXRBrAB,001,2025-08-19_22h51.10.559,continuous_performance_test,2024.2.4,Win32,144.092219,faa3a202-5e22-498d-987f-9625ceea7133,4,49.279,51.077,space,0,0.256,,0,22,22,29,1,X,,,,,,,,,,,
,,,,,R_6qRPhXWdcXRBrAB,001,2025-08-19_22h51.10.559,continuous_performance_test,2024.2.4,Win32,144.092219,faa3a202-5e22-498d-987f-9625ceea7133,4,51.078,52.874,,1,,,0,23,23,25,1,X,,,,,,,,,,,
,,,,,R_6qRPhXWdcXRBrAB,001,2025-08-19_22h51.10.559,continuous_performance_test,2024.2.4,Win32,144.092219,faa3a202-5e22-498d-987f-9625ceea7133,4,52.876,54.82,space,1,0.304,,0,24,24,4,1,E,space,,,,,,,,,,
,,,,,R_6qRPhXWdcXRBrAB,001,2025-08-19_22h51.10.559,continuous_performance_test,2024.2.4,Win32,144.092219,faa3a202-5e22-498d-987f-9625ceea7133,4,54.82,56.369,space,1,0.281,,0,25,25,3,1,D,space,,,,,,,,,,
,,,,,R_6qRPhXWdcXRBrAB,001,2025-08-19_22h51.10.559,continuous_performance_test,2024.2.4,Win32,144.092219,faa3a202-5e22-498d-987f-9625ceea7133,4,56.37,57.967,space,1,0.225,,0,26,26,12,1,M,space,,,,,,,,,,
,,,,,R_6qRPhXWdcXRBrAB,001,2025-08-19_22h51.10.559,continuous_performance_test,2024.2.4,Win32,144.092219,faa3a202-5e22-498d-987f-9625ceea7133,4,57.968,59.863,space,1,0.259,,0,27,27,19,1,T,space,,,,,,,,,,
,,,,,R_6qRPhXWdcXRBrAB,001,2025-08-19_22h51.10.559,continuous_performance_test,2024.2.4,Win32,144.092219,faa3a202-5e22-498d-987f-9625ceea7133,4,59.864,61.71,space,1,0.342,,0,28,28,20,1,U,space,,,,,,,,,,
,,,,,R_6qRPhXWdcXRBrAB,001,2025-08-19_22h51.10.559,continuous_performance_test,2024.2.4,Win32,144.092219,faa3a202-5e22-498d-987f-9625ceea7133,4,61.71,63.458,space,1,0.565,,0,29,29,6,1,G,space,,,,,,,,,,
,,,,,R_6qRPhXWdcXRBrAB,001,2025-08-19_22h51.10.559,continuous_performance_test,2024.2.4,Win32,144.092219,faa3a202-5e22-498d-987f-9625ceea7133,4,68.844,70.794,space,1,0.307,,0,0,0,22,1,W,space,63.458,68.836,space,5.355,,,,,,
,,,,,R_6qRPhXWdcXRBrAB,001,2025-08-19_22h51.10.559,continuous_performance_test,2024.2.4,Win32,144.092219,faa3a202-5e22-498d-987f-9625ceea7133,4,70.795,72.743,space,1,0.257,,0,1,1,23,1,Y,space,,,,,,,,,,
,,,,,R_6qRPhXWdcXRBrAB,001,2025-08-19_22h51.10.559,continuous_performance_test,2024.2.4,Win32,144.092219,faa3a202-5e22-498d-987f-9625ceea7133,4,72.744,74.689,space,1,0.262,,0,2,2,20,1,U,space,,,,,,,,,,
,,,,,R_6qRPhXWdcXRBrAB,001,2025-08-19_22h51.10.559,continuous_performance_test,2024.2.4,Win32,144.092219,faa3a202-5e22-498d-987f-9625ceea7133,4,74.69,76.39,space,0,0.273,,0,3,3,28,1,X,,,,,,,,,,,
,,,,,R_6qRPhXWdcXRBrAB,001,2025-08-19_22h51.10.559,continuous_performance_test,2024.2.4,Win32,144.092219,faa3a202-5e22-498d-987f-9625ceea7133,4,76.391,78.341,space,1,0.236,,0,4,4,2,1,C,space,,,,,,,,,,
,,,,,R_6qRPhXWdcXRBrAB,001,2025-08-19_22h51.10.559,continuous_performance_test,2024.2.4,Win32,144.092219,faa3a202-5e22-498d-987f-9625ceea7133,4,78.342,80.342,space,1,0.228,,0,5,5,0,1,A,space,,,,,,,,,,
,,,,,R_6qRPhXWdcXRBrAB,001,2025-08-19_22h51.10.559,continuous_performance_test,2024.2.4,Win32,144.092219,faa3a202-5e22-498d-987f-9625ceea7133,4,80.343,82.043,space,0,0.215,,0,6,6,25,1,X,,,,,,,,,,,
,,,,,R_6qRPhXWdcXRBrAB,001,2025-08-19_22h51.10.559,continuous_performance_test,2024.2.4,Win32,144.092219,faa3a202-5e22-498d-987f-9625ceea7133,4,82.044,83.744,space,1,0.425,,0,7,7,8,1,I,space,,,,,,,,,,
,,,,,R_6qRPhXWdcXRBrAB,001,2025-08-19_22h51.10.559,continuous_performance_test,2024.2.4,Win32,144.092219,faa3a202-5e22-498d-987f-9625ceea7133,4,83.745,85.492,space,1,0.257,,0,8,8,12,1,M,space,,,,,,,,,,
,,,,,R_6qRPhXWdcXRBrAB,001,2025-08-19_22h51.10.559,continuous_performance_test,2024.2.4,Win32,144.092219,faa3a202-5e22-498d-987f-9625ceea7133,4,85.494,87.188,space,1,0.257,,0,9,9,13,1,N,space,,,,,,,,,,
,,,,,R_6qRPhXWdcXRBrAB,001,2025-08-19_22h51.10.559,continuous_performance_test,2024.2.4,Win32,144.092219,faa3a202-5e22-498d-987f-9625ceea7133,4,87.189,88.785,space,1,0.286,,0,10,10,21,1,V,space,,,,,,,,,,
,,,,,R_6qRPhXWdcXRBrAB,001,2025-08-19_22h51.10.559,continuous_performance_test,2024.2.4,Win32,144.092219,faa3a202-5e22-498d-987f-9625ceea7133,4,88.787,90.334,space,1,0.319,,0,11,11,9,1,J,space,,,,,,,,,,
,,,,,R_6qRPhXWdcXRBrAB,001,2025-08-19_22h51.10.559,continuous_performance_test,2024.2.4,Win32,144.092219,faa3a202-5e22-498d-987f-9625ceea7133,4,90.334,92.333,space,1,0.24,,0,12,12,5,1,F,space,,,,,,,,,,
,,,,,R_6qRPhXWdcXRBrAB,001,2025-08-19_22h51.10.559,continuous_performance_test,2024.2.4,Win32,144.092219,faa3a202-5e22-498d-987f-9625ceea7133,4,92.335,94.334,space,1,0.305,,0,13,13,11,1,L,space,,,,,,,,,,
,,,,,R_6qRPhXWdcXRBrAB,001,2025-08-19_22h51.10.559,continuous_performance_test,2024.2.4,Win32,144.092219,faa3a202-5e22-498d-987f-9625ceea7133,4,94.335,96.132,space,1,0.288,,0,14,14,15,1,P,space,,,,,,,,,,
,,,,,R_6qRPhXWdcXRBrAB,001,2025-08-19_22h51.10.559,continuous_performance_test,2024.2.4,Win32,144.092219,faa3a202-5e22-498d-987f-9625ceea7133,4,96.133,97.827,space,1,0.315,,0,15,15,3,1,D,space,,,,,,,,,,
,,,,,R_6qRPhXWdcXRBrAB,001,2025-08-19_22h51.10.559,continuous_performance_test,2024.2.4,Win32,144.092219,faa3a202-5e22-498d-987f-9625ceea7133,4,97.828,99.723,space,1,0.223,,0,16,16,4,1,E,space,,,,,,,,,,
,,,,,R_6qRPhXWdcXRBrAB,001,2025-08-19_22h51.10.559,continuous_performance_test,2024.2.4,Win32,144.092219,faa3a202-5e22-498d-987f-9625ceea7133,4,99.724,101.57,space,1,0.353,,0,17,17,14,1,O,space,,,,,,,,,,
,,,,,R_6qRPhXWdcXRBrAB,001,2025-08-19_22h51.10.559,continuous_performance_test,2024.2.4,Win32,144.092219,faa3a202-5e22-498d-987f-9625ceea7133,4,101.573,103.222,space,1,0.278,,0,18,18,6,1,G,space,,,,,,,,,,
,,,,,R_6qRPhXWdcXRBrAB,001,2025-08-19_22h51.10.559,continuous_performance_test,2024.2.4,Win32,144.092219,faa3a202-5e22-498d-987f-9625ceea7133,4,103.223,104.973,space,1,0.299,,0,19,19,17,1,R,space,,,,,,,,,,
,,,,,R_6qRPhXWdcXRBrAB,001,2025-08-19_22h51.10.559,continuous_performance_test,2024.2.4,Win32,144.092219,faa3a202-5e22-498d-987f-9625ceea7133,4,104.973,106.869,space,1,0.258,,0,20,20,16,1,Q,space,,,,,,,,,,
,,,,,R_6qRPhXWdcXRBrAB,001,2025-08-19_22h51.10.559,continuous_performance_test,2024.2.4,Win32,144.092219,faa3a202-5e22-498d-987f-9625ceea7133,4,106.87,108.521,,1,,,0,21,21,27,1,X,,,,,,,,,,,
,,,,,R_6qRPhXWdcXRBrAB,001,2025-08-19_22h51.10.559,continuous_performance_test,2024.2.4,Win32,144.092219,faa3a202-5e22-498d-987f-9625ceea7133,4,108.522,110.117,space,1,0.353,,0,22,22,1,1,B,space,,,,,,,,,,
,,,,,R_6qRPhXWdcXRBrAB,001,2025-08-19_22h51.10.559,continuous_performance_test,2024.2.4,Win32,144.092219,faa3a202-5e22-498d-987f-9625ceea7133,4,110.119,111.716,space,0,0.347,,0,23,23,26,1,X,,,,,,,,,,,
,,,,,R_6qRPhXWdcXRBrAB,001,2025-08-19_22h51.10.559,continuous_performance_test,2024.2.4,Win32,144.092219,faa3a202-5e22-498d-987f-9625ceea7133,4,111.717,113.563,space,1,0.43,,0,24,24,7,1,H,space,,,,,,,,,,
,,,,,R_6qRPhXWdcXRBrAB,001,2025-08-19_22h51.10.559,continuous_performance_test,2024.2.4,Win32,144.092219,faa3a202-5e22-498d-987f-9625ceea7133,4,113.564,115.563,space,0,0.243,,0,25,25,29,1,X,,,,,,,,,,,
,,,,,R_6qRPhXWdcXRBrAB,001,2025-08-19_22h51.10.559,continuous_performance_test,2024.2.4,Win32,144.092219,faa3a202-5e22-498d-987f-9625ceea7133,4,115.564,117.264,space,1,0.294,,0,26,26,19,1,T,space,,,,,,,,,,
,,,,,R_6qRPhXWdcXRBrAB,001,2025-08-19_22h51.10.559,continuous_performance_test,2024.2.4,Win32,144.092219,faa3a202-5e22-498d-987f-9625ceea7133,4,117.265,119.063,space,1,0.272,,0,27,27,10,1,K,space,,,,,,,,,,
,,,,,R_6qRPhXWdcXRBrAB,001,2025-08-19_22h51.10.559,continuous_performance_test,2024.2.4,Win32,144.092219,faa3a202-5e22-498d-987f-9625ceea7133,4,119.064,120.862,space,1,0.299,,0,28,28,18,1,S,space,,,,,,,,,,
,,,,,R_6qRPhXWdcXRBrAB,001,2025-08-19_22h51.10.559,continuous_performance_test,2024.2.4,Win32,144.092219,faa3a202-5e22-498d-987f-9625ceea7133,4,120.862,122.812,space,1,0.292,,0,29,29,24,1,Z,space,,,,,,,,,,
,,,,,R_6qRPhXWdcXRBrAB,001,2025-08-19_22h51.10.559,continuous_performance_test,2024.2.4,Win32,144.092219,faa3a202-5e22-498d-987f-9625ceea7133,4,124.11,126.056,space,1,0.32,,0,0,0,1,1,B,space,122.813,124.104,space,1.275,,,,,,
,,,,,R_6qRPhXWdcXRBrAB,001,2025-08-19_22h51.10.559,continuous_performance_test,2024.2.4,Win32,144.092219,faa3a202-5e22-498d-987f-9625ceea7133,4,126.057,127.806,space,1,0.257,,0,1,1,12,1,M,space,,,,,,,,,,
,,,,,R_6qRPhXWdcXRBrAB,001,2025-08-19_22h51.10.559,continuous_performance_test,2024.2.4,Win32,144.092219,faa3a202-5e22-498d-987f-9625ceea7133,4,127.806,129.653,space,1,0.218,,0,2,2,15,1,P,space,,,,,,,,,,
,,,,,R_6qRPhXWdcXRBrAB,001,2025-08-19_22h51.10.559,continuous_performance_test,2024.2.4,Win32,144.092219,faa3a202-5e22-498d-987f-9625ceea7133,4,129.655,131.403,space,1,0.197,,0,3,3,2,1,C,space,,,,,,,,,,
,,,,,R_6qRPhXWdcXRBrAB,001,2025-08-19_22h51.10.559,continuous_performance_test,2024.2.4,Win32,144.092219,faa3a202-5e22-498d-987f-9625ceea7133,4,131.404,133.104,space,1,0.196,,0,4,4,6,1,G,space,,,,,,,,,,
,,,,,R_6qRPhXWdcXRBrAB,001,2025-08-19_22h51.10.559,continuous_performance_test,2024.2.4,Win32,144.092219,faa3a202-5e22-498d-987f-9625ceea7133,4,133.105,134.751,space,1,0.181,,0,5,5,19,1,T,space,,,,,,,,,,
,,,,,R_6qRPhXWdcXRBrAB,001,2025-08-19_22h51.10.559,continuous_performance_test,2024.2.4,Win32,144.092219,faa3a202-5e22-498d-987f-9625ceea7133,4,134.752,136.349,space,1,0.261,,0,6,6,23,1,Y,space,,,,,,,,,,
,,,,,R_6qRPhXWdcXRBrAB,001,2025-08-19_22h51.10.559,continuous_performance_test,2024.2.4,Win32,144.092219,faa3a202-5e22-498d-987f-9625ceea7133,4,136.35,137.951,space,1,0.286,,0,7,7,13,1,N,space,,,,,,,,,,
,,,,,R_6qRPhXWdcXRBrAB,001,2025-08-19_22h51.10.559,continuous_performance_test,2024.2.4,Win32,144.092219,faa3a202-5e22-498d-987f-9625ceea7133,4,137.952,139.549,space,1,0.322,,0,8,8,8,1,I,space,,,,,,,,,,
,,,,,R_6qRPhXWdcXRBrAB,001,2025-08-19_22h51.10.559,continuous_performance_test,2024.2.4,Win32,144.092219,faa3a202-5e22-498d-987f-9625ceea7133,4,139.55,141.244,space,1,0.279,,0,9,9,17,1,R,space,,,,,,,,,,
,,,,,R_6qRPhXWdcXRBrAB,001,2025-08-19_22h51.10.559,continuous_performance_test,2024.2.4,Win32,144.092219,faa3a202-5e22-498d-987f-9625ceea7133,4,141.245,142.939,space,1,0.217,,0,10,10,7,1,H,space,,,,,,,,,,
,,,,,R_6qRPhXWdcXRBrAB,001,2025-08-19_22h51.10.559,continuous_performance_test,2024.2.4,Win32,144.092219,faa3a202-5e22-498d-987f-9625ceea7133,4,142.94,144.536,space,1,0.274,,0,11,11,0,1,A,space,,,,,,,,,,
,,,,,R_6qRPhXWdcXRBrAB,001,2025-08-19_22h51.10.559,continuous_performance_test,2024.2.4,Win32,144.092219,faa3a202-5e22-498d-987f-9625ceea7133,4,144.537,146.535,,1,,,0,12,12,29,1,X,,,,,,,,,,,
,,,,,R_6qRPhXWdcXRBrAB,001,2025-08-19_22h51.10.559,continuous_performance_test,2024.2.4,Win32,144.092219,faa3a202-5e22-498d-987f-9625ceea7133,4,146.535,148.186,space,1,0.277,,0,13,13,24,1,Z,space,,,,,,,,,,
,,,,,R_6qRPhXWdcXRBrAB,001,2025-08-19_22h51.10.559,continuous_performance_test,2024.2.4,Win32,144.092219,faa3a202-5e22-498d-987f-9625ceea7133,4,148.186,149.882,space,0,0.257,,0,14,14,28,1,X,,,,,,,,,,,
,,,,,R_6qRPhXWdcXRBrAB,001,2025-08-19_22h51.10.559,continuous_performance_test,2024.2.4,Win32,144.092219,faa3a202-5e22-498d-987f-9625ceea7133,4,149.882,151.882,space,1,0.279,,0,15,15,22,1,W,space,,,,,,,,,,
,,,,,R_6qRPhXWdcXRBrAB,001,2025-08-19_22h51.10.559,continuous_performance_test,2024.2.4,Win32,144.092219,faa3a202-5e22-498d-987f-9625ceea7133,4,151.883,153.881,space,0,0.278,,0,16,16,26,1,X,,,,,,,,,,,
,,,,,R_6qRPhXWdcXRBrAB,001,2025-08-19_22h51.10.559,continuous_performance_test,2024.2.4,Win32,144.092219,faa3a202-5e22-498d-987f-9625ceea7133,4,153.882,155.729,space,1,0.334,,0,17,17,18,1,S,space,,,,,,,,,,
,,,,,R_6qRPhXWdcXRBrAB,001,2025-08-19_22h51.10.559,continuous_performance_test,2024.2.4,Win32,144.092219,faa3a202-5e22-498d-987f-9625ceea7133,4,155.73,157.729,space,1,0.325,,0,18,18,16,1,Q,space,,,,,,,,,,
,,,,,R_6qRPhXWdcXRBrAB,001,2025-08-19_22h51.10.559,continuous_performance_test,2024.2.4,Win32,144.092219,faa3a202-5e22-498d-987f-9625ceea7133,4,157.731,159.675,space,1,0.334,,0,19,19,11,1,L,space,,,,,,,,,,
,,,,,R_6qRPhXWdcXRBrAB,001,2025-08-19_22h51.10.559,continuous_performance_test,2024.2.4,Win32,144.092219,faa3a202-5e22-498d-987f-9625ceea7133,4,159.676,161.221,space,1,0.328,,0,20,20,14,1,O,space,,,,,,,,,,
,,,,,R_6qRPhXWdcXRBrAB,001,2025-08-19_22h51.10.559,continuous_performance_test,2024.2.4,Win32,144.092219,faa3a202-5e22-498d-987f-9625ceea7133,4,161.222,162.82,space,1,0.253,,0,21,21,9,1,J,space,,,,,,,,,,
,,,,,R_6qRPhXWdcXRBrAB,001,2025-08-19_22h51.10.559,continuous_performance_test,2024.2.4,Win32,144.092219,faa3a202-5e22-498d-987f-9625ceea7133,4,162.821,164.618,space,1,0.285,,0,22,22,10,1,K,space,,,,,,,,,,
,,,,,R_6qRPhXWdcXRBrAB,001,2025-08-19_22h51.10.559,continuous_performance_test,2024.2.4,Win32,144.092219,faa3a202-5e22-498d-987f-9625ceea7133,4,164.618,166.369,space,1,0.225,,0,23,23,4,1,E,space,,,,,,,,,,
,,,,,R_6qRPhXWdcXRBrAB,001,2025-08-19_22h51.10.559,continuous_performance_test,2024.2.4,Win32,144.092219,faa3a202-5e22-498d-987f-9625ceea7133,4,166.37,168.022,space,1,0.101,,0,24,24,5,1,F,space,,,,,,,,,,
,,,,,R_6qRPhXWdcXRBrAB,001,2025-08-19_22h51.10.559,continuous_performance_test,2024.2.4,Win32,144.092219,faa3a202-5e22-498d-987f-9625ceea7133,4,168.023,170.019,,0,,,0,25,25,20,1,U,space,,,,,,,,,,
,,,,,R_6qRPhXWdcXRBrAB,001,2025-08-19_22h51.10.559,continuous_performance_test,2024.2.4,Win32,144.092219,faa3a202-5e22-498d-987f-9625ceea7133,4,170.02,172.021,space,1,0.321,,0,26,26,21,1,V,space,,,,,,,,,,
,,,,,R_6qRPhXWdcXRBrAB,001,2025-08-19_22h51.10.559,continuous_performance_test,2024.2.4,Win32,144.092219,faa3a202-5e22-498d-987f-9625ceea7133,4,172.022,173.673,space,0,0.313,,0,27,27,25,1,X,,,,,,,,,,,
,,,,,R_6qRPhXWdcXRBrAB,001,2025-08-19_22h51.10.559,continuous_performance_test,2024.2.4,Win32,144.092219,faa3a202-5e22-498d-987f-9625ceea7133,4,173.674,175.222,,1,,,0,28,28,27,1,X,,,,,,,,,,,
,,,,,R_6qRPhXWdcXRBrAB,001,2025-08-19_22h51.10.559,continuous_performance_test,2024.2.4,Win32,144.092219,faa3a202-5e22-498d-987f-9625ceea7133,4,175.224,176.868,space,1,0.382,,0,29,29,3,1,D,space,,,,,,,,,,
,,,,,R_6qRPhXWdcXRBrAB,001,2025-08-19_22h51.10.559,continuous_performance_test,2024.2.4,Win32,144.092219,faa3a202-5e22-498d-987f-9625ceea7133,4,177.991,179.841,space,1,0.404,,0,0,0,14,1,O,space,176.869,177.985,space,1.094,,,,,,
,,,,,R_6qRPhXWdcXRBrAB,001,2025-08-19_22h51.10.559,continuous_performance_test,2024.2.4,Win32,144.092219,faa3a202-5e22-498d-987f-9625ceea7133,4,179.842,181.486,space,1,0.3,,0,1,1,1,1,B,space,,,,,,,,,,
,,,,,R_6qRPhXWdcXRBrAB,001,2025-08-19_22h51.10.559,continuous_performance_test,2024.2.4,Win32,144.092219,faa3a202-5e22-498d-987f-9625ceea7133,4,181.487,183.035,space,1,0.274,,0,2,2,21,1,V,space,,,,,,,,,,
,,,,,R_6qRPhXWdcXRBrAB,001,2025-08-19_22h51.10.559,continuous_performance_test,2024.2.4,Win32,144.092219,faa3a202-5e22-498d-987f-9625ceea7133,4,183.035,185.035,space,0,0.277,,0,3,3,26,1,X,,,,,,,,,,,
,,,,,R_6qRPhXWdcXRBrAB,001,2025-08-19_22h51.10.559,continuous_performance_test,2024.2.4,Win32,144.092219,faa3a202-5e22-498d-987f-9625ceea7133,4,185.035,186.736,space,1,0.292,,0,4,4,20,1,U,space,,,,,,,,,,
,,,,,R_6qRPhXWdcXRBrAB,001,2025-08-19_22h51.10.559,continuous_performance_test,2024.2.4,Win32,144.092219,faa3a202-5e22-498d-987f-9625ceea7133,4,186.737,188.638,space,1,0.313,,0,5,5,22,1,W,space,,,,,,,,,,
,,,,,R_6qRPhXWdcXRBrAB,001,2025-08-19_22h51.10.559,continuous_performance_test,2024.2.4,Win32,144.092219,faa3a202-5e22-498d-987f-9625ceea7133,4,188.639,190.438,space,1,0.266,,0,6,6,11,1,L,space,,,,,,,,,,
,,,,,R_6qRPhXWdcXRBrAB,001,2025-08-19_22h51.10.559,continuous_performance_test,2024.2.4,Win32,144.092219,faa3a202-5e22-498d-987f-9625ceea7133,4,190.438,192.083,space,1,0.27,,0,7,7,6,1,G,space,,,,,,,,,,
,,,,,R_6qRPhXWdcXRBrAB,001,2025-08-19_22h51.10.559,continuous_performance_test,2024.2.4,Win32,144.092219,faa3a202-5e22-498d-987f-9625ceea7133,4,192.085,193.729,space,1,0.244,,0,8,8,7,1,H,space,,,,,,,,,,
,,,,,R_6qRPhXWdcXRBrAB,001,2025-08-19_22h51.10.559,continuous_performance_test,2024.2.4,Win32,144.092219,faa3a202-5e22-498d-987f-9625ceea7133,4,193.73,195.674,space,1,0.452,,0,9,9,10,1,K,space,,,,,,,,,,
,,,,,R_6qRPhXWdcXRBrAB,001,2025-08-19_22h51.10.559,continuous_performance_test,2024.2.4,Win32,144.092219,faa3a202-5e22-498d-987f-9625ceea7133,4,195.675,197.222,space,1,0.366,,0,10,10,15,1,P,space,,,,,,,,,,
,,,,,R_6qRPhXWdcXRBrAB,001,2025-08-19_22h51.10.559,continuous_performance_test,2024.2.4,Win32,144.092219,faa3a202-5e22-498d-987f-9625ceea7133,4,197.223,199.075,space,0,0.313,,0,11,11,27,1,X,,,,,,,,,,,
,,,,,R_6qRPhXWdcXRBrAB,001,2025-08-19_22h51.10.559,continuous_performance_test,2024.2.4,Win32,144.092219,faa3a202-5e22-498d-987f-9625ceea7133,4,199.078,201.028,,1,,,0,12,12,25,1,X,,,,,,,,,,,
,,,,,R_6qRPhXWdcXRBrAB,001,2025-08-19_22h51.10.559,continuous_performance_test,2024.2.4,Win32,144.092219,faa3a202-5e22-498d-987f-9625ceea7133,4,201.029,202.625,space,1,0.443,,0,13,13,0,1,A,space,,,,,,,,,,
,,,,,R_6qRPhXWdcXRBrAB,001,2025-08-19_22h51.10.559,continuous_performance_test,2024.2.4,Win32,144.092219,faa3a202-5e22-498d-987f-9625ceea7133,4,202.626,204.223,space,1,0.327,,0,14,14,8,1,I,space,,,,,,,,,,
,,,,,R_6qRPhXWdcXRBrAB,001,2025-08-19_22h51.10.559,continuous_performance_test,2024.2.4,Win32,144.092219,faa3a202-5e22-498d-987f-9625ceea7133,4,204.223,206.218,space,1,0.199,,0,15,15,18,1,S,space,,,,,,,,,,
,,,,,R_6qRPhXWdcXRBrAB,001,2025-08-19_22h51.10.559,continuous_performance_test,2024.2.4,Win32,144.092219,faa3a202-5e22-498d-987f-9625ceea7133,4,206.219,208.118,space,1,0.248,,0,16,16,4,1,E,space,,,,,,,,,,
,,,,,R_6qRPhXWdcXRBrAB,001,2025-08-19_22h51.10.559,continuous_performance_test,2024.2.4,Win32,144.092219,faa3a202-5e22-498d-987f-9625ceea7133,4,208.119,209.917,space,1,0.324,,0,17,17,24,1,Z,space,,,,,,,,,,
,,,,,R_6qRPhXWdcXRBrAB,001,2025-08-19_22h51.10.559,continuous_performance_test,2024.2.4,Win32,144.092219,faa3a202-5e22-498d-987f-9625ceea7133,4,209.918,211.868,space,1,0.312,,0,18,18,16,1,Q,space,,,,,,,,,,
,,,,,R_6qRPhXWdcXRBrAB,001,2025-08-19_22h51.10.559,continuous_performance_test,2024.2.4,Win32,144.092219,faa3a202-5e22-498d-987f-9625ceea7133,4,211.869,213.666,space,1,0.304,,0,19,19,5,1,F,space,,,,,,,,,,
,,,,,R_6qRPhXWdcXRBrAB,001,2025-08-19_22h51.10.559,continuous_performance_test,2024.2.4,Win32,144.092219,faa3a202-5e22-498d-987f-9625ceea7133,4,213.667,215.264,space,0,0.32,,0,20,20,29,1,X,,,,,,,,,,,
,,,,,R_6qRPhXWdcXRBrAB,001,2025-08-19_22h51.10.559,continuous_performance_test,2024.2.4,Win32,144.092219,faa3a202-5e22-498d-987f-9625ceea7133,4,215.265,217.063,space,1,0.25,,0,21,21,23,1,Y,space,,,,,,,,,,
,,,,,R_6qRPhXWdcXRBrAB,001,2025-08-19_22h51.10.559,continuous_performance_test,2024.2.4,Win32,144.092219,faa3a202-5e22-498d-987f-9625ceea7133,4,217.064,218.765,space,1,0.235,,0,22,22,12,1,M,space,,,,,,,,,,
,,,,,R_6qRPhXWdcXRBrAB,001,2025-08-19_22h51.10.559,continuous_performance_test,2024.2.4,Win32,144.092219,faa3a202-5e22-498d-987f-9625ceea7133,4,218.765,220.764,,0,,,0,23,23,19,1,T,space,,,,,,,,,,
,,,,,R_6qRPhXWdcXRBrAB,001,2025-08-19_22h51.10.559,continuous_performance_test,2024.2.4,Win32,144.092219,faa3a202-5e22-498d-987f-9625ceea7133,4,220.766,222.514,space,1,0.284,,0,24,24,3,1,D,space,,,,,,,,,,
,,,,,R_6qRPhXWdcXRBrAB,001,2025-08-19_22h51.10.559,continuous_performance_test,2024.2.4,Win32,144.092219,faa3a202-5e22-498d-987f-9625ceea7133,4,222.515,224.264,space,1,0.334,,0,25,25,13,1,N,space,,,,,,,,,,
,,,,,R_6qRPhXWdcXRBrAB,001,2025-08-19_22h51.10.559,continuous_performance_test,2024.2.4,Win32,144.092219,faa3a202-5e22-498d-987f-9625ceea7133,4,224.264,225.859,space,1,0.319,,0,26,26,17,1,R,space,,,,,,,,,,
,,,,,R_6qRPhXWdcXRBrAB,001,2025-08-19_22h51.10.559,continuous_performance_test,2024.2.4,Win32,144.092219,faa3a202-5e22-498d-987f-9625ceea7133,4,225.859,227.658,space,1,0.29,,0,27,27,9,1,J,space,,,,,,,,,,
,,,,,R_6qRPhXWdcXRBrAB,001,2025-08-19_22h51.10.559,continuous_performance_test,2024.2.4,Win32,144.092219,faa3a202-5e22-498d-987f-9625ceea7133,4,227.66,229.555,space,1,0.264,,0,28,28,2,1,C,space,,,,,,,,,,
,,,,,R_6qRPhXWdcXRBrAB,001,2025-08-19_22h51.10.559,continuous_performance_test,2024.2.4,Win32,144.092219,faa3a202-5e22-498d-987f-9625ceea7133,4,229.556,231.2,space,0,0.254,,0,29,29,28,1,X,,,,,,,,,,,
,,,,,R_6qRPhXWdcXRBrAB,001,2025-08-19_22h51.10.559,continuous_performance_test,2024.2.4,Win32,144.092219,faa3a202-5e22-498d-987f-9625ceea7133,4,232.098,233.694,space,1,0.396,,0,0,0,1,1,B,space,231.201,232.09,space,0.872,,,,,,
,,,,,R_6qRPhXWdcXRBrAB,001,2025-08-19_22h51.10.559,continuous_performance_test,2024.2.4,Win32,144.092219,faa3a202-5e22-498d-987f-9625ceea7133,4,233.696,235.395,space,1,0.25,,0,1,1,16,1,Q,space,,,,,,,,,,
,,,,,R_6qRPhXWdcXRBrAB,001,2025-08-19_22h51.10.559,continuous_performance_test,2024.2.4,Win32,144.092219,faa3a202-5e22-498d-987f-9625ceea7133,4,235.396,237.401,space,1,0.223,,0,2,2,2,1,C,space,,,,,,,,,,
,,,,,R_6qRPhXWdcXRBrAB,001,2025-08-19_22h51.10.559,continuous_performance_test,2024.2.4,Win32,144.092219,faa3a202-5e22-498d-987f-9625ceea7133,4,237.402,239.249,space,1,0.271,,0,3,3,14,1,O,space,,,,,,,,,,
,,,,,R_6qRPhXWdcXRBrAB,001,2025-08-19_22h51.10.559,continuous_performance_test,2024.2.4,Win32,144.092219,faa3a202-5e22-498d-987f-9625ceea7133,4,239.249,240.999,space,1,0.318,,0,4,4,15,1,P,space,,,,,,,,,,
,,,,,R_6qRPhXWdcXRBrAB,001,2025-08-19_22h51.10.559,continuous_performance_test,2024.2.4,Win32,144.092219,faa3a202-5e22-498d-987f-9625ceea7133,4,241,242.596,space,1,0.308,,0,5,5,24,1,Z,space,,,,,,,,,,
,,,,,R_6qRPhXWdcXRBrAB,001,2025-08-19_22h51.10.559,continuous_performance_test,2024.2.4,Win32,144.092219,faa3a202-5e22-498d-987f-9625ceea7133,4,242.596,244.242,space,1,0.334,,0,6,6,0,1,A,space,,,,,,,,,,
,,,,,R_6qRPhXWdcXRBrAB,001,2025-08-19_22h51.10.559,continuous_performance_test,2024.2.4,Win32,144.092219,faa3a202-5e22-498d-987f-9625ceea7133,4,244.243,246.091,space,1,0.299,,0,7,7,19,1,T,space,,,,,,,,,,
,,,,,R_6qRPhXWdcXRBrAB,001,2025-08-19_22h51.10.559,continuous_performance_test,2024.2.4,Win32,144.092219,faa3a202-5e22-498d-987f-9625ceea7133,4,246.092,248.09,space,1,0.424,,0,8,8,17,1,R,space,,,,,,,,,,
,,,,,R_6qRPhXWdcXRBrAB,001,2025-08-19_22h51.10.559,continuous_performance_test,2024.2.4,Win32,144.092219,faa3a202-5e22-498d-987f-9625ceea7133,4,248.091,249.935,space,1,0.265,,0,9,9,10,1,K,space,,,,,,,,,,
,,,,,R_6qRPhXWdcXRBrAB,001,2025-08-19_22h51.10.559,continuous_performance_test,2024.2.4,Win32,144.092219,faa3a202-5e22-498d-987f-9625ceea7133,4,249.936,251.631,space,1,0.292,,0,10,10,7,1,H,space,,,,,,,,,,
,,,,,R_6qRPhXWdcXRBrAB,001,2025-08-19_22h51.10.559,continuous_performance_test,2024.2.4,Win32,144.092219,faa3a202-5e22-498d-987f-9625ceea7133,4,251.632,253.333,space,1,0.327,,0,11,11,23,1,Y,space,,,,,,,,,,
,,,,,R_6qRPhXWdcXRBrAB,001,2025-08-19_22h51.10.559,continuous_performance_test,2024.2.4,Win32,144.092219,faa3a202-5e22-498d-987f-9625ceea7133,4,253.333,254.881,space,1,0.418,,0,12,12,5,1,F,space,,,,,,,,,,
,,,,,R_6qRPhXWdcXRBrAB,001,2025-08-19_22h51.10.559,continuous_performance_test,2024.2.4,Win32,144.092219,faa3a202-5e22-498d-987f-9625ceea7133,4,254.882,256.528,space,1,0.292,,0,13,13,12,1,M,space,,,,,,,,,,
,,,,,R_6qRPhXWdcXRBrAB,001,2025-08-19_22h51.10.559,continuous_performance_test,2024.2.4,Win32,144.092219,faa3a202-5e22-498d-987f-9625ceea7133,4,256.528,258.277,space,0,0.255,,0,14,14,26,1,X,,,,,,,,,,,
,,,,,R_6qRPhXWdcXRBrAB,001,2025-08-19_22h51.10.559,continuous_performance_test,2024.2.4,Win32,144.092219,faa3a202-5e22-498d-987f-9625ceea7133,4,258.277,259.873,space,0,0.307,,0,15,15,27,1,X,,,,,,,,,,,
,,,,,R_6qRPhXWdcXRBrAB,001,2025-08-19_22h51.10.559,continuous_performance_test,2024.2.4,Win32,144.092219,faa3a202-5e22-498d-987f-9625ceea7133,4,259.874,261.471,space,1,0.283,,0,16,16,13,1,N,space,,,,,,,,,,
,,,,,R_6qRPhXWdcXRBrAB,001,2025-08-19_22h51.10.559,continuous_performance_test,2024.2.4,Win32,144.092219,faa3a202-5e22-498d-987f-9625ceea7133,4,261.473,263.472,space,1,0.237,,0,17,17,22,1,W,space,,,,,,,,,,
,,,,,R_6qRPhXWdcXRBrAB,001,2025-08-19_22h51.10.559,continuous_performance_test,2024.2.4,Win32,144.092219,faa3a202-5e22-498d-987f-9625ceea7133,4,263.473,265.319,space,1,0.266,,0,18,18,11,1,L,space,,,,,,,,,,
,,,,,R_6qRPhXWdcXRBrAB,001,2025-08-19_22h51.10.559,continuous_performance_test,2024.2.4,Win32,144.092219,faa3a202-5e22-498d-987f-9625ceea7133,4,265.319,266.915,space,0,0.321,,0,19,19,28,1,X,,,,,,,,,,,
,,,,,R_6qRPhXWdcXRBrAB,001,2025-08-19_22h51.10.559,continuous_performance_test,2024.2.4,Win32,144.092219,faa3a202-5e22-498d-987f-9625ceea7133,4,266.916,268.666,space,0,0.187,,0,20,20,29,1,X,,,,,,,,,,,
,,,,,R_6qRPhXWdcXRBrAB,001,2025-08-19_22h51.10.559,continuous_performance_test,2024.2.4,Win32,144.092219,faa3a202-5e22-498d-987f-9625ceea7133,4,268.669,270.262,space,1,0.374,,0,21,21,9,1,J,space,,,,,,,,,,
,,,,,R_6qRPhXWdcXRBrAB,001,2025-08-19_22h51.10.559,continuous_performance_test,2024.2.4,Win32,144.092219,faa3a202-5e22-498d-987f-9625ceea7133,4,270.263,272.06,space,1,0.263,,0,22,22,8,1,I,space,,,,,,,,,,
,,,,,R_6qRPhXWdcXRBrAB,001,2025-08-19_22h51.10.559,continuous_performance_test,2024.2.4,Win32,144.092219,faa3a202-5e22-498d-987f-9625ceea7133,4,272.061,273.761,space,1,0.236,,0,23,23,4,1,E,space,,,,,,,,,,
,,,,,R_6qRPhXWdcXRBrAB,001,2025-08-19_22h51.10.559,continuous_performance_test,2024.2.4,Win32,144.092219,faa3a202-5e22-498d-987f-9625ceea7133,4,273.762,275.457,,0,,,0,24,24,20,1,U,space,,,,,,,,,,
,,,,,R_6qRPhXWdcXRBrAB,001,2025-08-19_22h51.10.559,continuous_performance_test,2024.2.4,Win32,144.092219,faa3a202-5e22-498d-987f-9625ceea7133,4,275.458,277.409,space,1,0.3,,0,25,25,18,1,S,space,,,,,,,,,,
,,,,,R_6qRPhXWdcXRBrAB,001,2025-08-19_22h51.10.559,continuous_performance_test,2024.2.4,Win32,144.092219,faa3a202-5e22-498d-987f-9625ceea7133,4,277.41,279.159,space,1,0.27,,0,26,26,6,1,G,space,,,,,,,,,,
,,,,,R_6qRPhXWdcXRBrAB,001,2025-08-19_22h51.10.559,continuous_performance_test,2024.2.4,Win32,144.092219,faa3a202-5e22-498d-987f-9625ceea7133,4,279.16,281.11,space,0,0.293,,0,27,27,25,1,X,,,,,,,,,,,
,,,,,R_6qRPhXWdcXRBrAB,001,2025-08-19_22h51.10.559,continuous_performance_test,2024.2.4,Win32,144.092219,faa3a202-5e22-498d-987f-9625ceea7133,4,281.111,282.707,space,1,0.294,,0,28,28,21,1,V,space,,,,,,,,,,
,,,,,R_6qRPhXWdcXRBrAB,001,2025-08-19_22h51.10.559,continuous_performance_test,2024.2.4,Win32,144.092219,faa3a202-5e22-498d-987f-9625ceea7133,4,282.708,284.505,space,1,0.375,,0,29,29,3,1,D,space,,,,,,,,,,
,,,,,R_6qRPhXWdcXRBrAB,001,2025-08-19_22h51.10.559,continuous_performance_test,2024.2.4,Win32,144.092219,faa3a202-5e22-498d-987f-9625ceea7133,4,286.855,288.849,space,1,0.334,,0,0,0,16,1,Q,space,284.506,286.846,space,2.31,,,,,,
,,,,,R_6qRPhXWdcXRBrAB,001,2025-08-19_22h51.10.559,continuous_performance_test,2024.2.4,Win32,144.092219,faa3a202-5e22-498d-987f-9625ceea7133,4,288.85,290.499,space,1,0.216,,0,1,1,10,1,K,space,,,,,,,,,,
,,,,,R_6qRPhXWdcXRBrAB,001,2025-08-19_22h51.10.559,continuous_performance_test,2024.2.4,Win32,144.092219,faa3a202-5e22-498d-987f-9625ceea7133,4,290.5,292.144,space,1,0.211,,0,2,2,17,1,R,space,,,,,,,,,,
,,,,,R_6qRPhXWdcXRBrAB,001,2025-08-19_22h51.10.559,continuous_performance_test,2024.2.4,Win32,144.092219,faa3a202-5e22-498d-987f-9625ceea7133,4,292.145,293.74,space,1,0.234,,0,3,3,19,1,T,space,,,,,,,,,,
,,,,,R_6qRPhXWdcXRBrAB,001,2025-08-19_22h51.10.559,continuous_performance_test,2024.2.4,Win32,144.092219,faa3a202-5e22-498d-987f-9625ceea7133,4,293.741,295.29,space,1,0.293,,0,4,4,23,1,Y,space,,,,,,,,,,
,,,,,R_6qRPhXWdcXRBrAB,001,2025-08-19_22h51.10.559,continuous_performance_test,2024.2.4,Win32,144.092219,faa3a202-5e22-498d-987f-9625ceea7133,4,295.292,296.991,space,1,0.353,,0,5,5,20,1,U,space,,,,,,,,,,
,,,,,R_6qRPhXWdcXRBrAB,001,2025-08-19_22h51.10.559,continuous_performance_test,2024.2.4,Win32,144.092219,faa3a202-5e22-498d-987f-9625ceea7133,4,296.992,298.936,space,0,0.265,,0,6,6,25,1,X,,,,,,,,,,,
,,,,,R_6qRPhXWdcXRBrAB,001,2025-08-19_22h51.10.559,continuous_performance_test,2024.2.4,Win32,144.092219,faa3a202-5e22-498d-987f-9625ceea7133,4,298.937,300.631,space,1,0.31,,0,7,7,1,1,B,space,,,,,,,,,,
,,,,,R_6qRPhXWdcXRBrAB,001,2025-08-19_22h51.10.559,continuous_performance_test,2024.2.4,Win32,144.092219,faa3a202-5e22-498d-987f-9625ceea7133,4,300.632,302.179,space,1,0.254,,0,8,8,14,1,O,space,,,,,,,,,,
,,,,,R_6qRPhXWdcXRBrAB,001,2025-08-19_22h51.10.559,continuous_performance_test,2024.2.4,Win32,144.092219,faa3a202-5e22-498d-987f-9625ceea7133,4,302.181,304.074,space,1,0.237,,0,9,9,22,1,W,space,,,,,,,,,,
,,,,,R_6qRPhXWdcXRBrAB,001,2025-08-19_22h51.10.559,continuous_performance_test,2024.2.4,Win32,144.092219,faa3a202-5e22-498d-987f-9625ceea7133,4,304.076,305.769,space,1,0.347,,0,10,10,13,1,N,space,,,,,,,,,,
,,,,,R_6qRPhXWdcXRBrAB,001,2025-08-19_22h51.10.559,continuous_performance_test,2024.2.4,Win32,144.092219,faa3a202-5e22-498d-987f-9625ceea7133,4,305.77,307.715,space,1,0.28,,0,11,11,24,1,Z,space,,,,,,,,,,
,,,,,R_6qRPhXWdcXRBrAB,001,2025-08-19_22h51.10.559,continuous_performance_test,2024.2.4,Win32,144.092219,faa3a202-5e22-498d-987f-9625ceea7133,4,307.716,309.513,,1,,,0,12,12,28,1,X,,,,,,,,,,,
,,,,,R_6qRPhXWdcXRBrAB,001,2025-08-19_22h51.10.559,continuous_performance_test,2024.2.4,Win32,144.092219,faa3a202-5e22-498d-987f-9625ceea7133,4,309.514,311.465,space,0,0.288,,0,13,13,26,1,X,,,,,,,,,,,
,,,,,R_6qRPhXWdcXRBrAB,001,2025-08-19_22h51.10.559,continuous_performance_test,2024.2.4,Win32,144.092219,faa3a202-5e22-498d-987f-9625ceea7133,4,311.465,313.013,space,1,0.333,,0,14,14,3,1,D,space,,,,,,,,,,
,,,,,R_6qRPhXWdcXRBrAB,001,2025-08-19_22h51.10.559,continuous_performance_test,2024.2.4,Win32,144.092219,faa3a202-5e22-498d-987f-9625ceea7133,4,313.014,314.61,space,1,0.538,,0,15,15,0,1,A,space,,,,,,,,,,
,,,,,R_6qRPhXWdcXRBrAB,001,2025-08-19_22h51.10.559,continuous_performance_test,2024.2.4,Win32,144.092219,faa3a202-5e22-498d-987f-9625ceea7133,4,314.611,316.361,space,1,0.411,,0,16,16,8,1,I,space,,,,,,,,,,
,,,,,R_6qRPhXWdcXRBrAB,001,2025-08-19_22h51.10.559,continuous_performance_test,2024.2.4,Win32,144.092219,faa3a202-5e22-498d-987f-9625ceea7133,4,316.361,318.311,space,1,0.333,,0,17,17,11,1,L,space,,,,,,,,,,
,,,,,R_6qRPhXWdcXRBrAB,001,2025-08-19_22h51.10.559,continuous_performance_test,2024.2.4,Win32,144.092219,faa3a202-5e22-498d-987f-9625ceea7133,4,318.312,320.11,space,1,0.262,,0,18,18,18,1,S,space,,,,,,,,,,
,,,,,R_6qRPhXWdcXRBrAB,001,2025-08-19_22h51.10.559,continuous_performance_test,2024.2.4,Win32,144.092219,faa3a202-5e22-498d-987f-9625ceea7133,4,320.111,321.86,space,0,0.355,,0,19,19,27,1,X,,,,,,,,,,,
,,,,,R_6qRPhXWdcXRBrAB,001,2025-08-19_22h51.10.559,continuous_performance_test,2024.2.4,Win32,144.092219,faa3a202-5e22-498d-987f-9625ceea7133,4,321.86,323.712,space,0,0.236,,0,20,20,29,1,X,,,,,,,,,,,
,,,,,R_6qRPhXWdcXRBrAB,001,2025-08-19_22h51.10.559,continuous_performance_test,2024.2.4,Win32,144.092219,faa3a202-5e22-498d-987f-9625ceea7133,4,323.713,325.459,space,1,0.277,,0,21,21,7,1,H,space,,,,,,,,,,
,,,,,R_6qRPhXWdcXRBrAB,001,2025-08-19_22h51.10.559,continuous_performance_test,2024.2.4,Win32,144.092219,faa3a202-5e22-498d-987f-9625ceea7133,4,325.459,327.456,,0,,,0,22,22,15,1,P,space,,,,,,,,,,
,,,,,R_6qRPhXWdcXRBrAB,001,2025-08-19_22h51.10.559,continuous_performance_test,2024.2.4,Win32,144.092219,faa3a202-5e22-498d-987f-9625ceea7133,4,327.457,329.158,space,1,0.215,,0,23,23,2,1,C,space,,,,,,,,,,
,,,,,R_6qRPhXWdcXRBrAB,001,2025-08-19_22h51.10.559,continuous_performance_test,2024.2.4,Win32,144.092219,faa3a202-5e22-498d-987f-9625ceea7133,4,329.159,330.707,space,1,0.253,,0,24,24,5,1,F,space,,,,,,,,,,
,,,,,R_6qRPhXWdcXRBrAB,001,2025-08-19_22h51.10.559,continuous_performance_test,2024.2.4,Win32,144.092219,faa3a202-5e22-498d-987f-9625ceea7133,4,330.707,332.603,space,1,0.301,,0,25,25,21,1,V,space,,,,,,,,,,
,,,,,R_6qRPhXWdcXRBrAB,001,2025-08-19_22h51.10.559,continuous_performance_test,2024.2.4,Win32,144.092219,faa3a202-5e22-498d-987f-9625ceea7133,4,332.604,334.248,space,1,0.264,,0,26,26,12,1,M,space,,,,,,,,,,
,,,,,R_6qRPhXWdcXRBrAB,001,2025-08-19_22h51.10.559,continuous_performance_test,2024.2.4,Win32,144.092219,faa3a202-5e22-498d-987f-9625ceea7133,4,334.249,336.193,space,1,0.265,,0,27,27,4,1,E,space,,,,,,,,,,
,,,,,R_6qRPhXWdcXRBrAB,001,2025-08-19_22h51.10.559,continuous_performance_test,2024.2.4,Win32,144.092219,faa3a202-5e22-498d-987f-9625ceea7133,4,336.197,338.04,space,1,0.338,,0,28,28,6,1,G,space,,,,,,,,,,
,,,,,R_6qRPhXWdcXRBrAB,001,2025-08-19_22h51.10.559,continuous_performance_test,2024.2.4,Win32,144.092219,faa3a202-5e22-498d-987f-9625ceea7133,4,338.041,339.79,space,1,0.43,,0,29,29,9,1,J,space,,,,,,,,,,
,,,,,R_6qRPhXWdcXRBrAB,001,2025-08-19_22h51.10.559,continuous_performance_test,2024.2.4,Win32,144.092219,faa3a202-5e22-498d-987f-9625ceea7133,4,340.391,342.339,space,1,0.357,,0,0,0,10,1,K,space,339.791,340.381,space,0.569,,,,,,
,,,,,R_6qRPhXWdcXRBrAB,001,2025-08-19_22h51.10.559,continuous_performance_test,2024.2.4,Win32,144.092219,faa3a202-5e22-498d-987f-9625ceea7133,4,342.34,344.185,space,1,0.231,,0,1,1,8,1,I,space,,,,,,,,,,
,,,,,R_6qRPhXWdcXRBrAB,001,2025-08-19_22h51.10.559,continuous_performance_test,2024.2.4,Win32,144.092219,faa3a202-5e22-498d-987f-9625ceea7133,4,344.186,346.032,space,1,0.258,,0,2,2,21,1,V,space,,,,,,,,,,
,,,,,R_6qRPhXWdcXRBrAB,001,2025-08-19_22h51.10.559,continuous_performance_test,2024.2.4,Win32,144.092219,faa3a202-5e22-498d-987f-9625ceea7133,4,346.033,347.774,space,1,0.267,,0,3,3,9,1,J,space,,,,,,,,,,
,,,,,R_6qRPhXWdcXRBrAB,001,2025-08-19_22h51.10.559,continuous_performance_test,2024.2.4,Win32,144.092219,faa3a202-5e22-498d-987f-9625ceea7133,4,347.775,349.47,space,0,0.243,,0,4,4,28,1,X,,,,,,,,,,,
,,,,,R_6qRPhXWdcXRBrAB,001,2025-08-19_22h51.10.559,continuous_performance_test,2024.2.4,Win32,144.092219,faa3a202-5e22-498d-987f-9625ceea7133,4,349.471,351.219,space,1,0.341,,0,5,5,18,1,S,space,,,,,,,,,,
,,,,,R_6qRPhXWdcXRBrAB,001,2025-08-19_22h51.10.559,continuous_performance_test,2024.2.4,Win32,144.092219,faa3a202-5e22-498d-987f-9625ceea7133,4,351.22,353.17,space,1,0.313,,0,6,6,11,1,L,space,,,,,,,,,,
,,,,,R_6qRPhXWdcXRBrAB,001,2025-08-19_22h51.10.559,continuous_performance_test,2024.2.4,Win32,144.092219,faa3a202-5e22-498d-987f-9625ceea7133,4,353.17,354.769,space,1,0.362,,0,7,7,7,1,H,space,,,,,,,,,,
,,,,,R_6qRPhXWdcXRBrAB,001,2025-08-19_22h51.10.559,continuous_performance_test,2024.2.4,Win32,144.092219,faa3a202-5e22-498d-987f-9625ceea7133,4,354.77,356.366,space,1,0.349,,0,8,8,14,1,O,space,,,,,,,,,,
,,,,,R_6qRPhXWdcXRBrAB,001,2025-08-19_22h51.10.559,continuous_performance_test,2024.2.4,Win32,144.092219,faa3a202-5e22-498d-987f-9625ceea7133,4,356.367,357.963,space,1,0.273,,0,9,9,1,1,B,space,,,,,,,,,,
,,,,,R_6qRPhXWdcXRBrAB,001,2025-08-19_22h51.10.559,continuous_performance_test,2024.2.4,Win32,144.092219,faa3a202-5e22-498d-987f-9625ceea7133,4,357.964,359.809,space,1,0.225,,0,10,10,13,1,N,space,,,,,,,,,,
,,,,,R_6qRPhXWdcXRBrAB,001,2025-08-19_22h51.10.559,continuous_performance_test,2024.2.4,Win32,144.092219,faa3a202-5e22-498d-987f-9625ceea7133,4,359.81,361.656,space,1,0.197,,0,11,11,12,1,M,space,,,,,,,,,,
,,,,,R_6qRPhXWdcXRBrAB,001,2025-08-19_22h51.10.559,continuous_performance_test,2024.2.4,Win32,144.092219,faa3a202-5e22-498d-987f-9625ceea7133,4,361.657,363.406,space,1,0.284,,0,12,12,19,1,T,space,,,,,,,,,,
,,,,,R_6qRPhXWdcXRBrAB,001,2025-08-19_22h51.10.559,continuous_performance_test,2024.2.4,Win32,144.092219,faa3a202-5e22-498d-987f-9625ceea7133,4,363.407,365.303,space,1,0.348,,0,13,13,17,1,R,space,,,,,,,,,,
,,,,,R_6qRPhXWdcXRBrAB,001,2025-08-19_22h51.10.559,continuous_performance_test,2024.2.4,Win32,144.092219,faa3a202-5e22-498d-987f-9625ceea7133,4,365.304,366.901,space,1,0.384,,0,14,14,4,1,E,space,,,,,,,,,,
,,,,,R_6qRPhXWdcXRBrAB,001,2025-08-19_22h51.10.559,continuous_performance_test,2024.2.4,Win32,144.092219,faa3a202-5e22-498d-987f-9625ceea7133,4,366.903,368.652,space,1,0.422,,0,15,15,24,1,Z,space,,,,,,,,,,
,,,,,R_6qRPhXWdcXRBrAB,001,2025-08-19_22h51.10.559,continuous_performance_test,2024.2.4,Win32,144.092219,faa3a202-5e22-498d-987f-9625ceea7133,4,368.653,370.603,space,1,0.32,,0,16,16,23,1,Y,space,,,,,,,,,,
,,,,,R_6qRPhXWdcXRBrAB,001,2025-08-19_22h51.10.559,continuous_performance_test,2024.2.4,Win32,144.092219,faa3a202-5e22-498d-987f-9625ceea7133,4,370.604,372.448,space,1,0.319,,0,17,17,0,1,A,space,,,,,,,,,,
,,,,,R_6qRPhXWdcXRBrAB,001,2025-08-19_22h51.10.559,continuous_performance_test,2024.2.4,Win32,144.092219,faa3a202-5e22-498d-987f-9625ceea7133,4,372.448,374.343,space,1,0.284,,0,18,18,15,1,P,space,,,,,,,,,,
,,,,,R_6qRPhXWdcXRBrAB,001,2025-08-19_22h51.10.559,continuous_performance_test,2024.2.4,Win32,144.092219,faa3a202-5e22-498d-987f-9625ceea7133,4,374.344,376.088,space,1,0.283,,0,19,19,6,1,G,space,,,,,,,,,,
,,,,,R_6qRPhXWdcXRBrAB,001,2025-08-19_22h51.10.559,continuous_performance_test,2024.2.4,Win32,144.092219,faa3a202-5e22-498d-987f-9625ceea7133,4,376.09,378.04,space,0,0.294,,0,20,20,27,1,X,,,,,,,,,,,
,,,,,R_6qRPhXWdcXRBrAB,001,2025-08-19_22h51.10.559,continuous_performance_test,2024.2.4,Win32,144.092219,faa3a202-5e22-498d-987f-9625ceea7133,4,378.041,379.887,,1,,,0,21,21,25,1,X,,,,,,,,,,,
,,,,,R_6qRPhXWdcXRBrAB,001,2025-08-19_22h51.10.559,continuous_performance_test,2024.2.4,Win32,144.092219,faa3a202-5e22-498d-987f-9625ceea7133,4,379.887,381.637,space,1,0.341,,0,22,22,2,1,C,space,,,,,,,,,,
,,,,,R_6qRPhXWdcXRBrAB,001,2025-08-19_22h51.10.559,continuous_performance_test,2024.2.4,Win32,144.092219,faa3a202-5e22-498d-987f-9625ceea7133,4,381.638,383.386,space,1,0.339,,0,23,23,20,1,U,space,,,,,,,,,,
,,,,,R_6qRPhXWdcXRBrAB,001,2025-08-19_22h51.10.559,continuous_performance_test,2024.2.4,Win32,144.092219,faa3a202-5e22-498d-987f-9625ceea7133,4,383.387,384.984,space,1,0.361,,0,24,24,5,1,F,space,,,,,,,,,,
,,,,,R_6qRPhXWdcXRBrAB,001,2025-08-19_22h51.10.559,continuous_performance_test,2024.2.4,Win32,144.092219,faa3a202-5e22-498d-987f-9625ceea7133,4,384.985,386.734,space,1,0.335,,0,25,25,16,1,Q,space,,,,,,,,,,
,,,,,R_6qRPhXWdcXRBrAB,001,2025-08-19_22h51.10.559,continuous_performance_test,2024.2.4,Win32,144.092219,faa3a202-5e22-498d-987f-9625ceea7133,4,386.734,388.283,,1,,,0,26,26,26,1,X,,,,,,,,,,,
,,,,,R_6qRPhXWdcXRBrAB,001,2025-08-19_22h51.10.559,continuous_performance_test,2024.2.4,Win32,144.092219,faa3a202-5e22-498d-987f-9625ceea7133,4,388.284,389.984,,1,,,0,27,27,29,1,X,,,,,,,,,,,
,,,,,R_6qRPhXWdcXRBrAB,001,2025-08-19_22h51.10.559,continuous_performance_test,2024.2.4,Win32,144.092219,faa3a202-5e22-498d-987f-9625ceea7133,4,389.984,391.684,space,1,0.382,,0,28,28,3,1,D,space,,,,,,,,,,
,,,,,R_6qRPhXWdcXRBrAB,001,2025-08-19_22h51.10.559,continuous_performance_test,2024.2.4,Win32,144.092219,faa3a202-5e22-498d-987f-9625ceea7133,4,391.685,393.329,space,1,0.369,,0,29,29,22,1,W,space,,,,,,,,,,
,,,,,R_6qRPhXWdcXRBrAB,001,2025-08-19_22h51.10.559,continuous_performance_test,2024.2.4,Win32,144.092219,faa3a202-5e22-498d-987f-9625ceea7133,4,395.748,397.595,space,1,0.291,,0,0,0,13,1,N,space,393.33,395.742,space,2.392,,,,,,
,,,,,R_6qRPhXWdcXRBrAB,001,2025-08-19_22h51.10.559,continuous_performance_test,2024.2.4,Win32,144.092219,faa3a202-5e22-498d-987f-9625ceea7133,4,397.596,399.546,space,1,0.359,,0,1,1,24,1,Z,space,,,,,,,,,,
,,,,,R_6qRPhXWdcXRBrAB,001,2025-08-19_22h51.10.559,continuous_performance_test,2024.2.4,Win32,144.092219,faa3a202-5e22-498d-987f-9625ceea7133,4,399.547,401.345,space,1,0.349,,0,2,2,6,1,G,space,,,,,,,,,,
,,,,,R_6qRPhXWdcXRBrAB,001,2025-08-19_22h51.10.559,continuous_performance_test,2024.2.4,Win32,144.092219,faa3a202-5e22-498d-987f-9625ceea7133,4,401.346,403.143,space,1,0.29,,0,3,3,4,1,E,space,,,,,,,,,,
,,,,,R_6qRPhXWdcXRBrAB,001,2025-08-19_22h51.10.559,continuous_performance_test,2024.2.4,Win32,144.092219,faa3a202-5e22-498d-987f-9625ceea7133,4,403.144,405.039,space,1,0.242,,0,4,4,14,1,O,space,,,,,,,,,,
,,,,,R_6qRPhXWdcXRBrAB,001,2025-08-19_22h51.10.559,continuous_performance_test,2024.2.4,Win32,144.092219,faa3a202-5e22-498d-987f-9625ceea7133,4,405.041,406.636,space,1,0.362,,0,5,5,8,1,I,space,,,,,,,,,,
,,,,,R_6qRPhXWdcXRBrAB,001,2025-08-19_22h51.10.559,continuous_performance_test,2024.2.4,Win32,144.092219,faa3a202-5e22-498d-987f-9625ceea7133,4,406.637,408.387,space,1,0.376,,0,6,6,23,1,Y,space,,,,,,,,,,
,,,,,R_6qRPhXWdcXRBrAB,001,2025-08-19_22h51.10.559,continuous_performance_test,2024.2.4,Win32,144.092219,faa3a202-5e22-498d-987f-9625ceea7133,4,408.388,409.983,,1,,,0,7,7,29,1,X,,,,,,,,,,,
,,,,,R_6qRPhXWdcXRBrAB,001,2025-08-19_22h51.10.559,continuous_performance_test,2024.2.4,Win32,144.092219,faa3a202-5e22-498d-987f-9625ceea7133,4,409.985,411.679,space,1,0.368,,0,8,8,3,1,D,space,,,,,,,,,,
,,,,,R_6qRPhXWdcXRBrAB,001,2025-08-19_22h51.10.559,continuous_performance_test,2024.2.4,Win32,144.092219,faa3a202-5e22-498d-987f-9625ceea7133,4,411.68,413.378,space,1,0.312,,0,9,9,2,1,C,space,,,,,,,,,,
,,,,,R_6qRPhXWdcXRBrAB,001,2025-08-19_22h51.10.559,continuous_performance_test,2024.2.4,Win32,144.092219,faa3a202-5e22-498d-987f-9625ceea7133,4,413.379,414.929,space,1,0.276,,0,10,10,1,1,B,space,,,,,,,,,,
,,,,,R_6qRPhXWdcXRBrAB,001,2025-08-19_22h51.10.559,continuous_performance_test,2024.2.4,Win32,144.092219,faa3a202-5e22-498d-987f-9625ceea7133,4,414.93,416.477,space,1,0.296,,0,11,11,10,1,K,space,,,,,,,,,,
,,,,,R_6qRPhXWdcXRBrAB,001,2025-08-19_22h51.10.559,continuous_performance_test,2024.2.4,Win32,144.092219,faa3a202-5e22-498d-987f-9625ceea7133,4,416.478,418.025,space,1,0.284,,0,12,12,22,1,W,space,,,,,,,,,,
,,,,,R_6qRPhXWdcXRBrAB,001,2025-08-19_22h51.10.559,continuous_performance_test,2024.2.4,Win32,144.092219,faa3a202-5e22-498d-987f-9625ceea7133,4,418.027,419.574,space,0,0.243,,0,13,13,28,1,X,,,,,,,,,,,
,,,,,R_6qRPhXWdcXRBrAB,001,2025-08-19_22h51.10.559,continuous_performance_test,2024.2.4,Win32,144.092219,faa3a202-5e22-498d-987f-9625ceea7133,4,419.575,421.422,space,1,0.237,,0,14,14,0,1,A,space,,,,,,,,,,
,,,,,R_6qRPhXWdcXRBrAB,001,2025-08-19_22h51.10.559,continuous_performance_test,2024.2.4,Win32,144.092219,faa3a202-5e22-498d-987f-9625ceea7133,4,421.423,422.969,space,1,0.241,,0,15,15,19,1,T,space,,,,,,,,,,
,,,,,R_6qRPhXWdcXRBrAB,001,2025-08-19_22h51.10.559,continuous_performance_test,2024.2.4,Win32,144.092219,faa3a202-5e22-498d-987f-9625ceea7133,4,422.97,424.819,space,1,0.256,,0,16,16,5,1,F,space,,,,,,,,,,
,,,,,R_6qRPhXWdcXRBrAB,001,2025-08-19_22h51.10.559,continuous_performance_test,2024.2.4,Win32,144.092219,faa3a202-5e22-498d-987f-9625ceea7133,4,424.82,426.817,space,1,0.264,,0,17,17,9,1,J,space,,,,,,,,,,
,,,,,R_6qRPhXWdcXRBrAB,001,2025-08-19_22h51.10.559,continuous_performance_test,2024.2.4,Win32,144.092219,faa3a202-5e22-498d-987f-9625ceea7133,4,426.818,428.663,space,1,0.328,,0,18,18,7,1,H,space,,,,,,,,,,
,,,,,R_6qRPhXWdcXRBrAB,001,2025-08-19_22h51.10.559,continuous_performance_test,2024.2.4,Win32,144.092219,faa3a202-5e22-498d-987f-9625ceea7133,4,428.664,430.211,space,1,0.352,,0,19,19,20,1,U,space,,,,,,,,,,
,,,,,R_6qRPhXWdcXRBrAB,001,2025-08-19_22h51.10.559,continuous_performance_test,2024.2.4,Win32,144.092219,faa3a202-5e22-498d-987f-9625ceea7133,4,430.214,431.913,space,1,0.278,,0,20,20,12,1,M,space,,,,,,,,,,
,,,,,R_6qRPhXWdcXRBrAB,001,2025-08-19_22h51.10.559,continuous_performance_test,2024.2.4,Win32,144.092219,faa3a202-5e22-498d-987f-9625ceea7133,4,431.914,433.561,,1,,,0,21,21,25,1,X,,,,,,,,,,,
,,,,,R_6qRPhXWdcXRBrAB,001,2025-08-19_22h51.10.559,continuous_performance_test,2024.2.4,Win32,144.092219,faa3a202-5e22-498d-987f-9625ceea7133,4,433.561,435.109,space,1,0.581,,0,22,22,17,1,R,space,,,,,,,,,,
,,,,,R_6qRPhXWdcXRBrAB,001,2025-08-19_22h51.10.559,continuous_performance_test,2024.2.4,Win32,144.092219,faa3a202-5e22-498d-987f-9625ceea7133,4,435.11,436.658,space,1,0.343,,0,23,23,15,1,P,space,,,,,,,,,,
,,,,,R_6qRPhXWdcXRBrAB,001,2025-08-19_22h51.10.559,continuous_performance_test,2024.2.4,Win32,144.092219,faa3a202-5e22-498d-987f-9625ceea7133,4,436.658,438.504,space,1,0.249,,0,24,24,11,1,L,space,,,,,,,,,,
,,,,,R_6qRPhXWdcXRBrAB,001,2025-08-19_22h51.10.559,continuous_performance_test,2024.2.4,Win32,144.092219,faa3a202-5e22-498d-987f-9625ceea7133,4,438.505,440.401,space,0,0.232,,0,25,25,26,1,X,,,,,,,,,,,
,,,,,R_6qRPhXWdcXRBrAB,001,2025-08-19_22h51.10.559,continuous_performance_test,2024.2.4,Win32,144.092219,faa3a202-5e22-498d-987f-9625ceea7133,4,440.402,442.15,space,1,0.437,,0,26,26,21,1,V,space,,,,,,,,,,
,,,,,R_6qRPhXWdcXRBrAB,001,2025-08-19_22h51.10.559,continuous_performance_test,2024.2.4,Win32,144.092219,faa3a202-5e22-498d-987f-9625ceea7133,4,442.15,443.796,space,1,0.265,,0,27,27,16,1,Q,space,,,,,,,,,,
,,,,,R_6qRPhXWdcXRBrAB,001,2025-08-19_22h51.10.559,continuous_performance_test,2024.2.4,Win32,144.092219,faa3a202-5e22-498d-987f-9625ceea7133,4,443.797,445.748,space,1,0.333,,0,28,28,18,1,S,space,,,,,,,,,,
,,,,,R_6qRPhXWdcXRBrAB,001,2025-08-19_22h51.10.559,continuous_performance_test,2024.2.4,Win32,144.092219,faa3a202-5e22-498d-987f-9625ceea7133,4,445.748,447.449,,1,,,0,29,29,27,1,X,,,,,,,,,,,
,,,,,R_6qRPhXWdcXRBrAB,001,2025-08-19_22h51.10.559,continuous_performance_test,2024.2.4,Win32,144.092219,faa3a202-5e22-498d-987f-9625ceea7133,4,448.733,450.531,space,1,0.938,,0,0,0,3,1,D,space,447.45,448.726,space,1.259,,,,,,
,,,,,R_6qRPhXWdcXRBrAB,001,2025-08-19_22h51.10.559,continuous_performance_test,2024.2.4,Win32,144.092219,faa3a202-5e22-498d-987f-9625ceea7133,4,450.532,452.178,space,1,0.381,,0,1,1,24,1,Z,space,,,,,,,,,,
,,,,,R_6qRPhXWdcXRBrAB,001,2025-08-19_22h51.10.559,continuous_performance_test,2024.2.4,Win32,144.092219,faa3a202-5e22-498d-987f-9625ceea7133,4,452.179,453.928,space,0,0.246,,0,2,2,27,1,X,,,,,,,,,,,
,,,,,R_6qRPhXWdcXRBrAB,001,2025-08-19_22h51.10.559,continuous_performance_test,2024.2.4,Win32,144.092219,faa3a202-5e22-498d-987f-9625ceea7133,4,453.928,455.726,space,1,0.306,,0,3,3,6,1,G,space,,,,,,,,,,
,,,,,R_6qRPhXWdcXRBrAB,001,2025-08-19_22h51.10.559,continuous_performance_test,2024.2.4,Win32,144.092219,faa3a202-5e22-498d-987f-9625ceea7133,4,455.727,457.421,space,1,0.39,,0,4,4,15,1,P,space,,,,,,,,,,
,,,,,R_6qRPhXWdcXRBrAB,001,2025-08-19_22h51.10.559,continuous_performance_test,2024.2.4,Win32,144.092219,faa3a202-5e22-498d-987f-9625ceea7133,4,457.422,459.018,space,0,0.389,,0,5,5,29,1,X,,,,,,,,,,,
,,,,,R_6qRPhXWdcXRBrAB,001,2025-08-19_22h51.10.559,continuous_performance_test,2024.2.4,Win32,144.092219,faa3a202-5e22-498d-987f-9625ceea7133,4,459.019,460.667,space,0,0.273,,0,6,6,25,1,X,,,,,,,,,,,
,,,,,R_6qRPhXWdcXRBrAB,001,2025-08-19_22h51.10.559,continuous_performance_test,2024.2.4,Win32,144.092219,faa3a202-5e22-498d-987f-9625ceea7133,4,460.668,462.365,space,1,0.285,,0,7,7,10,1,K,space,,,,,,,,,,
,,,,,R_6qRPhXWdcXRBrAB,001,2025-08-19_22h51.10.559,continuous_performance_test,2024.2.4,Win32,144.092219,faa3a202-5e22-498d-987f-9625ceea7133,4,462.365,463.964,space,1,0.25,,0,8,8,17,1,R,space,,,,,,,,,,
,,,,,R_6qRPhXWdcXRBrAB,001,2025-08-19_22h51.10.559,continuous_performance_test,2024.2.4,Win32,144.092219,faa3a202-5e22-498d-987f-9625ceea7133,4,463.964,465.914,,1,,,0,9,9,28,1,X,,,,,,,,,,,
,,,,,R_6qRPhXWdcXRBrAB,001,2025-08-19_22h51.10.559,continuous_performance_test,2024.2.4,Win32,144.092219,faa3a202-5e22-498d-987f-9625ceea7133,4,465.916,467.561,space,1,0.369,,0,10,10,7,1,H,space,,,,,,,,,,
,,,,,R_6qRPhXWdcXRBrAB,001,2025-08-19_22h51.10.559,continuous_performance_test,2024.2.4,Win32,144.092219,faa3a202-5e22-498d-987f-9625ceea7133,4,467.562,469.157,space,1,0.326,,0,11,11,13,1,N,space,,,,,,,,,,
,,,,,R_6qRPhXWdcXRBrAB,001,2025-08-19_22h51.10.559,continuous_performance_test,2024.2.4,Win32,144.092219,faa3a202-5e22-498d-987f-9625ceea7133,4,469.158,471.053,space,1,0.261,,0,12,12,21,1,V,space,,,,,,,,,,
,,,,,R_6qRPhXWdcXRBrAB,001,2025-08-19_22h51.10.559,continuous_performance_test,2024.2.4,Win32,144.092219,faa3a202-5e22-498d-987f-9625ceea7133,4,471.053,472.85,,0,,,0,13,13,9,1,J,space,,,,,,,,,,
,,,,,R_6qRPhXWdcXRBrAB,001,2025-08-19_22h51.10.559,continuous_performance_test,2024.2.4,Win32,144.092219,faa3a202-5e22-498d-987f-9625ceea7133,4,472.851,474.698,space,1,0.092,,0,14,14,5,1,F,space,,,,,,,,,,
,,,,,R_6qRPhXWdcXRBrAB,001,2025-08-19_22h51.10.559,continuous_performance_test,2024.2.4,Win32,144.092219,faa3a202-5e22-498d-987f-9625ceea7133,4,474.699,476.545,space,1,0.383,,0,15,15,1,1,B,space,,,,,,,,,,
,,,,,R_6qRPhXWdcXRBrAB,001,2025-08-19_22h51.10.559,continuous_performance_test,2024.2.4,Win32,144.092219,faa3a202-5e22-498d-987f-9625ceea7133,4,476.546,478.544,space,1,0.348,,0,16,16,19,1,T,space,,,,,,,,,,
,,,,,R_6qRPhXWdcXRBrAB,001,2025-08-19_22h51.10.559,continuous_performance_test,2024.2.4,Win32,144.092219,faa3a202-5e22-498d-987f-9625ceea7133,4,478.545,480.141,space,1,0.376,,0,17,17,0,1,A,space,,,,,,,,,,
,,,,,R_6qRPhXWdcXRBrAB,001,2025-08-19_22h51.10.559,continuous_performance_test,2024.2.4,Win32,144.092219,faa3a202-5e22-498d-987f-9625ceea7133,4,480.142,481.691,space,1,0.584,,0,18,18,16,1,Q,space,,,,,,,,,,
,,,,,R_6qRPhXWdcXRBrAB,001,2025-08-19_22h51.10.559,continuous_performance_test,2024.2.4,Win32,144.092219,faa3a202-5e22-498d-987f-9625ceea7133,4,481.692,483.239,space,1,0.37,,0,19,19,18,1,S,space,,,,,,,,,,
,,,,,R_6qRPhXWdcXRBrAB,001,2025-08-19_22h51.10.559,continuous_performance_test,2024.2.4,Win32,144.092219,faa3a202-5e22-498d-987f-9625ceea7133,4,483.24,484.838,space,1,0.292,,0,20,20,22,1,W,space,,,,,,,,,,
,,,,,R_6qRPhXWdcXRBrAB,001,2025-08-19_22h51.10.559,continuous_performance_test,2024.2.4,Win32,144.092219,faa3a202-5e22-498d-987f-9625ceea7133,4,484.838,486.585,space,1,0.258,,0,21,21,12,1,M,space,,,,,,,,,,
,,,,,R_6qRPhXWdcXRBrAB,001,2025-08-19_22h51.10.559,continuous_performance_test,2024.2.4,Win32,144.092219,faa3a202-5e22-498d-987f-9625ceea7133,4,486.586,488.337,,0,,,0,22,22,20,1,U,space,,,,,,,,,,
,,,,,R_6qRPhXWdcXRBrAB,001,2025-08-19_22h51.10.559,continuous_performance_test,2024.2.4,Win32,144.092219,faa3a202-5e22-498d-987f-9625ceea7133,4,488.337,490.133,space,1,0.266,,0,23,23,23,1,Y,space,,,,,,,,,,
,,,,,R_6qRPhXWdcXRBrAB,001,2025-08-19_22h51.10.559,continuous_performance_test,2024.2.4,Win32,144.092219,faa3a202-5e22-498d-987f-9625ceea7133,4,490.134,491.983,space,1,0.113,,0,24,24,14,1,O,space,,,,,,,,,,
,,,,,R_6qRPhXWdcXRBrAB,001,2025-08-19_22h51.10.559,continuous_performance_test,2024.2.4,Win32,144.092219,faa3a202-5e22-498d-987f-9625ceea7133,4,491.984,493.934,space,1,0.284,,0,25,25,11,1,L,space,,,,,,,,,,
,,,,,R_6qRPhXWdcXRBrAB,001,2025-08-19_22h51.10.559,continuous_performance_test,2024.2.4,Win32,144.092219,faa3a202-5e22-498d-987f-9625ceea7133,4,493.935,495.782,space,0,0.322,,0,26,26,26,1,X,,,,,,,,,,,
,,,,,R_6qRPhXWdcXRBrAB,001,2025-08-19_22h51.10.559,continuous_performance_test,2024.2.4,Win32,144.092219,faa3a202-5e22-498d-987f-9625ceea7133,4,495.784,497.733,space,1,0.308,,0,27,27,2,1,C,space,,,,,,,,,,
,,,,,R_6qRPhXWdcXRBrAB,001,2025-08-19_22h51.10.559,continuous_performance_test,2024.2.4,Win32,144.092219,faa3a202-5e22-498d-987f-9625ceea7133,4,497.734,499.685,space,1,0.293,,0,28,28,4,1,E,space,,,,,,,,,,
,,,,,R_6qRPhXWdcXRBrAB,001,2025-08-19_22h51.10.559,continuous_performance_test,2024.2.4,Win32,144.092219,faa3a202-5e22-498d-987f-9625ceea7133,4,499.686,501.233,,0,,,0,29,29,8,1,I,space,,,,,,,,,,
,,,,,R_6qRPhXWdcXRBrAB,001,2025-08-19_22h51.10.559,continuous_performance_test,2024.2.4,Win32,144.092219,faa3a202-5e22-498d-987f-9625ceea7133,4,501.329,502.975,space,1,0.915,,0,0,0,11,1,L,space,501.234,501.322,space,0.064,,,,,,
,,,,,R_6qRPhXWdcXRBrAB,001,2025-08-19_22h51.10.559,continuous_performance_test,2024.2.4,Win32,144.092219,faa3a202-5e22-498d-987f-9625ceea7133,4,502.975,504.622,space,1,0.305,,0,1,1,7,1,H,space,,,,,,,,,,
,,,,,R_6qRPhXWdcXRBrAB,001,2025-08-19_22h51.10.559,continuous_performance_test,2024.2.4,Win32,144.092219,faa3a202-5e22-498d-987f-9625ceea7133,4,504.623,506.371,space,1,0.283,,0,2,2,21,1,V,space,,,,,,,,,,
,,,,,R_6qRPhXWdcXRBrAB,001,2025-08-19_22h51.10.559,continuous_performance_test,2024.2.4,Win32,144.092219,faa3a202-5e22-498d-987f-9625ceea7133,4,506.372,508.018,space,1,0.268,,0,3,3,10,1,K,space,,,,,,,,,,
,,,,,R_6qRPhXWdcXRBrAB,001,2025-08-19_22h51.10.559,continuous_performance_test,2024.2.4,Win32,144.092219,faa3a202-5e22-498d-987f-9625ceea7133,4,508.019,509.913,space,1,0.286,,0,4,4,8,1,I,space,,,,,,,,,,
,,,,,R_6qRPhXWdcXRBrAB,001,2025-08-19_22h51.10.559,continuous_performance_test,2024.2.4,Win32,144.092219,faa3a202-5e22-498d-987f-9625ceea7133,4,509.914,511.809,space,1,0.306,,0,5,5,23,1,Y,space,,,,,,,,,,
,,,,,R_6qRPhXWdcXRBrAB,001,2025-08-19_22h51.10.559,continuous_performance_test,2024.2.4,Win32,144.092219,faa3a202-5e22-498d-987f-9625ceea7133,4,511.81,513.705,,1,,,0,6,6,28,1,X,,,,,,,,,,,
,,,,,R_6qRPhXWdcXRBrAB,001,2025-08-19_22h51.10.559,continuous_performance_test,2024.2.4,Win32,144.092219,faa3a202-5e22-498d-987f-9625ceea7133,4,513.706,515.654,space,1,0.319,,0,7,7,14,1,O,space,,,,,,,,,,
,,,,,R_6qRPhXWdcXRBrAB,001,2025-08-19_22h51.10.559,continuous_performance_test,2024.2.4,Win32,144.092219,faa3a202-5e22-498d-987f-9625ceea7133,4,515.655,517.253,space,1,0.312,,0,8,8,6,1,G,space,,,,,,,,,,
,,,,,R_6qRPhXWdcXRBrAB,001,2025-08-19_22h51.10.559,continuous_performance_test,2024.2.4,Win32,144.092219,faa3a202-5e22-498d-987f-9625ceea7133,4,517.254,518.953,space,1,0.432,,0,9,9,1,1,B,space,,,,,,,,,,
,,,,,R_6qRPhXWdcXRBrAB,001,2025-08-19_22h51.10.559,continuous_performance_test,2024.2.4,Win32,144.092219,faa3a202-5e22-498d-987f-9625ceea7133,4,518.953,520.753,space,1,0.354,,0,10,10,4,1,E,space,,,,,,,,,,
,,,,,R_6qRPhXWdcXRBrAB,001,2025-08-19_22h51.10.559,continuous_performance_test,2024.2.4,Win32,144.092219,faa3a202-5e22-498d-987f-9625ceea7133,4,520.754,522.649,,0,,,0,11,11,17,1,R,space,,,,,,,,,,
,,,,,R_6qRPhXWdcXRBrAB,001,2025-08-19_22h51.10.559,continuous_performance_test,2024.2.4,Win32,144.092219,faa3a202-5e22-498d-987f-9625ceea7133,4,522.649,524.25,space,1,0.366,,0,12,12,0,1,A,space,,,,,,,,,,
,,,,,R_6qRPhXWdcXRBrAB,001,2025-08-19_22h51.10.559,continuous_performance_test,2024.2.4,Win32,144.092219,faa3a202-5e22-498d-987f-9625ceea7133,4,524.251,526.246,space,0,0.272,,0,13,13,27,1,X,,,,,,,,,,,
,,,,,R_6qRPhXWdcXRBrAB,001,2025-08-19_22h51.10.559,continuous_performance_test,2024.2.4,Win32,144.092219,faa3a202-5e22-498d-987f-9625ceea7133,4,526.247,528.093,space,1,0.283,,0,14,14,5,1,F,space,,,,,,,,,,
,,,,,R_6qRPhXWdcXRBrAB,001,2025-08-19_22h51.10.559,continuous_performance_test,2024.2.4,Win32,144.092219,faa3a202-5e22-498d-987f-9625ceea7133,4,528.094,529.844,space,0,0.12,,0,15,15,26,1,X,,,,,,,,,,,
,,,,,R_6qRPhXWdcXRBrAB,001,2025-08-19_22h51.10.559,continuous_performance_test,2024.2.4,Win32,144.092219,faa3a202-5e22-498d-987f-9625ceea7133,4,529.846,531.392,space,1,0.357,,0,16,16,13,1,N,space,,,,,,,,,,
,,,,,R_6qRPhXWdcXRBrAB,001,2025-08-19_22h51.10.559,continuous_performance_test,2024.2.4,Win32,144.092219,faa3a202-5e22-498d-987f-9625ceea7133,4,531.392,533.142,space,1,0.168,,0,17,17,16,1,Q,space,,,,,,,,,,
,,,,,R_6qRPhXWdcXRBrAB,001,2025-08-19_22h51.10.559,continuous_performance_test,2024.2.4,Win32,144.092219,faa3a202-5e22-498d-987f-9625ceea7133,4,533.143,534.891,space,1,0.191,,0,18,18,12,1,M,space,,,,,,,,,,
,,,,,R_6qRPhXWdcXRBrAB,001,2025-08-19_22h51.10.559,continuous_performance_test,2024.2.4,Win32,144.092219,faa3a202-5e22-498d-987f-9625ceea7133,4,534.893,536.592,space,1,0.257,,0,19,19,3,1,D,space,,,,,,,,,,
,,,,,R_6qRPhXWdcXRBrAB,001,2025-08-19_22h51.10.559,continuous_performance_test,2024.2.4,Win32,144.092219,faa3a202-5e22-498d-987f-9625ceea7133,4,536.593,538.142,space,0,0.306,,0,20,20,29,1,X,,,,,,,,,,,
,,,,,R_6qRPhXWdcXRBrAB,001,2025-08-19_22h51.10.559,continuous_performance_test,2024.2.4,Win32,144.092219,faa3a202-5e22-498d-987f-9625ceea7133,4,538.143,539.892,space,0,0.251,,0,21,21,25,1,X,,,,,,,,,,,
,,,,,R_6qRPhXWdcXRBrAB,001,2025-08-19_22h51.10.559,continuous_performance_test,2024.2.4,Win32,144.092219,faa3a202-5e22-498d-987f-9625ceea7133,4,539.893,541.489,space,1,0.078,,0,22,22,2,1,C,space,,,,,,,,,,
,,,,,R_6qRPhXWdcXRBrAB,001,2025-08-19_22h51.10.559,continuous_performance_test,2024.2.4,Win32,144.092219,faa3a202-5e22-498d-987f-9625ceea7133,4,541.49,543.239,space,1,0.111,,0,23,23,19,1,T,space,,,,,,,,,,
,,,,,R_6qRPhXWdcXRBrAB,001,2025-08-19_22h51.10.559,continuous_performance_test,2024.2.4,Win32,144.092219,faa3a202-5e22-498d-987f-9625ceea7133,4,543.24,545.135,space,1,0.044,,0,24,24,9,1,J,space,,,,,,,,,,
,,,,,R_6qRPhXWdcXRBrAB,001,2025-08-19_22h51.10.559,continuous_performance_test,2024.2.4,Win32,144.092219,faa3a202-5e22-498d-987f-9625ceea7133,4,545.135,546.831,,0,,,0,25,25,18,1,S,space,,,,,,,,,,
,,,,,R_6qRPhXWdcXRBrAB,001,2025-08-19_22h51.10.559,continuous_performance_test,2024.2.4,Win32,144.092219,faa3a202-5e22-498d-987f-9625ceea7133,4,546.833,548.58,space,1,0.223,,0,26,26,22,1,W,space,,,,,,,,,,
,,,,,R_6qRPhXWdcXRBrAB,001,2025-08-19_22h51.10.559,continuous_performance_test,2024.2.4,Win32,144.092219,faa3a202-5e22-498d-987f-9625ceea7133,4,548.58,550.328,,0,,,0,27,27,20,1,U,space,,,,,,,,,,
,,,,,R_6qRPhXWdcXRBrAB,001,2025-08-19_22h51.10.559,continuous_performance_test,2024.2.4,Win32,144.092219,faa3a202-5e22-498d-987f-9625ceea7133,4,550.329,552.272,space,1,0.293,,0,28,28,24,1,Z,space,,,,,,,,,,
,,,,,R_6qRPhXWdcXRBrAB,001,2025-08-19_22h51.10.559,continuous_performance_test,2024.2.4,Win32,144.092219,faa3a202-5e22-498d-987f-9625ceea7133,4,552.273,554.12,space,1,0.347,,0,29,29,15,1,P,space,,,,,,,,,,
,,,,,R_6qRPhXWdcXRBrAB,001,2025-08-19_22h51.10.559,continuous_performance_test,2024.2.4,Win32,144.092219,faa3a202-5e22-498d-987f-9625ceea7133,4,,,,,,,,,,,,,,554.121,554.122,,,,554.122,557.948,space,3.799,
