Instructions.started,Instructions.stopped,key_resp.keys,key_resp.rt,key_resp.duration,participant,session,date,expName,psychopyVersion,OS,frameRate,Trial_noX.started,Trial_noX.stopped,response.keys,response.corr,response.rt,response.duration,trials_noX.thisRepN,trials_noX.thisTrialN,trials_noX.thisN,trials_noX.thisIndex,trials_noX.ran,letter,corrAns,BlockBreak.started,BlockBreak.stopped,key_instruct.keys,key_instruct.rt,key_instruct.duration,End_NoX.started,End_NoX.stopped,key_resp_end_noX.keys,key_resp_end_noX.rt,key_resp_end_noX.duration
0.0005,19.1332,space,19.0696,,R_7J8K08GR5P7O9BA,001,2025-08-17_21h07.04.168,continuous_performance_test,2024.2.4,Linux x86_64,59.52380952,,,,,,,,,,,,,,,,,,,,,,,
,,,,,R_7J8K08GR5P7O9BA,001,2025-08-17_21h07.04.168,continuous_performance_test,2024.2.4,Linux x86_64,59.52380952,19.1741,21.078,space,1,0.4033,,0,0,0,11,1,L,space,,,,,,,,,,
,,,,,R_7J8K08GR5P7O9BA,001,2025-08-17_21h07.04.168,continuous_performance_test,2024.2.4,Linux x86_64,59.52380952,21.0861,22.623,space,1,0.2087,,0,1,1,14,1,O,space,,,,,,,,,,
,,,,,R_7J8K08GR5P7O9BA,001,2025-08-17_21h07.04.168,continuous_performance_test,2024.2.4,Linux x86_64,59.52380952,22.6286,24.4737,space,1,0.2459,,0,2,2,2,1,C,space,,,,,,,,,,
,,,,,R_7J8K08GR5P7O9BA,001,2025-08-17_21h07.04.168,continuous_performance_test,2024.2.4,Linux x86_64,59.52380952,24.4781,26.0229,space,1,0.2662,,0,3,3,19,1,T,space,,,,,,,,,,
,,,,,R_7J8K08GR5P7O9BA,001,2025-08-17_21h07.04.168,continuous_performance_test,2024.2.4,Linux x86_64,59.52380952,26.0277,27.8233,space,1,0.241,,0,4,4,23,1,Y,space,,,,,,,,,,
,,,,,R_7J8K08GR5P7O9BA,001,2025-08-17_21h07.04.168,continuous_performance_test,2024.2.4,Linux x86_64,59.52380952,27.8275,29.3721,space,1,0.2896,,0,5,5,4,1,E,space,,,,,,,,,,
,,,,,R_7J8K08GR5P7O9BA,001,2025-08-17_21h07.04.168,continuous_performance_test,2024.2.4,Linux x86_64,59.52380952,29.3752,30.9745,space,1,0.2459,,0,6,6,18,1,S,space,,,,,,,,,,
,,,,,R_7J8K08GR5P7O9BA,001,2025-08-17_21h07.04.168,continuous_performance_test,2024.2.4,Linux x86_64,59.52380952,30.9803,32.5216,space,1,0.3597,,0,7,7,10,1,K,space,,,,,,,,,,
,,,,,R_7J8K08GR5P7O9BA,001,2025-08-17_21h07.04.168,continuous_performance_test,2024.2.4,Linux x86_64,59.52380952,32.5259,34.3717,space,1,0.234,,0,8,8,13,1,N,space,,,,,,,,,,
,,,,,R_7J8K08GR5P7O9BA,001,2025-08-17_21h07.04.168,continuous_performance_test,2024.2.4,Linux x86_64,59.52380952,34.3754,36.071,space,1,0.2452,,0,9,9,1,1,B,space,,,,,,,,,,
,,,,,R_7J8K08GR5P7O9BA,001,2025-08-17_21h07.04.168,continuous_performance_test,2024.2.4,Linux x86_64,59.52380952,36.0743,37.7212,space,1,0.2663,,0,10,10,0,1,A,space,,,,,,,,,,
,,,,,R_7J8K08GR5P7O9BA,001,2025-08-17_21h07.04.168,continuous_performance_test,2024.2.4,Linux x86_64,59.52380952,37.7258,39.2709,,1,,,0,11,11,25,1,X,,,,,,,,,,,
,,,,,R_7J8K08GR5P7O9BA,001,2025-08-17_21h07.04.168,continuous_performance_test,2024.2.4,Linux x86_64,59.52380952,39.2763,41.0206,space,1,0.2454,,0,12,12,16,1,Q,space,,,,,,,,,,
,,,,,R_7J8K08GR5P7O9BA,001,2025-08-17_21h07.04.168,continuous_performance_test,2024.2.4,Linux x86_64,59.52380952,41.0244,42.7703,,1,,,0,13,13,26,1,X,,,,,,,,,,,
,,,,,R_7J8K08GR5P7O9BA,001,2025-08-17_21h07.04.168,continuous_performance_test,2024.2.4,Linux x86_64,59.52380952,42.7741,44.6208,space,1,0.2845,,0,14,14,15,1,P,space,,,,,,,,,,
,,,,,R_7J8K08GR5P7O9BA,001,2025-08-17_21h07.04.168,continuous_performance_test,2024.2.4,Linux x86_64,59.52380952,44.6263,46.5707,space,1,0.3363,,0,15,15,7,1,H,space,,,,,,,,,,
,,,,,R_7J8K08GR5P7O9BA,001,2025-08-17_21h07.04.168,continuous_performance_test,2024.2.4,Linux x86_64,59.52380952,46.576,48.5197,space,1,0.2815,,0,16,16,20,1,U,space,,,,,,,,,,
,,,,,R_7J8K08GR5P7O9BA,001,2025-08-17_21h07.04.168,continuous_performance_test,2024.2.4,Linux x86_64,59.52380952,48.5236,50.0696,space,1,0.3491,,0,17,17,17,1,R,space,,,,,,,,,,
,,,,,R_7J8K08GR5P7O9BA,001,2025-08-17_21h07.04.168,continuous_performance_test,2024.2.4,Linux x86_64,59.52380952,50.0742,51.7193,,1,,,0,18,18,29,1,X,,,,,,,,,,,
,,,,,R_7J8K08GR5P7O9BA,001,2025-08-17_21h07.04.168,continuous_performance_test,2024.2.4,Linux x86_64,59.52380952,51.7235,53.6692,space,1,0.2624,,0,19,19,6,1,G,space,,,,,,,,,,
,,,,,R_7J8K08GR5P7O9BA,001,2025-08-17_21h07.04.168,continuous_performance_test,2024.2.4,Linux x86_64,59.52380952,53.6734,55.3688,space,1,0.3787,,0,20,20,8,1,I,space,,,,,,,,,,
,,,,,R_7J8K08GR5P7O9BA,001,2025-08-17_21h07.04.168,continuous_performance_test,2024.2.4,Linux x86_64,59.52380952,55.3734,57.1184,space,1,0.2805,,0,21,21,9,1,J,space,,,,,,,,,,
,,,,,R_7J8K08GR5P7O9BA,001,2025-08-17_21h07.04.168,continuous_performance_test,2024.2.4,Linux x86_64,59.52380952,57.1203,58.8205,space,1,0.4133,,0,22,22,22,1,W,space,,,,,,,,,,
,,,,,R_7J8K08GR5P7O9BA,001,2025-08-17_21h07.04.168,continuous_performance_test,2024.2.4,Linux x86_64,59.52380952,58.8252,60.5681,,1,,,0,23,23,27,1,X,,,,,,,,,,,
,,,,,R_7J8K08GR5P7O9BA,001,2025-08-17_21h07.04.168,continuous_performance_test,2024.2.4,Linux x86_64,59.52380952,60.5715,62.1694,space,1,0.2834,,0,24,24,21,1,V,space,,,,,,,,,,
,,,,,R_7J8K08GR5P7O9BA,001,2025-08-17_21h07.04.168,continuous_performance_test,2024.2.4,Linux x86_64,59.52380952,62.1733,63.7675,space,1,0.2402,,0,25,25,5,1,F,space,,,,,,,,,,
,,,,,R_7J8K08GR5P7O9BA,001,2025-08-17_21h07.04.168,continuous_performance_test,2024.2.4,Linux x86_64,59.52380952,63.7718,65.6671,space,1,0.252,,0,26,26,3,1,D,space,,,,,,,,,,
,,,,,R_7J8K08GR5P7O9BA,001,2025-08-17_21h07.04.168,continuous_performance_test,2024.2.4,Linux x86_64,59.52380952,65.6688,67.2172,space,0,0.26,,0,27,27,28,1,X,,,,,,,,,,,
,,,,,R_7J8K08GR5P7O9BA,001,2025-08-17_21h07.04.168,continuous_performance_test,2024.2.4,Linux x86_64,59.52380952,67.2207,69.1671,space,1,0.3789,,0,28,28,12,1,M,space,,,,,,,,,,
,,,,,R_7J8K08GR5P7O9BA,001,2025-08-17_21h07.04.168,continuous_performance_test,2024.2.4,Linux x86_64,59.52380952,69.171,70.9169,space,1,0.3831,,0,29,29,24,1,Z,space,,,,,,,,,,
,,,,,R_7J8K08GR5P7O9BA,001,2025-08-17_21h07.04.168,continuous_performance_test,2024.2.4,Linux x86_64,59.52380952,73.1959,74.9339,space,1,0.2719,,0,0,0,24,1,Z,space,70.9188,73.1675,space,2.2162,,,,,,
,,,,,R_7J8K08GR5P7O9BA,001,2025-08-17_21h07.04.168,continuous_performance_test,2024.2.4,Linux x86_64,59.52380952,74.9377,76.6328,space,1,0.2098,,0,1,1,10,1,K,space,,,,,,,,,,
,,,,,R_7J8K08GR5P7O9BA,001,2025-08-17_21h07.04.168,continuous_performance_test,2024.2.4,Linux x86_64,59.52380952,76.637,78.1824,space,1,0.2793,,0,2,2,22,1,W,space,,,,,,,,,,
,,,,,R_7J8K08GR5P7O9BA,001,2025-08-17_21h07.04.168,continuous_performance_test,2024.2.4,Linux x86_64,59.52380952,78.1861,79.9353,space,1,0.2495,,0,3,3,6,1,G,space,,,,,,,,,,
,,,,,R_7J8K08GR5P7O9BA,001,2025-08-17_21h07.04.168,continuous_performance_test,2024.2.4,Linux x86_64,59.52380952,79.9396,81.7819,space,0,0.2781,,0,4,4,29,1,X,,,,,,,,,,,
,,,,,R_7J8K08GR5P7O9BA,001,2025-08-17_21h07.04.168,continuous_performance_test,2024.2.4,Linux x86_64,59.52380952,81.7852,83.6819,space,1,0.412,,0,5,5,19,1,T,space,,,,,,,,,,
,,,,,R_7J8K08GR5P7O9BA,001,2025-08-17_21h07.04.168,continuous_performance_test,2024.2.4,Linux x86_64,59.52380952,83.6855,85.3315,space,1,0.264,,0,6,6,14,1,O,space,,,,,,,,,,
,,,,,R_7J8K08GR5P7O9BA,001,2025-08-17_21h07.04.168,continuous_performance_test,2024.2.4,Linux x86_64,59.52380952,85.3353,87.0812,space,1,0.2484,,0,7,7,7,1,H,space,,,,,,,,,,
,,,,,R_7J8K08GR5P7O9BA,001,2025-08-17_21h07.04.168,continuous_performance_test,2024.2.4,Linux x86_64,59.52380952,87.0834,88.9813,space,1,0.2793,,0,8,8,18,1,S,space,,,,,,,,,,
,,,,,R_7J8K08GR5P7O9BA,001,2025-08-17_21h07.04.168,continuous_performance_test,2024.2.4,Linux x86_64,59.52380952,88.985,90.6308,,1,,,0,9,9,26,1,X,,,,,,,,,,,
,,,,,R_7J8K08GR5P7O9BA,001,2025-08-17_21h07.04.168,continuous_performance_test,2024.2.4,Linux x86_64,59.52380952,90.6332,92.3306,space,0,0.2881,,0,10,10,28,1,X,,,,,,,,,,,
,,,,,R_7J8K08GR5P7O9BA,001,2025-08-17_21h07.04.168,continuous_performance_test,2024.2.4,Linux x86_64,59.52380952,92.3348,94.231,space,1,0.4985,,0,11,11,9,1,J,space,,,,,,,,,,
,,,,,R_7J8K08GR5P7O9BA,001,2025-08-17_21h07.04.168,continuous_performance_test,2024.2.4,Linux x86_64,59.52380952,94.2364,95.7814,,1,,,0,12,12,27,1,X,,,,,,,,,,,
,,,,,R_7J8K08GR5P7O9BA,001,2025-08-17_21h07.04.168,continuous_performance_test,2024.2.4,Linux x86_64,59.52380952,95.785,97.3799,space,1,0.264,,0,13,13,23,1,Y,space,,,,,,,,,,
,,,,,R_7J8K08GR5P7O9BA,001,2025-08-17_21h07.04.168,continuous_performance_test,2024.2.4,Linux x86_64,59.52380952,97.3834,99.1299,space,1,0.2656,,0,14,14,5,1,F,space,,,,,,,,,,
,,,,,R_7J8K08GR5P7O9BA,001,2025-08-17_21h07.04.168,continuous_performance_test,2024.2.4,Linux x86_64,59.52380952,99.1354,100.6795,,1,,,0,15,15,25,1,X,,,,,,,,,,,
,,,,,R_7J8K08GR5P7O9BA,001,2025-08-17_21h07.04.168,continuous_performance_test,2024.2.4,Linux x86_64,59.52380952,100.6832,102.3299,space,1,0.2631,,0,16,16,3,1,D,space,,,,,,,,,,
,,,,,R_7J8K08GR5P7O9BA,001,2025-08-17_21h07.04.168,continuous_performance_test,2024.2.4,Linux x86_64,59.52380952,102.3335,103.8796,space,1,0.3601,,0,17,17,15,1,P,space,,,,,,,,,,
,,,,,R_7J8K08GR5P7O9BA,001,2025-08-17_21h07.04.168,continuous_performance_test,2024.2.4,Linux x86_64,59.52380952,103.8836,105.7294,space,1,0.3363,,0,18,18,13,1,N,space,,,,,,,,,,
,,,,,R_7J8K08GR5P7O9BA,001,2025-08-17_21h07.04.168,continuous_performance_test,2024.2.4,Linux x86_64,59.52380952,105.7336,107.7288,space,1,0.3115,,0,19,19,17,1,R,space,,,,,,,,,,
,,,,,R_7J8K08GR5P7O9BA,001,2025-08-17_21h07.04.168,continuous_performance_test,2024.2.4,Linux x86_64,59.52380952,107.7331,109.4284,space,1,0.2832,,0,20,20,0,1,A,space,,,,,,,,,,
,,,,,R_7J8K08GR5P7O9BA,001,2025-08-17_21h07.04.168,continuous_performance_test,2024.2.4,Linux x86_64,59.52380952,109.4328,111.4282,space,1,0.2962,,0,21,21,2,1,C,space,,,,,,,,,,
,,,,,R_7J8K08GR5P7O9BA,001,2025-08-17_21h07.04.168,continuous_performance_test,2024.2.4,Linux x86_64,59.52380952,111.4317,113.0795,space,1,0.3325,,0,22,22,20,1,U,space,,,,,,,,,,
,,,,,R_7J8K08GR5P7O9BA,001,2025-08-17_21h07.04.168,continuous_performance_test,2024.2.4,Linux x86_64,59.52380952,113.0832,114.678,space,1,0.2663,,0,23,23,8,1,I,space,,,,,,,,,,
,,,,,R_7J8K08GR5P7O9BA,001,2025-08-17_21h07.04.168,continuous_performance_test,2024.2.4,Linux x86_64,59.52380952,114.6813,116.5779,space,1,0.2794,,0,24,24,1,1,B,space,,,,,,,,,,
,,,,,R_7J8K08GR5P7O9BA,001,2025-08-17_21h07.04.168,continuous_performance_test,2024.2.4,Linux x86_64,59.52380952,116.5834,118.3273,space,1,0.2991,,0,25,25,12,1,M,space,,,,,,,,,,
,,,,,R_7J8K08GR5P7O9BA,001,2025-08-17_21h07.04.168,continuous_performance_test,2024.2.4,Linux x86_64,59.52380952,118.3313,120.1276,space,1,0.2639,,0,26,26,21,1,V,space,,,,,,,,,,
,,,,,R_7J8K08GR5P7O9BA,001,2025-08-17_21h07.04.168,continuous_performance_test,2024.2.4,Linux x86_64,59.52380952,120.131,121.9771,space,1,0.2568,,0,27,27,11,1,L,space,,,,,,,,,,
,,,,,R_7J8K08GR5P7O9BA,001,2025-08-17_21h07.04.168,continuous_performance_test,2024.2.4,Linux x86_64,59.52380952,121.9807,123.9766,space,1,0.2467,,0,28,28,4,1,E,space,,,,,,,,,,
,,,,,R_7J8K08GR5P7O9BA,001,2025-08-17_21h07.04.168,continuous_performance_test,2024.2.4,Linux x86_64,59.52380952,123.9822,125.826,space,1,0.3303,,0,29,29,16,1,Q,space,,,,,,,,,,
,,,,,R_7J8K08GR5P7O9BA,001,2025-08-17_21h07.04.168,continuous_performance_test,2024.2.4,Linux x86_64,59.52380952,128.6284,130.5763,space,1,0.2859,,0,0,0,16,1,Q,space,125.8271,128.6101,space,2.7612,,,,,,
,,,,,R_7J8K08GR5P7O9BA,001,2025-08-17_21h07.04.168,continuous_performance_test,2024.2.4,Linux x86_64,59.52380952,130.5807,132.5766,space,1,0.2863,,0,1,1,0,1,A,space,,,,,,,,,,
,,,,,R_7J8K08GR5P7O9BA,001,2025-08-17_21h07.04.168,continuous_performance_test,2024.2.4,Linux x86_64,59.52380952,132.5798,134.3757,space,1,0.2965,,0,2,2,2,1,C,space,,,,,,,,,,
,,,,,R_7J8K08GR5P7O9BA,001,2025-08-17_21h07.04.168,continuous_performance_test,2024.2.4,Linux x86_64,59.52380952,134.3807,136.3269,space,1,0.2874,,0,3,3,23,1,Y,space,,,,,,,,,,
,,,,,R_7J8K08GR5P7O9BA,001,2025-08-17_21h07.04.168,continuous_performance_test,2024.2.4,Linux x86_64,59.52380952,136.3306,138.126,space,1,0.2503,,0,4,4,11,1,L,space,,,,,,,,,,
,,,,,R_7J8K08GR5P7O9BA,001,2025-08-17_21h07.04.168,continuous_performance_test,2024.2.4,Linux x86_64,59.52380952,138.1298,139.9752,space,1,0.263,,0,5,5,18,1,S,space,,,,,,,,,,
,,,,,R_7J8K08GR5P7O9BA,001,2025-08-17_21h07.04.168,continuous_performance_test,2024.2.4,Linux x86_64,59.52380952,139.9797,141.6756,space,1,0.2687,,0,6,6,15,1,P,space,,,,,,,,,,
,,,,,R_7J8K08GR5P7O9BA,001,2025-08-17_21h07.04.168,continuous_performance_test,2024.2.4,Linux x86_64,59.52380952,141.6789,143.2768,space,1,0.3307,,0,7,7,22,1,W,space,,,,,,,,,,
,,,,,R_7J8K08GR5P7O9BA,001,2025-08-17_21h07.04.168,continuous_performance_test,2024.2.4,Linux x86_64,59.52380952,143.2813,145.0245,space,1,0.2771,,0,8,8,5,1,F,space,,,,,,,,,,
,,,,,R_7J8K08GR5P7O9BA,001,2025-08-17_21h07.04.168,continuous_performance_test,2024.2.4,Linux x86_64,59.52380952,145.0278,146.7243,space,1,0.3301,,0,9,9,24,1,Z,space,,,,,,,,,,
,,,,,R_7J8K08GR5P7O9BA,001,2025-08-17_21h07.04.168,continuous_performance_test,2024.2.4,Linux x86_64,59.52380952,146.7278,148.4246,space,1,0.2978,,0,10,10,17,1,R,space,,,,,,,,,,
,,,,,R_7J8K08GR5P7O9BA,001,2025-08-17_21h07.04.168,continuous_performance_test,2024.2.4,Linux x86_64,59.52380952,148.4279,150.0236,space,0,0.311,,0,11,11,25,1,X,,,,,,,,,,,
,,,,,R_7J8K08GR5P7O9BA,001,2025-08-17_21h07.04.168,continuous_performance_test,2024.2.4,Linux x86_64,59.52380952,150.0259,151.8236,space,1,0.3559,,0,12,12,12,1,M,space,,,,,,,,,,
,,,,,R_7J8K08GR5P7O9BA,001,2025-08-17_21h07.04.168,continuous_performance_test,2024.2.4,Linux x86_64,59.52380952,151.828,153.3729,space,1,0.2791,,0,13,13,3,1,D,space,,,,,,,,,,
,,,,,R_7J8K08GR5P7O9BA,001,2025-08-17_21h07.04.168,continuous_performance_test,2024.2.4,Linux x86_64,59.52380952,153.3755,155.3229,space,1,0.2634,,0,14,14,14,1,O,space,,,,,,,,,,
,,,,,R_7J8K08GR5P7O9BA,001,2025-08-17_21h07.04.168,continuous_performance_test,2024.2.4,Linux x86_64,59.52380952,155.3251,156.9229,space,1,0.3479,,0,15,15,13,1,N,space,,,,,,,,,,
,,,,,R_7J8K08GR5P7O9BA,001,2025-08-17_21h07.04.168,continuous_performance_test,2024.2.4,Linux x86_64,59.52380952,156.9275,158.6733,space,0,0.2637,,0,16,16,27,1,X,,,,,,,,,,,
,,,,,R_7J8K08GR5P7O9BA,001,2025-08-17_21h07.04.168,continuous_performance_test,2024.2.4,Linux x86_64,59.52380952,158.6782,160.3721,space,1,0.4349,,0,17,17,9,1,J,space,,,,,,,,,,
,,,,,R_7J8K08GR5P7O9BA,001,2025-08-17_21h07.04.168,continuous_performance_test,2024.2.4,Linux x86_64,59.52380952,160.3762,161.9718,space,1,0.2817,,0,18,18,20,1,U,space,,,,,,,,,,
,,,,,R_7J8K08GR5P7O9BA,001,2025-08-17_21h07.04.168,continuous_performance_test,2024.2.4,Linux x86_64,59.52380952,161.9786,163.572,,1,,,0,19,19,29,1,X,,,,,,,,,,,
,,,,,R_7J8K08GR5P7O9BA,001,2025-08-17_21h07.04.168,continuous_performance_test,2024.2.4,Linux x86_64,59.52380952,163.5769,165.5229,space,1,0.2759,,0,20,20,19,1,T,space,,,,,,,,,,
,,,,,R_7J8K08GR5P7O9BA,001,2025-08-17_21h07.04.168,continuous_performance_test,2024.2.4,Linux x86_64,59.52380952,165.5262,167.0726,space,1,0.3339,,0,21,21,21,1,V,space,,,,,,,,,,
,,,,,R_7J8K08GR5P7O9BA,001,2025-08-17_21h07.04.168,continuous_performance_test,2024.2.4,Linux x86_64,59.52380952,167.076,168.8217,space,1,0.49,,0,22,22,10,1,K,space,,,,,,,,,,
,,,,,R_7J8K08GR5P7O9BA,001,2025-08-17_21h07.04.168,continuous_performance_test,2024.2.4,Linux x86_64,59.52380952,168.8258,170.4713,,1,,,0,23,23,26,1,X,,,,,,,,,,,
,,,,,R_7J8K08GR5P7O9BA,001,2025-08-17_21h07.04.168,continuous_performance_test,2024.2.4,Linux x86_64,59.52380952,170.4752,172.2715,space,1,0.3308,,0,24,24,4,1,E,space,,,,,,,,,,
,,,,,R_7J8K08GR5P7O9BA,001,2025-08-17_21h07.04.168,continuous_performance_test,2024.2.4,Linux x86_64,59.52380952,172.2754,173.9207,space,1,0.3663,,0,25,25,6,1,G,space,,,,,,,,,,
,,,,,R_7J8K08GR5P7O9BA,001,2025-08-17_21h07.04.168,continuous_performance_test,2024.2.4,Linux x86_64,59.52380952,173.9242,175.4716,space,1,0.3323,,0,26,26,8,1,I,space,,,,,,,,,,
,,,,,R_7J8K08GR5P7O9BA,001,2025-08-17_21h07.04.168,continuous_performance_test,2024.2.4,Linux x86_64,59.52380952,175.4753,177.0629,space,1,0.3011,,0,27,27,1,1,B,space,,,,,,,,,,
,,,,,R_7J8K08GR5P7O9BA,001,2025-08-17_21h07.04.168,continuous_performance_test,2024.2.4,Linux x86_64,59.52380952,177.0652,178.9533,space,1,0.3495,,0,28,28,7,1,H,space,,,,,,,,,,
,,,,,R_7J8K08GR5P7O9BA,001,2025-08-17_21h07.04.168,continuous_performance_test,2024.2.4,Linux x86_64,59.52380952,178.9574,180.7029,space,0,0.2977,,0,29,29,28,1,X,,,,,,,,,,,
,,,,,R_7J8K08GR5P7O9BA,001,2025-08-17_21h07.04.168,continuous_performance_test,2024.2.4,Linux x86_64,59.52380952,181.2754,183.169,space,1,0.2922,,0,0,0,15,1,P,space,180.7071,181.2552,space,0.5233,,,,,,
,,,,,R_7J8K08GR5P7O9BA,001,2025-08-17_21h07.04.168,continuous_performance_test,2024.2.4,Linux x86_64,59.52380952,183.1735,184.8698,space,1,0.4323,,0,1,1,22,1,W,space,,,,,,,,,,
,,,,,R_7J8K08GR5P7O9BA,001,2025-08-17_21h07.04.168,continuous_performance_test,2024.2.4,Linux x86_64,59.52380952,184.877,186.4695,space,1,0.3584,,0,2,2,8,1,I,space,,,,,,,,,,
,,,,,R_7J8K08GR5P7O9BA,001,2025-08-17_21h07.04.168,continuous_performance_test,2024.2.4,Linux x86_64,59.52380952,186.4734,188.3183,space,0,0.4022,,0,3,3,29,1,X,,,,,,,,,,,
,,,,,R_7J8K08GR5P7O9BA,001,2025-08-17_21h07.04.168,continuous_performance_test,2024.2.4,Linux x86_64,59.52380952,188.3213,190.3187,space,1,0.246,,0,4,4,2,1,C,space,,,,,,,,,,
,,,,,R_7J8K08GR5P7O9BA,001,2025-08-17_21h07.04.168,continuous_performance_test,2024.2.4,Linux x86_64,59.52380952,190.3219,192.2176,space,1,0.2312,,0,5,5,17,1,R,space,,,,,,,,,,
,,,,,R_7J8K08GR5P7O9BA,001,2025-08-17_21h07.04.168,continuous_performance_test,2024.2.4,Linux x86_64,59.52380952,192.2211,194.1681,space,1,0.2791,,0,6,6,7,1,H,space,,,,,,,,,,
,,,,,R_7J8K08GR5P7O9BA,001,2025-08-17_21h07.04.168,continuous_performance_test,2024.2.4,Linux x86_64,59.52380952,194.1712,195.7173,space,1,0.351,,0,7,7,24,1,Z,space,,,,,,,,,,
,,,,,R_7J8K08GR5P7O9BA,001,2025-08-17_21h07.04.168,continuous_performance_test,2024.2.4,Linux x86_64,59.52380952,195.7215,197.5174,,1,,,0,8,8,28,1,X,,,,,,,,,,,
,,,,,R_7J8K08GR5P7O9BA,001,2025-08-17_21h07.04.168,continuous_performance_test,2024.2.4,Linux x86_64,59.52380952,197.5213,199.518,space,1,0.2639,,0,9,9,23,1,Y,space,,,,,,,,,,
,,,,,R_7J8K08GR5P7O9BA,001,2025-08-17_21h07.04.168,continuous_performance_test,2024.2.4,Linux x86_64,59.52380952,199.5214,201.2169,space,1,0.2636,,0,10,10,0,1,A,space,,,,,,,,,,
,,,,,R_7J8K08GR5P7O9BA,001,2025-08-17_21h07.04.168,continuous_performance_test,2024.2.4,Linux x86_64,59.52380952,201.2201,203.2162,space,1,0.2587,,0,11,11,19,1,T,space,,,,,,,,,,
,,,,,R_7J8K08GR5P7O9BA,001,2025-08-17_21h07.04.168,continuous_performance_test,2024.2.4,Linux x86_64,59.52380952,203.2195,205.0662,space,1,0.3436,,0,12,12,1,1,B,space,,,,,,,,,,
,,,,,R_7J8K08GR5P7O9BA,001,2025-08-17_21h07.04.168,continuous_performance_test,2024.2.4,Linux x86_64,59.52380952,205.0696,206.7159,space,1,0.3158,,0,13,13,5,1,F,space,,,,,,,,,,
,,,,,R_7J8K08GR5P7O9BA,001,2025-08-17_21h07.04.168,continuous_performance_test,2024.2.4,Linux x86_64,59.52380952,206.7207,208.3158,space,1,0.2981,,0,14,14,11,1,L,space,,,,,,,,,,
,,,,,R_7J8K08GR5P7O9BA,001,2025-08-17_21h07.04.168,continuous_performance_test,2024.2.4,Linux x86_64,59.52380952,208.3193,209.9165,space,1,0.2803,,0,15,15,20,1,U,space,,,,,,,,,,
,,,,,R_7J8K08GR5P7O9BA,001,2025-08-17_21h07.04.168,continuous_performance_test,2024.2.4,Linux x86_64,59.52380952,209.9205,211.515,space,1,0.2817,,0,16,16,16,1,Q,space,,,,,,,,,,
,,,,,R_7J8K08GR5P7O9BA,001,2025-08-17_21h07.04.168,continuous_performance_test,2024.2.4,Linux x86_64,59.52380952,211.5163,213.3653,space,1,0.2802,,0,17,17,14,1,O,space,,,,,,,,,,
,,,,,R_7J8K08GR5P7O9BA,001,2025-08-17_21h07.04.168,continuous_performance_test,2024.2.4,Linux x86_64,59.52380952,213.3683,215.1656,space,0,0.2484,,0,18,18,27,1,X,,,,,,,,,,,
,,,,,R_7J8K08GR5P7O9BA,001,2025-08-17_21h07.04.168,continuous_performance_test,2024.2.4,Linux x86_64,59.52380952,215.1687,216.7646,space,1,0.427,,0,19,19,13,1,N,space,,,,,,,,,,
,,,,,R_7J8K08GR5P7O9BA,001,2025-08-17_21h07.04.168,continuous_performance_test,2024.2.4,Linux x86_64,59.52380952,216.7666,218.4644,space,1,0.2747,,0,20,20,12,1,M,space,,,,,,,,,,
,,,,,R_7J8K08GR5P7O9BA,001,2025-08-17_21h07.04.168,continuous_performance_test,2024.2.4,Linux x86_64,59.52380952,218.469,220.3143,,1,,,0,21,21,25,1,X,,,,,,,,,,,
,,,,,R_7J8K08GR5P7O9BA,001,2025-08-17_21h07.04.168,continuous_performance_test,2024.2.4,Linux x86_64,59.52380952,220.3176,222.1711,space,1,0.245,,0,22,22,9,1,J,space,,,,,,,,,,
,,,,,R_7J8K08GR5P7O9BA,001,2025-08-17_21h07.04.168,continuous_performance_test,2024.2.4,Linux x86_64,59.52380952,222.1743,224.1137,space,1,0.3144,,0,23,23,6,1,G,space,,,,,,,,,,
,,,,,R_7J8K08GR5P7O9BA,001,2025-08-17_21h07.04.168,continuous_performance_test,2024.2.4,Linux x86_64,59.52380952,224.116,225.9142,space,1,0.2842,,0,24,24,4,1,E,space,,,,,,,,,,
,,,,,R_7J8K08GR5P7O9BA,001,2025-08-17_21h07.04.168,continuous_performance_test,2024.2.4,Linux x86_64,59.52380952,225.9187,227.6642,space,1,0.3269,,0,25,25,3,1,D,space,,,,,,,,,,
,,,,,R_7J8K08GR5P7O9BA,001,2025-08-17_21h07.04.168,continuous_performance_test,2024.2.4,Linux x86_64,59.52380952,227.6681,229.3639,space,1,0.2841,,0,26,26,21,1,V,space,,,,,,,,,,
,,,,,R_7J8K08GR5P7O9BA,001,2025-08-17_21h07.04.168,continuous_performance_test,2024.2.4,Linux x86_64,59.52380952,229.3673,231.0633,space,1,0.3187,,0,27,27,18,1,S,space,,,,,,,,,,
,,,,,R_7J8K08GR5P7O9BA,001,2025-08-17_21h07.04.168,continuous_performance_test,2024.2.4,Linux x86_64,59.52380952,231.0676,232.917,space,0,0.3132,,0,28,28,26,1,X,,,,,,,,,,,
,,,,,R_7J8K08GR5P7O9BA,001,2025-08-17_21h07.04.168,continuous_performance_test,2024.2.4,Linux x86_64,59.52380952,232.9218,234.4627,space,1,0.3969,,0,29,29,10,1,K,space,,,,,,,,,,
,,,,,R_7J8K08GR5P7O9BA,001,2025-08-17_21h07.04.168,continuous_performance_test,2024.2.4,Linux x86_64,59.52380952,235.0133,236.7628,space,0,0.3146,,0,0,0,29,1,X,,234.466,234.9989,space,0.5094,,,,,,
,,,,,R_7J8K08GR5P7O9BA,001,2025-08-17_21h07.04.168,continuous_performance_test,2024.2.4,Linux x86_64,59.52380952,236.7659,238.6628,space,1,0.2515,,0,1,1,5,1,F,space,,,,,,,,,,
,,,,,R_7J8K08GR5P7O9BA,001,2025-08-17_21h07.04.168,continuous_performance_test,2024.2.4,Linux x86_64,59.52380952,238.6671,240.412,space,1,0.287,,0,2,2,8,1,I,space,,,,,,,,,,
,,,,,R_7J8K08GR5P7O9BA,001,2025-08-17_21h07.04.168,continuous_performance_test,2024.2.4,Linux x86_64,59.52380952,240.4152,242.0122,space,1,0.2796,,0,3,3,24,1,Z,space,,,,,,,,,,
,,,,,R_7J8K08GR5P7O9BA,001,2025-08-17_21h07.04.168,continuous_performance_test,2024.2.4,Linux x86_64,59.52380952,242.0153,243.5625,space,1,0.3646,,0,4,4,23,1,Y,space,,,,,,,,,,
,,,,,R_7J8K08GR5P7O9BA,001,2025-08-17_21h07.04.168,continuous_performance_test,2024.2.4,Linux x86_64,59.52380952,243.5643,245.3115,,1,,,0,5,5,25,1,X,,,,,,,,,,,
,,,,,R_7J8K08GR5P7O9BA,001,2025-08-17_21h07.04.168,continuous_performance_test,2024.2.4,Linux x86_64,59.52380952,245.316,247.1616,space,1,0.2618,,0,6,6,11,1,L,space,,,,,,,,,,
,,,,,R_7J8K08GR5P7O9BA,001,2025-08-17_21h07.04.168,continuous_performance_test,2024.2.4,Linux x86_64,59.52380952,247.1656,249.0604,space,0,0.2627,,0,7,7,27,1,X,,,,,,,,,,,
,,,,,R_7J8K08GR5P7O9BA,001,2025-08-17_21h07.04.168,continuous_performance_test,2024.2.4,Linux x86_64,59.52380952,249.0631,251.0103,space,1,0.3303,,0,8,8,6,1,G,space,,,,,,,,,,
,,,,,R_7J8K08GR5P7O9BA,001,2025-08-17_21h07.04.168,continuous_performance_test,2024.2.4,Linux x86_64,59.52380952,251.0156,252.5607,space,1,0.2388,,0,9,9,4,1,E,space,,,,,,,,,,
,,,,,R_7J8K08GR5P7O9BA,001,2025-08-17_21h07.04.168,continuous_performance_test,2024.2.4,Linux x86_64,59.52380952,252.5652,254.5596,space,1,0.3285,,0,10,10,16,1,Q,space,,,,,,,,,,
,,,,,R_7J8K08GR5P7O9BA,001,2025-08-17_21h07.04.168,continuous_performance_test,2024.2.4,Linux x86_64,59.52380952,254.5611,256.2602,space,1,0.3337,,0,11,11,9,1,J,space,,,,,,,,,,
,,,,,R_7J8K08GR5P7O9BA,001,2025-08-17_21h07.04.168,continuous_performance_test,2024.2.4,Linux x86_64,59.52380952,256.2645,258.0598,,1,,,0,12,12,26,1,X,,,,,,,,,,,
,,,,,R_7J8K08GR5P7O9BA,001,2025-08-17_21h07.04.168,continuous_performance_test,2024.2.4,Linux x86_64,59.52380952,258.0641,259.9598,space,1,0.2449,,0,13,13,1,1,B,space,,,,,,,,,,
,,,,,R_7J8K08GR5P7O9BA,001,2025-08-17_21h07.04.168,continuous_performance_test,2024.2.4,Linux x86_64,59.52380952,259.9648,261.7593,space,1,0.2518,,0,14,14,3,1,D,space,,,,,,,,,,
,,,,,R_7J8K08GR5P7O9BA,001,2025-08-17_21h07.04.168,continuous_performance_test,2024.2.4,Linux x86_64,59.52380952,261.7626,263.4091,space,1,0.2698,,0,15,15,7,1,H,space,,,,,,,,,,
,,,,,R_7J8K08GR5P7O9BA,001,2025-08-17_21h07.04.168,continuous_performance_test,2024.2.4,Linux x86_64,59.52380952,263.4133,265.2097,space,1,0.3328,,0,16,16,21,1,V,space,,,,,,,,,,
,,,,,R_7J8K08GR5P7O9BA,001,2025-08-17_21h07.04.168,continuous_performance_test,2024.2.4,Linux x86_64,59.52380952,265.2145,266.8595,space,1,0.3445,,0,17,17,18,1,S,space,,,,,,,,,,
,,,,,R_7J8K08GR5P7O9BA,001,2025-08-17_21h07.04.168,continuous_performance_test,2024.2.4,Linux x86_64,59.52380952,266.863,268.7584,space,1,0.3539,,0,18,18,0,1,A,space,,,,,,,,,,
,,,,,R_7J8K08GR5P7O9BA,001,2025-08-17_21h07.04.168,continuous_performance_test,2024.2.4,Linux x86_64,59.52380952,268.7616,270.7081,space,1,0.3716,,0,19,19,17,1,R,space,,,,,,,,,,
,,,,,R_7J8K08GR5P7O9BA,001,2025-08-17_21h07.04.168,continuous_performance_test,2024.2.4,Linux x86_64,59.52380952,270.7112,272.558,space,1,0.2784,,0,20,20,12,1,M,space,,,,,,,,,,
,,,,,R_7J8K08GR5P7O9BA,001,2025-08-17_21h07.04.168,continuous_performance_test,2024.2.4,Linux x86_64,59.52380952,272.561,274.2083,space,1,0.3822,,0,21,21,22,1,W,space,,,,,,,,,,
,,,,,R_7J8K08GR5P7O9BA,001,2025-08-17_21h07.04.168,continuous_performance_test,2024.2.4,Linux x86_64,59.52380952,274.212,276.1584,space,1,0.3194,,0,22,22,10,1,K,space,,,,,,,,,,
,,,,,R_7J8K08GR5P7O9BA,001,2025-08-17_21h07.04.168,continuous_performance_test,2024.2.4,Linux x86_64,59.52380952,276.1621,277.7571,space,1,0.3158,,0,23,23,2,1,C,space,,,,,,,,,,
,,,,,R_7J8K08GR5P7O9BA,001,2025-08-17_21h07.04.168,continuous_performance_test,2024.2.4,Linux x86_64,59.52380952,277.7611,279.4577,space,1,0.3045,,0,24,24,14,1,O,space,,,,,,,,,,
,,,,,R_7J8K08GR5P7O9BA,001,2025-08-17_21h07.04.168,continuous_performance_test,2024.2.4,Linux x86_64,59.52380952,279.4609,281.3073,space,1,0.2962,,0,25,25,15,1,P,space,,,,,,,,,,
,,,,,R_7J8K08GR5P7O9BA,001,2025-08-17_21h07.04.168,continuous_performance_test,2024.2.4,Linux x86_64,59.52380952,281.3107,283.2066,space,1,0.3258,,0,26,26,20,1,U,space,,,,,,,,,,
,,,,,R_7J8K08GR5P7O9BA,001,2025-08-17_21h07.04.168,continuous_performance_test,2024.2.4,Linux x86_64,59.52380952,283.2094,284.9587,space,1,0.3809,,0,27,27,19,1,T,space,,,,,,,,,,
,,,,,R_7J8K08GR5P7O9BA,001,2025-08-17_21h07.04.168,continuous_performance_test,2024.2.4,Linux x86_64,59.52380952,284.962,286.9069,space,1,0.3138,,0,28,28,13,1,N,space,,,,,,,,,,
,,,,,R_7J8K08GR5P7O9BA,001,2025-08-17_21h07.04.168,continuous_performance_test,2024.2.4,Linux x86_64,59.52380952,286.9109,288.6562,,1,,,0,29,29,28,1,X,,,,,,,,,,,
,,,,,R_7J8K08GR5P7O9BA,001,2025-08-17_21h07.04.168,continuous_performance_test,2024.2.4,Linux x86_64,59.52380952,289.1259,290.6719,space,1,0.3939,,0,0,0,5,1,F,space,288.6594,289.1055,space,0.4243,,,,,,
,,,,,R_7J8K08GR5P7O9BA,001,2025-08-17_21h07.04.168,continuous_performance_test,2024.2.4,Linux x86_64,59.52380952,290.6752,292.4716,space,0,0.2779,,0,1,1,29,1,X,,,,,,,,,,,
,,,,,R_7J8K08GR5P7O9BA,001,2025-08-17_21h07.04.168,continuous_performance_test,2024.2.4,Linux x86_64,59.52380952,292.4748,294.3713,space,1,0.2141,,0,2,2,22,1,W,space,,,,,,,,,,
,,,,,R_7J8K08GR5P7O9BA,001,2025-08-17_21h07.04.168,continuous_performance_test,2024.2.4,Linux x86_64,59.52380952,294.3759,296.3711,space,1,0.2482,,0,3,3,0,1,A,space,,,,,,,,,,
,,,,,R_7J8K08GR5P7O9BA,001,2025-08-17_21h07.04.168,continuous_performance_test,2024.2.4,Linux x86_64,59.52380952,296.3742,297.9709,space,1,0.287,,0,4,4,19,1,T,space,,,,,,,,,,
,,,,,R_7J8K08GR5P7O9BA,001,2025-08-17_21h07.04.168,continuous_performance_test,2024.2.4,Linux x86_64,59.52380952,297.9738,299.6214,,1,,,0,5,5,26,1,X,,,,,,,,,,,
,,,,,R_7J8K08GR5P7O9BA,001,2025-08-17_21h07.04.168,continuous_performance_test,2024.2.4,Linux x86_64,59.52380952,299.6256,301.5205,space,1,0.2322,,0,6,6,18,1,S,space,,,,,,,,,,
,,,,,R_7J8K08GR5P7O9BA,001,2025-08-17_21h07.04.168,continuous_performance_test,2024.2.4,Linux x86_64,59.52380952,301.5242,303.07,space,1,0.3144,,0,7,7,3,1,D,space,,,,,,,,,,
,,,,,R_7J8K08GR5P7O9BA,001,2025-08-17_21h07.04.168,continuous_performance_test,2024.2.4,Linux x86_64,59.52380952,303.0713,304.6701,space,1,0.2861,,0,8,8,16,1,Q,space,,,,,,,,,,
,,,,,R_7J8K08GR5P7O9BA,001,2025-08-17_21h07.04.168,continuous_performance_test,2024.2.4,Linux x86_64,59.52380952,304.6729,306.2705,space,1,0.2005,,0,9,9,15,1,P,space,,,,,,,,,,
,,,,,R_7J8K08GR5P7O9BA,001,2025-08-17_21h07.04.168,continuous_performance_test,2024.2.4,Linux x86_64,59.52380952,306.275,307.8697,space,1,0.2649,,0,10,10,13,1,N,space,,,,,,,,,,
,,,,,R_7J8K08GR5P7O9BA,001,2025-08-17_21h07.04.168,continuous_performance_test,2024.2.4,Linux x86_64,59.52380952,307.8734,309.4196,space,1,0.2854,,0,11,11,4,1,E,space,,,,,,,,,,
,,,,,R_7J8K08GR5P7O9BA,001,2025-08-17_21h07.04.168,continuous_performance_test,2024.2.4,Linux x86_64,59.52380952,309.4233,311.3192,space,1,0.2647,,0,12,12,10,1,K,space,,,,,,,,,,
,,,,,R_7J8K08GR5P7O9BA,001,2025-08-17_21h07.04.168,continuous_performance_test,2024.2.4,Linux x86_64,59.52380952,311.3235,313.2193,space,0,0.2482,,0,13,13,27,1,X,,,,,,,,,,,
,,,,,R_7J8K08GR5P7O9BA,001,2025-08-17_21h07.04.168,continuous_performance_test,2024.2.4,Linux x86_64,59.52380952,313.2212,314.8688,space,0,0.3901,,0,14,14,28,1,X,,,,,,,,,,,
,,,,,R_7J8K08GR5P7O9BA,001,2025-08-17_21h07.04.168,continuous_performance_test,2024.2.4,Linux x86_64,59.52380952,314.8718,316.4691,space,1,0.6815,,0,15,15,12,1,M,space,,,,,,,,,,
,,,,,R_7J8K08GR5P7O9BA,001,2025-08-17_21h07.04.168,continuous_performance_test,2024.2.4,Linux x86_64,59.52380952,316.4723,318.219,space,1,0.2951,,0,16,16,7,1,H,space,,,,,,,,,,
,,,,,R_7J8K08GR5P7O9BA,001,2025-08-17_21h07.04.168,continuous_performance_test,2024.2.4,Linux x86_64,59.52380952,318.2225,319.818,space,1,0.3102,,0,17,17,24,1,Z,space,,,,,,,,,,
,,,,,R_7J8K08GR5P7O9BA,001,2025-08-17_21h07.04.168,continuous_performance_test,2024.2.4,Linux x86_64,59.52380952,319.8212,321.5179,space,1,0.2972,,0,18,18,1,1,B,space,,,,,,,,,,
,,,,,R_7J8K08GR5P7O9BA,001,2025-08-17_21h07.04.168,continuous_performance_test,2024.2.4,Linux x86_64,59.52380952,321.5209,323.1175,space,1,0.2649,,0,19,19,11,1,L,space,,,,,,,,,,
,,,,,R_7J8K08GR5P7O9BA,001,2025-08-17_21h07.04.168,continuous_performance_test,2024.2.4,Linux x86_64,59.52380952,323.1207,324.6687,space,1,0.3142,,0,20,20,6,1,G,space,,,,,,,,,,
,,,,,R_7J8K08GR5P7O9BA,001,2025-08-17_21h07.04.168,continuous_performance_test,2024.2.4,Linux x86_64,59.52380952,324.6733,326.6172,space,0,0.2749,,0,21,21,25,1,X,,,,,,,,,,,
,,,,,R_7J8K08GR5P7O9BA,001,2025-08-17_21h07.04.168,continuous_performance_test,2024.2.4,Linux x86_64,59.52380952,326.621,328.2172,space,1,0.312,,0,22,22,9,1,J,space,,,,,,,,,,
,,,,,R_7J8K08GR5P7O9BA,001,2025-08-17_21h07.04.168,continuous_performance_test,2024.2.4,Linux x86_64,59.52380952,328.2214,330.2168,space,1,0.3293,,0,23,23,2,1,C,space,,,,,,,,,,
,,,,,R_7J8K08GR5P7O9BA,001,2025-08-17_21h07.04.168,continuous_performance_test,2024.2.4,Linux x86_64,59.52380952,330.2194,331.8166,space,1,0.3199,,0,24,24,23,1,Y,space,,,,,,,,,,
,,,,,R_7J8K08GR5P7O9BA,001,2025-08-17_21h07.04.168,continuous_performance_test,2024.2.4,Linux x86_64,59.52380952,331.8211,333.5686,space,1,0.2624,,0,25,25,20,1,U,space,,,,,,,,,,
,,,,,R_7J8K08GR5P7O9BA,001,2025-08-17_21h07.04.168,continuous_performance_test,2024.2.4,Linux x86_64,59.52380952,333.5726,335.2164,space,1,0.2979,,0,26,26,21,1,V,space,,,,,,,,,,
,,,,,R_7J8K08GR5P7O9BA,001,2025-08-17_21h07.04.168,continuous_performance_test,2024.2.4,Linux x86_64,59.52380952,335.2202,337.1165,space,1,0.2839,,0,27,27,8,1,I,space,,,,,,,,,,
,,,,,R_7J8K08GR5P7O9BA,001,2025-08-17_21h07.04.168,continuous_performance_test,2024.2.4,Linux x86_64,59.52380952,337.1201,338.9155,space,1,0.2797,,0,28,28,17,1,R,space,,,,,,,,,,
,,,,,R_7J8K08GR5P7O9BA,001,2025-08-17_21h07.04.168,continuous_performance_test,2024.2.4,Linux x86_64,59.52380952,338.9194,340.5159,space,1,0.2578,,0,29,29,14,1,O,space,,,,,,,,,,
,,,,,R_7J8K08GR5P7O9BA,001,2025-08-17_21h07.04.168,continuous_performance_test,2024.2.4,Linux x86_64,59.52380952,340.7668,342.3652,space,1,0.2708,,0,0,0,21,1,V,space,340.5195,340.7528,space,0.2134,,,,,,
,,,,,R_7J8K08GR5P7O9BA,001,2025-08-17_21h07.04.168,continuous_performance_test,2024.2.4,Linux x86_64,59.52380952,342.3695,344.2152,space,1,0.2622,,0,1,1,19,1,T,space,,,,,,,,,,
,,,,,R_7J8K08GR5P7O9BA,001,2025-08-17_21h07.04.168,continuous_performance_test,2024.2.4,Linux x86_64,59.52380952,344.2194,345.765,,1,,,0,2,2,25,1,X,,,,,,,,,,,
,,,,,R_7J8K08GR5P7O9BA,001,2025-08-17_21h07.04.168,continuous_performance_test,2024.2.4,Linux x86_64,59.52380952,345.7698,347.5151,space,1,0.2327,,0,3,3,16,1,Q,space,,,,,,,,,,
,,,,,R_7J8K08GR5P7O9BA,001,2025-08-17_21h07.04.168,continuous_performance_test,2024.2.4,Linux x86_64,59.52380952,347.5191,349.5144,space,1,0.252,,0,4,4,14,1,O,space,,,,,,,,,,
,,,,,R_7J8K08GR5P7O9BA,001,2025-08-17_21h07.04.168,continuous_performance_test,2024.2.4,Linux x86_64,59.52380952,349.518,351.464,space,0,0.2521,,0,5,5,26,1,X,,,,,,,,,,,
,,,,,R_7J8K08GR5P7O9BA,001,2025-08-17_21h07.04.168,continuous_performance_test,2024.2.4,Linux x86_64,59.52380952,351.4678,353.2144,space,1,0.2625,,0,6,6,6,1,G,space,,,,,,,,,,
,,,,,R_7J8K08GR5P7O9BA,001,2025-08-17_21h07.04.168,continuous_performance_test,2024.2.4,Linux x86_64,59.52380952,353.2188,354.8141,space,1,0.3148,,0,7,7,9,1,J,space,,,,,,,,,,
,,,,,R_7J8K08GR5P7O9BA,001,2025-08-17_21h07.04.168,continuous_performance_test,2024.2.4,Linux x86_64,59.52380952,354.8177,356.4136,space,1,0.2738,,0,8,8,20,1,U,space,,,,,,,,,,
,,,,,R_7J8K08GR5P7O9BA,001,2025-08-17_21h07.04.168,continuous_performance_test,2024.2.4,Linux x86_64,59.52380952,356.4171,358.3631,space,1,0.2831,,0,9,9,23,1,Y,space,,,,,,,,,,
,,,,,R_7J8K08GR5P7O9BA,001,2025-08-17_21h07.04.168,continuous_performance_test,2024.2.4,Linux x86_64,59.52380952,358.3665,360.0631,space,1,0.3487,,0,10,10,11,1,L,space,,,,,,,,,,
,,,,,R_7J8K08GR5P7O9BA,001,2025-08-17_21h07.04.168,continuous_performance_test,2024.2.4,Linux x86_64,59.52380952,360.0661,361.7129,,1,,,0,11,11,27,1,X,,,,,,,,,,,
,,,,,R_7J8K08GR5P7O9BA,001,2025-08-17_21h07.04.168,continuous_performance_test,2024.2.4,Linux x86_64,59.52380952,361.7162,363.7126,space,1,0.2409,,0,12,12,18,1,S,space,,,,,,,,,,
,,,,,R_7J8K08GR5P7O9BA,001,2025-08-17_21h07.04.168,continuous_performance_test,2024.2.4,Linux x86_64,59.52380952,363.7175,365.3128,space,1,0.2819,,0,13,13,13,1,N,space,,,,,,,,,,
,,,,,R_7J8K08GR5P7O9BA,001,2025-08-17_21h07.04.168,continuous_performance_test,2024.2.4,Linux x86_64,59.52380952,365.316,366.8623,space,1,0.3488,,0,14,14,5,1,F,space,,,,,,,,,,
,,,,,R_7J8K08GR5P7O9BA,001,2025-08-17_21h07.04.168,continuous_performance_test,2024.2.4,Linux x86_64,59.52380952,366.8661,368.612,space,0,0.2791,,0,15,15,29,1,X,,,,,,,,,,,
,,,,,R_7J8K08GR5P7O9BA,001,2025-08-17_21h07.04.168,continuous_performance_test,2024.2.4,Linux x86_64,59.52380952,368.6153,370.4622,space,1,0.2436,,0,16,16,17,1,R,space,,,,,,,,,,
,,,,,R_7J8K08GR5P7O9BA,001,2025-08-17_21h07.04.168,continuous_performance_test,2024.2.4,Linux x86_64,59.52380952,370.4668,372.2615,space,1,0.2447,,0,17,17,4,1,E,space,,,,,,,,,,
,,,,,R_7J8K08GR5P7O9BA,001,2025-08-17_21h07.04.168,continuous_performance_test,2024.2.4,Linux x86_64,59.52380952,372.2659,374.2621,space,1,0.261,,0,18,18,0,1,A,space,,,,,,,,,,
,,,,,R_7J8K08GR5P7O9BA,001,2025-08-17_21h07.04.168,continuous_performance_test,2024.2.4,Linux x86_64,59.52380952,374.266,375.9619,space,1,0.3466,,0,19,19,2,1,C,space,,,,,,,,,,
,,,,,R_7J8K08GR5P7O9BA,001,2025-08-17_21h07.04.168,continuous_performance_test,2024.2.4,Linux x86_64,59.52380952,375.9656,377.5606,space,1,0.2657,,0,20,20,3,1,D,space,,,,,,,,,,
,,,,,R_7J8K08GR5P7O9BA,001,2025-08-17_21h07.04.168,continuous_performance_test,2024.2.4,Linux x86_64,59.52380952,377.5639,379.5103,space,1,0.2782,,0,21,21,12,1,M,space,,,,,,,,,,
,,,,,R_7J8K08GR5P7O9BA,001,2025-08-17_21h07.04.168,continuous_performance_test,2024.2.4,Linux x86_64,59.52380952,379.5123,381.1104,space,1,0.3799,,0,22,22,15,1,P,space,,,,,,,,,,
,,,,,R_7J8K08GR5P7O9BA,001,2025-08-17_21h07.04.168,continuous_performance_test,2024.2.4,Linux x86_64,59.52380952,381.1135,382.6599,space,1,0.302,,0,23,23,24,1,Z,space,,,,,,,,,,
,,,,,R_7J8K08GR5P7O9BA,001,2025-08-17_21h07.04.168,continuous_performance_test,2024.2.4,Linux x86_64,59.52380952,382.6633,384.31,space,1,0.3184,,0,24,24,22,1,W,space,,,,,,,,,,
,,,,,R_7J8K08GR5P7O9BA,001,2025-08-17_21h07.04.168,continuous_performance_test,2024.2.4,Linux x86_64,59.52380952,384.3137,385.9596,space,1,0.2824,,0,25,25,8,1,I,space,,,,,,,,,,
,,,,,R_7J8K08GR5P7O9BA,001,2025-08-17_21h07.04.168,continuous_performance_test,2024.2.4,Linux x86_64,59.52380952,385.9627,387.7102,,1,,,0,26,26,28,1,X,,,,,,,,,,,
,,,,,R_7J8K08GR5P7O9BA,001,2025-08-17_21h07.04.168,continuous_performance_test,2024.2.4,Linux x86_64,59.52380952,387.7145,389.7093,space,1,0.2777,,0,27,27,1,1,B,space,,,,,,,,,,
,,,,,R_7J8K08GR5P7O9BA,001,2025-08-17_21h07.04.168,continuous_performance_test,2024.2.4,Linux x86_64,59.52380952,389.7131,391.3599,space,1,0.2678,,0,28,28,10,1,K,space,,,,,,,,,,
,,,,,R_7J8K08GR5P7O9BA,001,2025-08-17_21h07.04.168,continuous_performance_test,2024.2.4,Linux x86_64,59.52380952,391.3629,393.1588,space,1,0.2298,,0,29,29,7,1,H,space,,,,,,,,,,
,,,,,R_7J8K08GR5P7O9BA,001,2025-08-17_21h07.04.168,continuous_performance_test,2024.2.4,Linux x86_64,59.52380952,393.7272,395.4761,space,1,0.3342,,0,0,0,7,1,H,space,393.1625,393.7093,space,0.5258,,,,,,
,,,,,R_7J8K08GR5P7O9BA,001,2025-08-17_21h07.04.168,continuous_performance_test,2024.2.4,Linux x86_64,59.52380952,395.48,397.225,space,1,0.2816,,0,1,1,15,1,P,space,,,,,,,,,,
,,,,,R_7J8K08GR5P7O9BA,001,2025-08-17_21h07.04.168,continuous_performance_test,2024.2.4,Linux x86_64,59.52380952,397.2284,398.8748,space,1,0.2779,,0,2,2,14,1,O,space,,,,,,,,,,
,,,,,R_7J8K08GR5P7O9BA,001,2025-08-17_21h07.04.168,continuous_performance_test,2024.2.4,Linux x86_64,59.52380952,398.8779,400.5748,space,1,0.331,,0,3,3,12,1,M,space,,,,,,,,,,
,,,,,R_7J8K08GR5P7O9BA,001,2025-08-17_21h07.04.168,continuous_performance_test,2024.2.4,Linux x86_64,59.52380952,400.5778,402.4241,space,1,0.3344,,0,4,4,17,1,R,space,,,,,,,,,,
,,,,,R_7J8K08GR5P7O9BA,001,2025-08-17_21h07.04.168,continuous_performance_test,2024.2.4,Linux x86_64,59.52380952,402.4275,404.0241,space,1,0.2983,,0,5,5,18,1,S,space,,,,,,,,,,
,,,,,R_7J8K08GR5P7O9BA,001,2025-08-17_21h07.04.168,continuous_performance_test,2024.2.4,Linux x86_64,59.52380952,404.0306,405.6737,space,1,0.3156,,0,6,6,23,1,Y,space,,,,,,,,,,
,,,,,R_7J8K08GR5P7O9BA,001,2025-08-17_21h07.04.168,continuous_performance_test,2024.2.4,Linux x86_64,59.52380952,405.6779,407.4735,space,1,0.2802,,0,7,7,6,1,G,space,,,,,,,,,,
,,,,,R_7J8K08GR5P7O9BA,001,2025-08-17_21h07.04.168,continuous_performance_test,2024.2.4,Linux x86_64,59.52380952,407.4775,409.2735,space,1,0.2859,,0,8,8,5,1,F,space,,,,,,,,,,
,,,,,R_7J8K08GR5P7O9BA,001,2025-08-17_21h07.04.168,continuous_performance_test,2024.2.4,Linux x86_64,59.52380952,409.2773,410.9731,,1,,,0,9,9,25,1,X,,,,,,,,,,,
,,,,,R_7J8K08GR5P7O9BA,001,2025-08-17_21h07.04.168,continuous_performance_test,2024.2.4,Linux x86_64,59.52380952,410.977,412.773,space,1,0.2775,,0,10,10,13,1,N,space,,,,,,,,,,
,,,,,R_7J8K08GR5P7O9BA,001,2025-08-17_21h07.04.168,continuous_performance_test,2024.2.4,Linux x86_64,59.52380952,412.7768,414.5725,space,1,0.2527,,0,11,11,21,1,V,space,,,,,,,,,,
,,,,,R_7J8K08GR5P7O9BA,001,2025-08-17_21h07.04.168,continuous_performance_test,2024.2.4,Linux x86_64,59.52380952,414.576,416.3227,space,1,0.2541,,0,12,12,16,1,Q,space,,,,,,,,,,
,,,,,R_7J8K08GR5P7O9BA,001,2025-08-17_21h07.04.168,continuous_performance_test,2024.2.4,Linux x86_64,59.52380952,416.3258,418.0723,space,1,0.2795,,0,13,13,24,1,Z,space,,,,,,,,,,
,,,,,R_7J8K08GR5P7O9BA,001,2025-08-17_21h07.04.168,continuous_performance_test,2024.2.4,Linux x86_64,59.52380952,418.0744,419.8222,space,1,0.2805,,0,14,14,22,1,W,space,,,,,,,,,,
,,,,,R_7J8K08GR5P7O9BA,001,2025-08-17_21h07.04.168,continuous_performance_test,2024.2.4,Linux x86_64,59.52380952,419.8276,421.4221,,1,,,0,15,15,26,1,X,,,,,,,,,,,
,,,,,R_7J8K08GR5P7O9BA,001,2025-08-17_21h07.04.168,continuous_performance_test,2024.2.4,Linux x86_64,59.52380952,421.4253,423.4213,space,1,0.2309,,0,16,16,11,1,L,space,,,,,,,,,,
,,,,,R_7J8K08GR5P7O9BA,001,2025-08-17_21h07.04.168,continuous_performance_test,2024.2.4,Linux x86_64,59.52380952,423.4235,425.0711,space,1,0.2439,,0,17,17,20,1,U,space,,,,,,,,,,
,,,,,R_7J8K08GR5P7O9BA,001,2025-08-17_21h07.04.168,continuous_performance_test,2024.2.4,Linux x86_64,59.52380952,425.073,426.7211,space,1,0.2508,,0,18,18,4,1,E,space,,,,,,,,,,
,,,,,R_7J8K08GR5P7O9BA,001,2025-08-17_21h07.04.168,continuous_performance_test,2024.2.4,Linux x86_64,59.52380952,426.7263,428.471,space,1,0.3651,,0,19,19,19,1,T,space,,,,,,,,,,
,,,,,R_7J8K08GR5P7O9BA,001,2025-08-17_21h07.04.168,continuous_performance_test,2024.2.4,Linux x86_64,59.52380952,428.4748,430.4713,space,1,0.2812,,0,20,20,8,1,I,space,,,,,,,,,,
,,,,,R_7J8K08GR5P7O9BA,001,2025-08-17_21h07.04.168,continuous_performance_test,2024.2.4,Linux x86_64,59.52380952,430.4756,432.0705,space,1,0.3144,,0,21,21,1,1,B,space,,,,,,,,,,
,,,,,R_7J8K08GR5P7O9BA,001,2025-08-17_21h07.04.168,continuous_performance_test,2024.2.4,Linux x86_64,59.52380952,432.0736,433.8201,space,0,0.4803,,0,22,22,29,1,X,,,,,,,,,,,
,,,,,R_7J8K08GR5P7O9BA,001,2025-08-17_21h07.04.168,continuous_performance_test,2024.2.4,Linux x86_64,59.52380952,433.8241,435.5199,space,1,0.3563,,0,23,23,2,1,C,space,,,,,,,,,,
,,,,,R_7J8K08GR5P7O9BA,001,2025-08-17_21h07.04.168,continuous_performance_test,2024.2.4,Linux x86_64,59.52380952,435.5262,437.2712,space,1,0.2962,,0,24,24,0,1,A,space,,,,,,,,,,
,,,,,R_7J8K08GR5P7O9BA,001,2025-08-17_21h07.04.168,continuous_performance_test,2024.2.4,Linux x86_64,59.52380952,437.2747,439.1698,space,1,0.2658,,0,25,25,9,1,J,space,,,,,,,,,,
,,,,,R_7J8K08GR5P7O9BA,001,2025-08-17_21h07.04.168,continuous_performance_test,2024.2.4,Linux x86_64,59.52380952,439.1736,440.9193,space,1,0.267,,0,26,26,10,1,K,space,,,,,,,,,,
,,,,,R_7J8K08GR5P7O9BA,001,2025-08-17_21h07.04.168,continuous_performance_test,2024.2.4,Linux x86_64,59.52380952,440.9224,442.7689,space,1,0.2964,,0,27,27,3,1,D,space,,,,,,,,,,
,,,,,R_7J8K08GR5P7O9BA,001,2025-08-17_21h07.04.168,continuous_performance_test,2024.2.4,Linux x86_64,59.52380952,442.7719,444.4188,space,0,0.3143,,0,28,28,28,1,X,,,,,,,,,,,
,,,,,R_7J8K08GR5P7O9BA,001,2025-08-17_21h07.04.168,continuous_performance_test,2024.2.4,Linux x86_64,59.52380952,444.4212,446.2187,space,0,0.2176,,0,29,29,27,1,X,,,,,,,,,,,
,,,,,R_7J8K08GR5P7O9BA,001,2025-08-17_21h07.04.168,continuous_performance_test,2024.2.4,Linux x86_64,59.52380952,446.8095,448.5514,space,0,0.3028,,0,0,0,26,1,X,,446.2222,446.7855,space,0.5292,,,,,,
,,,,,R_7J8K08GR5P7O9BA,001,2025-08-17_21h07.04.168,continuous_performance_test,2024.2.4,Linux x86_64,59.52380952,448.5526,450.4015,space,0,0.251,,0,1,1,25,1,X,,,,,,,,,,,
,,,,,R_7J8K08GR5P7O9BA,001,2025-08-17_21h07.04.168,continuous_performance_test,2024.2.4,Linux x86_64,59.52380952,450.4047,452.1509,space,1,0.6626,,0,2,2,2,1,C,space,,,,,,,,,,
,,,,,R_7J8K08GR5P7O9BA,001,2025-08-17_21h07.04.168,continuous_performance_test,2024.2.4,Linux x86_64,59.52380952,452.1553,453.9512,space,0,0.3039,,0,3,3,29,1,X,,,,,,,,,,,
,,,,,R_7J8K08GR5P7O9BA,001,2025-08-17_21h07.04.168,continuous_performance_test,2024.2.4,Linux x86_64,59.52380952,453.9552,455.6009,space,1,0.4452,,0,4,4,19,1,T,space,,,,,,,,,,
,,,,,R_7J8K08GR5P7O9BA,001,2025-08-17_21h07.04.168,continuous_performance_test,2024.2.4,Linux x86_64,59.52380952,455.6045,457.5015,space,1,0.2827,,0,5,5,10,1,K,space,,,,,,,,,,
,,,,,R_7J8K08GR5P7O9BA,001,2025-08-17_21h07.04.168,continuous_performance_test,2024.2.4,Linux x86_64,59.52380952,457.505,459.3504,space,1,0.3165,,0,6,6,8,1,I,space,,,,,,,,,,
,,,,,R_7J8K08GR5P7O9BA,001,2025-08-17_21h07.04.168,continuous_performance_test,2024.2.4,Linux x86_64,59.52380952,459.356,461,space,1,0.2819,,0,7,7,6,1,G,space,,,,,,,,,,
,,,,,R_7J8K08GR5P7O9BA,001,2025-08-17_21h07.04.168,continuous_performance_test,2024.2.4,Linux x86_64,59.52380952,461.003,462.85,space,1,0.3194,,0,8,8,15,1,P,space,,,,,,,,,,
,,,,,R_7J8K08GR5P7O9BA,001,2025-08-17_21h07.04.168,continuous_performance_test,2024.2.4,Linux x86_64,59.52380952,462.8535,464.6497,space,1,0.2779,,0,9,9,1,1,B,space,,,,,,,,,,
,,,,,R_7J8K08GR5P7O9BA,001,2025-08-17_21h07.04.168,continuous_performance_test,2024.2.4,Linux x86_64,59.52380952,464.6549,466.3997,space,1,0.2662,,0,10,10,17,1,R,space,,,,,,,,,,
,,,,,R_7J8K08GR5P7O9BA,001,2025-08-17_21h07.04.168,continuous_performance_test,2024.2.4,Linux x86_64,59.52380952,466.4064,468.349,space,1,0.2968,,0,11,11,0,1,A,space,,,,,,,,,,
,,,,,R_7J8K08GR5P7O9BA,001,2025-08-17_21h07.04.168,continuous_performance_test,2024.2.4,Linux x86_64,59.52380952,468.3537,469.8999,space,1,0.3742,,0,12,12,4,1,E,space,,,,,,,,,,
,,,,,R_7J8K08GR5P7O9BA,001,2025-08-17_21h07.04.168,continuous_performance_test,2024.2.4,Linux x86_64,59.52380952,469.9045,471.799,space,1,0.3653,,0,13,13,14,1,O,space,,,,,,,,,,
,,,,,R_7J8K08GR5P7O9BA,001,2025-08-17_21h07.04.168,continuous_performance_test,2024.2.4,Linux x86_64,59.52380952,471.8024,473.7487,space,0,0.3054,,0,14,14,27,1,X,,,,,,,,,,,
,,,,,R_7J8K08GR5P7O9BA,001,2025-08-17_21h07.04.168,continuous_performance_test,2024.2.4,Linux x86_64,59.52380952,473.7514,475.5491,space,1,0.4803,,0,15,15,3,1,D,space,,,,,,,,,,
,,,,,R_7J8K08GR5P7O9BA,001,2025-08-17_21h07.04.168,continuous_performance_test,2024.2.4,Linux x86_64,59.52380952,475.5538,477.2491,space,1,0.4682,,0,16,16,24,1,Z,space,,,,,,,,,,
,,,,,R_7J8K08GR5P7O9BA,001,2025-08-17_21h07.04.168,continuous_performance_test,2024.2.4,Linux x86_64,59.52380952,477.2538,478.9982,space,1,0.3228,,0,17,17,18,1,S,space,,,,,,,,,,
,,,,,R_7J8K08GR5P7O9BA,001,2025-08-17_21h07.04.168,continuous_performance_test,2024.2.4,Linux x86_64,59.52380952,479.0014,480.8982,space,1,0.3847,,0,18,18,23,1,Y,space,,,,,,,,,,
,,,,,R_7J8K08GR5P7O9BA,001,2025-08-17_21h07.04.168,continuous_performance_test,2024.2.4,Linux x86_64,59.52380952,480.9026,482.5482,space,1,0.3148,,0,19,19,12,1,M,space,,,,,,,,,,
,,,,,R_7J8K08GR5P7O9BA,001,2025-08-17_21h07.04.168,continuous_performance_test,2024.2.4,Linux x86_64,59.52380952,482.5525,484.4482,space,1,0.3341,,0,20,20,5,1,F,space,,,,,,,,,,
,,,,,R_7J8K08GR5P7O9BA,001,2025-08-17_21h07.04.168,continuous_performance_test,2024.2.4,Linux x86_64,59.52380952,484.4514,486.4476,space,1,0.279,,0,21,21,22,1,W,space,,,,,,,,,,
,,,,,R_7J8K08GR5P7O9BA,001,2025-08-17_21h07.04.168,continuous_performance_test,2024.2.4,Linux x86_64,59.52380952,486.4535,488.3969,space,1,0.332,,0,22,22,11,1,L,space,,,,,,,,,,
,,,,,R_7J8K08GR5P7O9BA,001,2025-08-17_21h07.04.168,continuous_performance_test,2024.2.4,Linux x86_64,59.52380952,488.3999,489.9481,space,1,0.3512,,0,23,23,21,1,V,space,,,,,,,,,,
,,,,,R_7J8K08GR5P7O9BA,001,2025-08-17_21h07.04.168,continuous_performance_test,2024.2.4,Linux x86_64,59.52380952,489.9527,491.6466,space,1,0.3502,,0,24,24,13,1,N,space,,,,,,,,,,
,,,,,R_7J8K08GR5P7O9BA,001,2025-08-17_21h07.04.168,continuous_performance_test,2024.2.4,Linux x86_64,59.52380952,491.6499,493.1964,space,1,0.3361,,0,25,25,16,1,Q,space,,,,,,,,,,
,,,,,R_7J8K08GR5P7O9BA,001,2025-08-17_21h07.04.168,continuous_performance_test,2024.2.4,Linux x86_64,59.52380952,493.1997,495.1461,space,1,0.2871,,0,26,26,7,1,H,space,,,,,,,,,,
,,,,,R_7J8K08GR5P7O9BA,001,2025-08-17_21h07.04.168,continuous_performance_test,2024.2.4,Linux x86_64,59.52380952,495.15,496.6983,space,1,0.3383,,0,27,27,20,1,U,space,,,,,,,,,,
,,,,,R_7J8K08GR5P7O9BA,001,2025-08-17_21h07.04.168,continuous_performance_test,2024.2.4,Linux x86_64,59.52380952,496.7019,498.3962,,1,,,0,28,28,28,1,X,,,,,,,,,,,
,,,,,R_7J8K08GR5P7O9BA,001,2025-08-17_21h07.04.168,continuous_performance_test,2024.2.4,Linux x86_64,59.52380952,498.4,500.0954,space,1,0.3192,,0,29,29,9,1,J,space,,,,,,,,,,
,,,,,R_7J8K08GR5P7O9BA,001,2025-08-17_21h07.04.168,continuous_performance_test,2024.2.4,Linux x86_64,59.52380952,500.4791,502.2284,space,1,0.4623,,0,0,0,1,1,B,space,500.0983,500.462,space,0.3294,,,,,,
,,,,,R_7J8K08GR5P7O9BA,001,2025-08-17_21h07.04.168,continuous_performance_test,2024.2.4,Linux x86_64,59.52380952,502.2317,503.8282,space,1,0.3324,,0,1,1,24,1,Z,space,,,,,,,,,,
,,,,,R_7J8K08GR5P7O9BA,001,2025-08-17_21h07.04.168,continuous_performance_test,2024.2.4,Linux x86_64,59.52380952,503.8309,505.4777,space,1,0.2992,,0,2,2,9,1,J,space,,,,,,,,,,
,,,,,R_7J8K08GR5P7O9BA,001,2025-08-17_21h07.04.168,continuous_performance_test,2024.2.4,Linux x86_64,59.52380952,505.4812,507.1773,space,1,0.2763,,0,3,3,15,1,P,space,,,,,,,,,,
,,,,,R_7J8K08GR5P7O9BA,001,2025-08-17_21h07.04.168,continuous_performance_test,2024.2.4,Linux x86_64,59.52380952,507.1785,508.9776,space,1,0.2806,,0,4,4,8,1,I,space,,,,,,,,,,
,,,,,R_7J8K08GR5P7O9BA,001,2025-08-17_21h07.04.168,continuous_performance_test,2024.2.4,Linux x86_64,59.52380952,508.9805,510.928,space,0,0.2667,,0,5,5,25,1,X,,,,,,,,,,,
,,,,,R_7J8K08GR5P7O9BA,001,2025-08-17_21h07.04.168,continuous_performance_test,2024.2.4,Linux x86_64,59.52380952,510.932,512.8274,space,1,0.3854,,0,6,6,2,1,C,space,,,,,,,,,,
,,,,,R_7J8K08GR5P7O9BA,001,2025-08-17_21h07.04.168,continuous_performance_test,2024.2.4,Linux x86_64,59.52380952,512.8309,514.7276,space,1,0.3141,,0,7,7,13,1,N,space,,,,,,,,,,
,,,,,R_7J8K08GR5P7O9BA,001,2025-08-17_21h07.04.168,continuous_performance_test,2024.2.4,Linux x86_64,59.52380952,514.7328,516.4764,space,1,0.347,,0,8,8,0,1,A,space,,,,,,,,,,
,,,,,R_7J8K08GR5P7O9BA,001,2025-08-17_21h07.04.168,continuous_performance_test,2024.2.4,Linux x86_64,59.52380952,516.4784,518.3766,space,1,0.2908,,0,9,9,16,1,Q,space,,,,,,,,,,
,,,,,R_7J8K08GR5P7O9BA,001,2025-08-17_21h07.04.168,continuous_performance_test,2024.2.4,Linux x86_64,59.52380952,518.3806,520.3764,space,1,0.2704,,0,10,10,12,1,M,space,,,,,,,,,,
,,,,,R_7J8K08GR5P7O9BA,001,2025-08-17_21h07.04.168,continuous_performance_test,2024.2.4,Linux x86_64,59.52380952,520.3814,522.2255,space,1,0.2867,,0,11,11,17,1,R,space,,,,,,,,,,
,,,,,R_7J8K08GR5P7O9BA,001,2025-08-17_21h07.04.168,continuous_performance_test,2024.2.4,Linux x86_64,59.52380952,522.2301,524.0255,,1,,,0,12,12,29,1,X,,,,,,,,,,,
,,,,,R_7J8K08GR5P7O9BA,001,2025-08-17_21h07.04.168,continuous_performance_test,2024.2.4,Linux x86_64,59.52380952,524.0302,525.9756,space,1,0.2655,,0,13,13,3,1,D,space,,,,,,,,,,
,,,,,R_7J8K08GR5P7O9BA,001,2025-08-17_21h07.04.168,continuous_performance_test,2024.2.4,Linux x86_64,59.52380952,525.9814,527.925,space,1,0.2362,,0,14,14,4,1,E,space,,,,,,,,,,
,,,,,R_7J8K08GR5P7O9BA,001,2025-08-17_21h07.04.168,continuous_performance_test,2024.2.4,Linux x86_64,59.52380952,527.9283,529.9245,space,1,0.3322,,0,15,15,21,1,V,space,,,,,,,,,,
,,,,,R_7J8K08GR5P7O9BA,001,2025-08-17_21h07.04.168,continuous_performance_test,2024.2.4,Linux x86_64,59.52380952,529.9277,531.5254,,1,,,0,16,16,27,1,X,,,,,,,,,,,
,,,,,R_7J8K08GR5P7O9BA,001,2025-08-17_21h07.04.168,continuous_performance_test,2024.2.4,Linux x86_64,59.52380952,531.5286,533.4247,space,1,0.2499,,0,17,17,23,1,Y,space,,,,,,,,,,
,,,,,R_7J8K08GR5P7O9BA,001,2025-08-17_21h07.04.168,continuous_performance_test,2024.2.4,Linux x86_64,59.52380952,533.4294,535.3739,space,1,0.3462,,0,18,18,18,1,S,space,,,,,,,,,,
,,,,,R_7J8K08GR5P7O9BA,001,2025-08-17_21h07.04.168,continuous_performance_test,2024.2.4,Linux x86_64,59.52380952,535.377,536.9251,space,1,0.3195,,0,19,19,11,1,L,space,,,,,,,,,,
,,,,,R_7J8K08GR5P7O9BA,001,2025-08-17_21h07.04.168,continuous_performance_test,2024.2.4,Linux x86_64,59.52380952,536.9284,538.7733,space,1,0.25,,0,20,20,7,1,H,space,,,,,,,,,,
,,,,,R_7J8K08GR5P7O9BA,001,2025-08-17_21h07.04.168,continuous_performance_test,2024.2.4,Linux x86_64,59.52380952,538.7763,540.3733,,1,,,0,21,21,26,1,X,,,,,,,,,,,
,,,,,R_7J8K08GR5P7O9BA,001,2025-08-17_21h07.04.168,continuous_performance_test,2024.2.4,Linux x86_64,59.52380952,540.3763,542.0726,space,1,0.2463,,0,22,22,10,1,K,space,,,,,,,,,,
,,,,,R_7J8K08GR5P7O9BA,001,2025-08-17_21h07.04.168,continuous_performance_test,2024.2.4,Linux x86_64,59.52380952,542.0738,543.7224,space,1,0.2806,,0,23,23,20,1,U,space,,,,,,,,,,
,,,,,R_7J8K08GR5P7O9BA,001,2025-08-17_21h07.04.168,continuous_performance_test,2024.2.4,Linux x86_64,59.52380952,543.7236,545.4223,,1,,,0,24,24,28,1,X,,,,,,,,,,,
,,,,,R_7J8K08GR5P7O9BA,001,2025-08-17_21h07.04.168,continuous_performance_test,2024.2.4,Linux x86_64,59.52380952,545.4237,547.1728,space,1,0.2663,,0,25,25,19,1,T,space,,,,,,,,,,
,,,,,R_7J8K08GR5P7O9BA,001,2025-08-17_21h07.04.168,continuous_performance_test,2024.2.4,Linux x86_64,59.52380952,547.1766,548.7725,space,1,0.2661,,0,26,26,14,1,O,space,,,,,,,,,,
,,,,,R_7J8K08GR5P7O9BA,001,2025-08-17_21h07.04.168,continuous_performance_test,2024.2.4,Linux x86_64,59.52380952,548.7757,550.6721,space,1,0.2648,,0,27,27,5,1,F,space,,,,,,,,,,
,,,,,R_7J8K08GR5P7O9BA,001,2025-08-17_21h07.04.168,continuous_performance_test,2024.2.4,Linux x86_64,59.52380952,550.6759,552.6718,space,1,0.2793,,0,28,28,22,1,W,space,,,,,,,,,,
,,,,,R_7J8K08GR5P7O9BA,001,2025-08-17_21h07.04.168,continuous_performance_test,2024.2.4,Linux x86_64,59.52380952,552.6763,554.3214,space,1,0.2811,,0,29,29,6,1,G,space,,,,,,,,,,
,,,,,R_7J8K08GR5P7O9BA,001,2025-08-17_21h07.04.168,continuous_performance_test,2024.2.4,Linux x86_64,59.52380952,,,,,,,,,,,,,,554.3247,554.3272,,,,554.328,556.3395,space,1.9861,
