Instructions.started,Instructions.stopped,key_resp.keys,key_resp.rt,key_resp.duration,participant,session,date,expName,psychopyVersion,OS,frameRate,Trial_noX.started,Trial_noX.stopped,response.keys,response.corr,trials_noX.thisRepN,trials_noX.thisTrialN,trials_noX.thisN,trials_noX.thisIndex,trials_noX.ran,letter,corrAns,BlockBreak.started,BlockBreak.stopped,key_instruct.keys,key_instruct.rt,key_instruct.duration,End_NoX.started,End_NoX.stopped,key_resp_end_noX.keys,key_resp_end_noX.rt,key_resp_end_noX.duration
0.0004,26.345,space,26.3279,,R_7mDdWs6TyMY7SJY,001,2025-09-05_12h28.49.442,continuous_performance_test,2024.2.4,Win32,60.24096386,,,,,,,,,,,,,,,,,,,,,
,,,,,R_7mDdWs6TyMY7SJY,001,2025-09-05_12h28.49.442,continuous_performance_test,2024.2.4,Win32,60.24096386,26.3827,28.375,,0,0,0,0,18,1,S,space,,,,,,,,,,
,,,,,R_7mDdWs6TyMY7SJY,001,2025-09-05_12h28.49.442,continuous_performance_test,2024.2.4,Win32,60.24096386,28.3837,30.1746,,0,0,1,1,7,1,H,space,,,,,,,,,,
,,,,,R_7mDdWs6TyMY7SJY,001,2025-09-05_12h28.49.442,continuous_performance_test,2024.2.4,Win32,60.24096386,30.1849,32.1238,,0,0,2,2,1,1,B,space,,,,,,,,,,
,,,,,R_7mDdWs6TyMY7SJY,001,2025-09-05_12h28.49.442,continuous_performance_test,2024.2.4,Win32,60.24096386,32.132,34.1262,,0,0,3,3,16,1,Q,space,,,,,,,,,,
,,,,,R_7mDdWs6TyMY7SJY,001,2025-09-05_12h28.49.442,continuous_performance_test,2024.2.4,Win32,60.24096386,34.1316,36.1235,,0,0,4,4,8,1,I,space,,,,,,,,,,
,,,,,R_7mDdWs6TyMY7SJY,001,2025-09-05_12h28.49.442,continuous_performance_test,2024.2.4,Win32,60.24096386,36.1305,37.6734,,0,0,5,5,9,1,J,space,,,,,,,,,,
,,,,,R_7mDdWs6TyMY7SJY,001,2025-09-05_12h28.49.442,continuous_performance_test,2024.2.4,Win32,60.24096386,37.6814,39.6233,,0,0,6,6,2,1,C,space,,,,,,,,,,
,,,,,R_7mDdWs6TyMY7SJY,001,2025-09-05_12h28.49.442,continuous_performance_test,2024.2.4,Win32,60.24096386,39.6311,41.3733,,1,0,7,7,28,1,X,,,,,,,,,,,
,,,,,R_7mDdWs6TyMY7SJY,001,2025-09-05_12h28.49.442,continuous_performance_test,2024.2.4,Win32,60.24096386,41.3804,43.1733,,0,0,8,8,17,1,R,space,,,,,,,,,,
,,,,,R_7mDdWs6TyMY7SJY,001,2025-09-05_12h28.49.442,continuous_performance_test,2024.2.4,Win32,60.24096386,43.1803,44.7232,,0,0,9,9,24,1,Z,space,,,,,,,,,,
,,,,,R_7mDdWs6TyMY7SJY,001,2025-09-05_12h28.49.442,continuous_performance_test,2024.2.4,Win32,60.24096386,44.7312,46.423,,0,0,10,10,22,1,W,space,,,,,,,,,,
,,,,,R_7mDdWs6TyMY7SJY,001,2025-09-05_12h28.49.442,continuous_performance_test,2024.2.4,Win32,60.24096386,46.4305,48.3233,,0,0,11,11,23,1,Y,space,,,,,,,,,,
,,,,,R_7mDdWs6TyMY7SJY,001,2025-09-05_12h28.49.442,continuous_performance_test,2024.2.4,Win32,60.24096386,48.3294,50.2729,,0,0,12,12,4,1,E,space,,,,,,,,,,
,,,,,R_7mDdWs6TyMY7SJY,001,2025-09-05_12h28.49.442,continuous_performance_test,2024.2.4,Win32,60.24096386,50.2794,51.8237,,0,0,13,13,3,1,D,space,,,,,,,,,,
,,,,,R_7mDdWs6TyMY7SJY,001,2025-09-05_12h28.49.442,continuous_performance_test,2024.2.4,Win32,60.24096386,51.831,53.3728,,0,0,14,14,15,1,P,space,,,,,,,,,,
,,,,,R_7mDdWs6TyMY7SJY,001,2025-09-05_12h28.49.442,continuous_performance_test,2024.2.4,Win32,60.24096386,53.3789,55.1229,,0,0,15,15,19,1,T,space,,,,,,,,,,
,,,,,R_7mDdWs6TyMY7SJY,001,2025-09-05_12h28.49.442,continuous_performance_test,2024.2.4,Win32,60.24096386,55.1293,57.0228,,0,0,16,16,6,1,G,space,,,,,,,,,,
,,,,,R_7mDdWs6TyMY7SJY,001,2025-09-05_12h28.49.442,continuous_performance_test,2024.2.4,Win32,60.24096386,57.0284,58.7724,,1,0,17,17,29,1,X,,,,,,,,,,,
,,,,,R_7mDdWs6TyMY7SJY,001,2025-09-05_12h28.49.442,continuous_performance_test,2024.2.4,Win32,60.24096386,58.7787,60.6223,,0,0,18,18,11,1,L,space,,,,,,,,,,
,,,,,R_7mDdWs6TyMY7SJY,001,2025-09-05_12h28.49.442,continuous_performance_test,2024.2.4,Win32,60.24096386,60.6277,62.2768,,1,0,19,19,25,1,X,,,,,,,,,,,
,,,,,R_7mDdWs6TyMY7SJY,001,2025-09-05_12h28.49.442,continuous_performance_test,2024.2.4,Win32,60.24096386,62.2813,64.0727,,1,0,20,20,26,1,X,,,,,,,,,,,
,,,,,R_7mDdWs6TyMY7SJY,001,2025-09-05_12h28.49.442,continuous_performance_test,2024.2.4,Win32,60.24096386,64.0795,65.9723,,0,0,21,21,10,1,K,space,,,,,,,,,,
,,,,,R_7mDdWs6TyMY7SJY,001,2025-09-05_12h28.49.442,continuous_performance_test,2024.2.4,Win32,60.24096386,65.977,67.822,,0,0,22,22,12,1,M,space,,,,,,,,,,
,,,,,R_7mDdWs6TyMY7SJY,001,2025-09-05_12h28.49.442,continuous_performance_test,2024.2.4,Win32,60.24096386,67.8284,69.5219,,0,0,23,23,14,1,O,space,,,,,,,,,,
,,,,,R_7mDdWs6TyMY7SJY,001,2025-09-05_12h28.49.442,continuous_performance_test,2024.2.4,Win32,60.24096386,69.5283,71.1718,,0,0,24,24,13,1,N,space,,,,,,,,,,
,,,,,R_7mDdWs6TyMY7SJY,001,2025-09-05_12h28.49.442,continuous_performance_test,2024.2.4,Win32,60.24096386,71.177,72.9219,,1,0,25,25,27,1,X,,,,,,,,,,,
,,,,,R_7mDdWs6TyMY7SJY,001,2025-09-05_12h28.49.442,continuous_performance_test,2024.2.4,Win32,60.24096386,72.9284,74.6217,,0,0,26,26,21,1,V,space,,,,,,,,,,
,,,,,R_7mDdWs6TyMY7SJY,001,2025-09-05_12h28.49.442,continuous_performance_test,2024.2.4,Win32,60.24096386,74.628,76.4709,,0,0,27,27,5,1,F,space,,,,,,,,,,
,,,,,R_7mDdWs6TyMY7SJY,001,2025-09-05_12h28.49.442,continuous_performance_test,2024.2.4,Win32,60.24096386,76.4781,78.1708,,0,0,28,28,20,1,U,space,,,,,,,,,,
,,,,,R_7mDdWs6TyMY7SJY,001,2025-09-05_12h28.49.442,continuous_performance_test,2024.2.4,Win32,60.24096386,78.1779,79.9208,,0,0,29,29,0,1,A,space,,,,,,,,,,
,,,,,R_7mDdWs6TyMY7SJY,001,2025-09-05_12h28.49.442,continuous_performance_test,2024.2.4,Win32,60.24096386,87.6374,89.1863,,1,0,0,0,26,1,X,,79.9235,87.5892,space,7.6348,,,,,,
,,,,,R_7mDdWs6TyMY7SJY,001,2025-09-05_12h28.49.442,continuous_performance_test,2024.2.4,Win32,60.24096386,89.1928,91.1862,,0,0,1,1,4,1,E,space,,,,,,,,,,
,,,,,R_7mDdWs6TyMY7SJY,001,2025-09-05_12h28.49.442,continuous_performance_test,2024.2.4,Win32,60.24096386,91.1913,93.1862,,0,0,2,2,9,1,J,space,,,,,,,,,,
,,,,,R_7mDdWs6TyMY7SJY,001,2025-09-05_12h28.49.442,continuous_performance_test,2024.2.4,Win32,60.24096386,93.1912,94.9862,,0,0,3,3,5,1,F,space,,,,,,,,,,
,,,,,R_7mDdWs6TyMY7SJY,001,2025-09-05_12h28.49.442,continuous_performance_test,2024.2.4,Win32,60.24096386,94.9919,96.9359,,0,0,4,4,16,1,Q,space,,,,,,,,,,
,,,,,R_7mDdWs6TyMY7SJY,001,2025-09-05_12h28.49.442,continuous_performance_test,2024.2.4,Win32,60.24096386,96.9407,98.5859,,0,0,5,5,18,1,S,space,,,,,,,,,,
,,,,,R_7mDdWs6TyMY7SJY,001,2025-09-05_12h28.49.442,continuous_performance_test,2024.2.4,Win32,60.24096386,98.5922,100.2358,,1,0,6,6,29,1,X,,,,,,,,,,,
,,,,,R_7mDdWs6TyMY7SJY,001,2025-09-05_12h28.49.442,continuous_performance_test,2024.2.4,Win32,60.24096386,100.2427,101.9858,,0,0,7,7,20,1,U,space,,,,,,,,,,
,,,,,R_7mDdWs6TyMY7SJY,001,2025-09-05_12h28.49.442,continuous_performance_test,2024.2.4,Win32,60.24096386,101.9911,103.6864,,0,0,8,8,3,1,D,space,,,,,,,,,,
,,,,,R_7mDdWs6TyMY7SJY,001,2025-09-05_12h28.49.442,continuous_performance_test,2024.2.4,Win32,60.24096386,103.6933,105.4857,,0,0,9,9,14,1,O,space,,,,,,,,,,
,,,,,R_7mDdWs6TyMY7SJY,001,2025-09-05_12h28.49.442,continuous_performance_test,2024.2.4,Win32,60.24096386,105.4911,107.2364,,1,0,10,10,25,1,X,,,,,,,,,,,
,,,,,R_7mDdWs6TyMY7SJY,001,2025-09-05_12h28.49.442,continuous_performance_test,2024.2.4,Win32,60.24096386,107.2412,108.9863,,0,0,11,11,0,1,A,space,,,,,,,,,,
,,,,,R_7mDdWs6TyMY7SJY,001,2025-09-05_12h28.49.442,continuous_performance_test,2024.2.4,Win32,60.24096386,108.9909,110.886,,0,0,12,12,22,1,W,space,,,,,,,,,,
,,,,,R_7mDdWs6TyMY7SJY,001,2025-09-05_12h28.49.442,continuous_performance_test,2024.2.4,Win32,60.24096386,110.8907,112.6357,,0,0,13,13,10,1,K,space,,,,,,,,,,
,,,,,R_7mDdWs6TyMY7SJY,001,2025-09-05_12h28.49.442,continuous_performance_test,2024.2.4,Win32,60.24096386,112.6414,114.5408,,0,0,14,14,17,1,R,space,,,,,,,,,,
,,,,,R_7mDdWs6TyMY7SJY,001,2025-09-05_12h28.49.442,continuous_performance_test,2024.2.4,Win32,60.24096386,114.5452,116.486,,0,0,15,15,21,1,V,space,,,,,,,,,,
,,,,,R_7mDdWs6TyMY7SJY,001,2025-09-05_12h28.49.442,continuous_performance_test,2024.2.4,Win32,60.24096386,116.4912,118.2857,,0,0,16,16,1,1,B,space,,,,,,,,,,
,,,,,R_7mDdWs6TyMY7SJY,001,2025-09-05_12h28.49.442,continuous_performance_test,2024.2.4,Win32,60.24096386,118.2919,120.0358,,0,0,17,17,24,1,Z,space,,,,,,,,,,
,,,,,R_7mDdWs6TyMY7SJY,001,2025-09-05_12h28.49.442,continuous_performance_test,2024.2.4,Win32,60.24096386,120.0411,121.6354,,0,0,18,18,11,1,L,space,,,,,,,,,,
,,,,,R_7mDdWs6TyMY7SJY,001,2025-09-05_12h28.49.442,continuous_performance_test,2024.2.4,Win32,60.24096386,121.6402,123.6355,,0,0,19,19,13,1,N,space,,,,,,,,,,
,,,,,R_7mDdWs6TyMY7SJY,001,2025-09-05_12h28.49.442,continuous_performance_test,2024.2.4,Win32,60.24096386,123.6402,125.4362,,0,0,20,20,23,1,Y,space,,,,,,,,,,
,,,,,R_7mDdWs6TyMY7SJY,001,2025-09-05_12h28.49.442,continuous_performance_test,2024.2.4,Win32,60.24096386,125.4407,126.9851,,0,0,21,21,19,1,T,space,,,,,,,,,,
,,,,,R_7mDdWs6TyMY7SJY,001,2025-09-05_12h28.49.442,continuous_performance_test,2024.2.4,Win32,60.24096386,126.9899,128.5351,,0,0,22,22,2,1,C,space,,,,,,,,,,
,,,,,R_7mDdWs6TyMY7SJY,001,2025-09-05_12h28.49.442,continuous_performance_test,2024.2.4,Win32,60.24096386,128.5402,130.335,,0,0,23,23,15,1,P,space,,,,,,,,,,
,,,,,R_7mDdWs6TyMY7SJY,001,2025-09-05_12h28.49.442,continuous_performance_test,2024.2.4,Win32,60.24096386,130.3402,131.9851,,0,0,24,24,6,1,G,space,,,,,,,,,,
,,,,,R_7mDdWs6TyMY7SJY,001,2025-09-05_12h28.49.442,continuous_performance_test,2024.2.4,Win32,60.24096386,131.9901,133.835,,0,0,25,25,12,1,M,space,,,,,,,,,,
,,,,,R_7mDdWs6TyMY7SJY,001,2025-09-05_12h28.49.442,continuous_performance_test,2024.2.4,Win32,60.24096386,133.8406,135.3849,,0,0,26,26,8,1,I,space,,,,,,,,,,
,,,,,R_7mDdWs6TyMY7SJY,001,2025-09-05_12h28.49.442,continuous_performance_test,2024.2.4,Win32,60.24096386,135.3897,137.0347,,0,0,27,27,7,1,H,space,,,,,,,,,,
,,,,,R_7mDdWs6TyMY7SJY,001,2025-09-05_12h28.49.442,continuous_performance_test,2024.2.4,Win32,60.24096386,137.0394,139.0394,,1,0,28,28,27,1,X,,,,,,,,,,,
,,,,,R_7mDdWs6TyMY7SJY,001,2025-09-05_12h28.49.442,continuous_performance_test,2024.2.4,Win32,60.24096386,139.0431,140.6345,,1,0,29,29,28,1,X,,,,,,,,,,,
,,,,,R_7mDdWs6TyMY7SJY,001,2025-09-05_12h28.49.442,continuous_performance_test,2024.2.4,Win32,60.24096386,146.5122,148.3007,,0,0,0,0,19,1,T,space,140.6401,146.4844,space,5.8254,,,,,,
,,,,,R_7mDdWs6TyMY7SJY,001,2025-09-05_12h28.49.442,continuous_performance_test,2024.2.4,Win32,60.24096386,148.3056,150.0508,,0,0,1,1,3,1,D,space,,,,,,,,,,
,,,,,R_7mDdWs6TyMY7SJY,001,2025-09-05_12h28.49.442,continuous_performance_test,2024.2.4,Win32,60.24096386,150.0559,151.9009,,0,0,2,2,5,1,F,space,,,,,,,,,,
,,,,,R_7mDdWs6TyMY7SJY,001,2025-09-05_12h28.49.442,continuous_performance_test,2024.2.4,Win32,60.24096386,151.9059,153.6007,,0,0,3,3,12,1,M,space,,,,,,,,,,
,,,,,R_7mDdWs6TyMY7SJY,001,2025-09-05_12h28.49.442,continuous_performance_test,2024.2.4,Win32,60.24096386,153.6055,155.5505,,0,0,4,4,6,1,G,space,,,,,,,,,,
,,,,,R_7mDdWs6TyMY7SJY,001,2025-09-05_12h28.49.442,continuous_performance_test,2024.2.4,Win32,60.24096386,155.5567,157.1006,,0,0,5,5,18,1,S,space,,,,,,,,,,
,,,,,R_7mDdWs6TyMY7SJY,001,2025-09-05_12h28.49.442,continuous_performance_test,2024.2.4,Win32,60.24096386,157.1057,159.1004,,0,0,6,6,17,1,R,space,,,,,,,,,,
,,,,,R_7mDdWs6TyMY7SJY,001,2025-09-05_12h28.49.442,continuous_performance_test,2024.2.4,Win32,60.24096386,159.1059,160.8505,,0,0,7,7,15,1,P,space,,,,,,,,,,
,,,,,R_7mDdWs6TyMY7SJY,001,2025-09-05_12h28.49.442,continuous_performance_test,2024.2.4,Win32,60.24096386,160.8554,162.5504,,0,0,8,8,22,1,W,space,,,,,,,,,,
,,,,,R_7mDdWs6TyMY7SJY,001,2025-09-05_12h28.49.442,continuous_performance_test,2024.2.4,Win32,60.24096386,162.556,164.5501,,0,0,9,9,14,1,O,space,,,,,,,,,,
,,,,,R_7mDdWs6TyMY7SJY,001,2025-09-05_12h28.49.442,continuous_performance_test,2024.2.4,Win32,60.24096386,164.555,166.449,,1,0,10,10,28,1,X,,,,,,,,,,,
,,,,,R_7mDdWs6TyMY7SJY,001,2025-09-05_12h28.49.442,continuous_performance_test,2024.2.4,Win32,60.24096386,166.4516,168.0998,,0,0,11,11,2,1,C,space,,,,,,,,,,
,,,,,R_7mDdWs6TyMY7SJY,001,2025-09-05_12h28.49.442,continuous_performance_test,2024.2.4,Win32,60.24096386,168.1051,169.7495,,0,0,12,12,9,1,J,space,,,,,,,,,,
,,,,,R_7mDdWs6TyMY7SJY,001,2025-09-05_12h28.49.442,continuous_performance_test,2024.2.4,Win32,60.24096386,169.7544,171.6496,,0,0,13,13,8,1,I,space,,,,,,,,,,
,,,,,R_7mDdWs6TyMY7SJY,001,2025-09-05_12h28.49.442,continuous_performance_test,2024.2.4,Win32,60.24096386,171.6552,173.5546,,1,0,14,14,25,1,X,,,,,,,,,,,
,,,,,R_7mDdWs6TyMY7SJY,001,2025-09-05_12h28.49.442,continuous_performance_test,2024.2.4,Win32,60.24096386,173.5593,175.3496,,0,0,15,15,20,1,U,space,,,,,,,,,,
,,,,,R_7mDdWs6TyMY7SJY,001,2025-09-05_12h28.49.442,continuous_performance_test,2024.2.4,Win32,60.24096386,175.3551,177.0496,,1,0,16,16,27,1,X,,,,,,,,,,,
,,,,,R_7mDdWs6TyMY7SJY,001,2025-09-05_12h28.49.442,continuous_performance_test,2024.2.4,Win32,60.24096386,177.0546,178.6494,,0,0,17,17,11,1,L,space,,,,,,,,,,
,,,,,R_7mDdWs6TyMY7SJY,001,2025-09-05_12h28.49.442,continuous_performance_test,2024.2.4,Win32,60.24096386,178.6549,180.2995,,0,0,18,18,13,1,N,space,,,,,,,,,,
,,,,,R_7mDdWs6TyMY7SJY,001,2025-09-05_12h28.49.442,continuous_performance_test,2024.2.4,Win32,60.24096386,180.3054,181.9496,,0,0,19,19,10,1,K,space,,,,,,,,,,
,,,,,R_7mDdWs6TyMY7SJY,001,2025-09-05_12h28.49.442,continuous_performance_test,2024.2.4,Win32,60.24096386,181.9552,183.7994,,0,0,20,20,23,1,Y,space,,,,,,,,,,
,,,,,R_7mDdWs6TyMY7SJY,001,2025-09-05_12h28.49.442,continuous_performance_test,2024.2.4,Win32,60.24096386,183.8045,185.3993,,0,0,21,21,21,1,V,space,,,,,,,,,,
,,,,,R_7mDdWs6TyMY7SJY,001,2025-09-05_12h28.49.442,continuous_performance_test,2024.2.4,Win32,60.24096386,185.4041,186.9494,,1,0,22,22,29,1,X,,,,,,,,,,,
,,,,,R_7mDdWs6TyMY7SJY,001,2025-09-05_12h28.49.442,continuous_performance_test,2024.2.4,Win32,60.24096386,186.9578,188.949,,0,0,23,23,7,1,H,space,,,,,,,,,,
,,,,,R_7mDdWs6TyMY7SJY,001,2025-09-05_12h28.49.442,continuous_performance_test,2024.2.4,Win32,60.24096386,188.9541,190.8485,,0,0,24,24,24,1,Z,space,,,,,,,,,,
,,,,,R_7mDdWs6TyMY7SJY,001,2025-09-05_12h28.49.442,continuous_performance_test,2024.2.4,Win32,60.24096386,190.8534,192.8486,,0,0,25,25,1,1,B,space,,,,,,,,,,
,,,,,R_7mDdWs6TyMY7SJY,001,2025-09-05_12h28.49.442,continuous_performance_test,2024.2.4,Win32,60.24096386,192.8534,194.6989,,0,0,26,26,4,1,E,space,,,,,,,,,,
,,,,,R_7mDdWs6TyMY7SJY,001,2025-09-05_12h28.49.442,continuous_performance_test,2024.2.4,Win32,60.24096386,194.7038,196.4988,,0,0,27,27,0,1,A,space,,,,,,,,,,
,,,,,R_7mDdWs6TyMY7SJY,001,2025-09-05_12h28.49.442,continuous_performance_test,2024.2.4,Win32,60.24096386,196.5035,198.0984,,1,0,28,28,26,1,X,,,,,,,,,,,
,,,,,R_7mDdWs6TyMY7SJY,001,2025-09-05_12h28.49.442,continuous_performance_test,2024.2.4,Win32,60.24096386,198.1031,200.0986,,0,0,29,29,16,1,Q,space,,,,,,,,,,
,,,,,R_7mDdWs6TyMY7SJY,001,2025-09-05_12h28.49.442,continuous_performance_test,2024.2.4,Win32,60.24096386,204.7126,206.5646,,0,0,0,0,11,1,L,space,200.1037,204.6828,space,4.5594,,,,,,
,,,,,R_7mDdWs6TyMY7SJY,001,2025-09-05_12h28.49.442,continuous_performance_test,2024.2.4,Win32,60.24096386,206.5697,208.1644,,0,0,1,1,8,1,I,space,,,,,,,,,,
,,,,,R_7mDdWs6TyMY7SJY,001,2025-09-05_12h28.49.442,continuous_performance_test,2024.2.4,Win32,60.24096386,208.1693,210.0142,,1,0,2,2,25,1,X,,,,,,,,,,,
,,,,,R_7mDdWs6TyMY7SJY,001,2025-09-05_12h28.49.442,continuous_performance_test,2024.2.4,Win32,60.24096386,210.0198,211.9642,,0,0,3,3,20,1,U,space,,,,,,,,,,
,,,,,R_7mDdWs6TyMY7SJY,001,2025-09-05_12h28.49.442,continuous_performance_test,2024.2.4,Win32,60.24096386,211.969,213.614,,1,0,4,4,28,1,X,,,,,,,,,,,
,,,,,R_7mDdWs6TyMY7SJY,001,2025-09-05_12h28.49.442,continuous_performance_test,2024.2.4,Win32,60.24096386,213.6191,215.314,,0,0,5,5,21,1,V,space,,,,,,,,,,
,,,,,R_7mDdWs6TyMY7SJY,001,2025-09-05_12h28.49.442,continuous_performance_test,2024.2.4,Win32,60.24096386,215.319,217.114,,0,0,6,6,3,1,D,space,,,,,,,,,,
,,,,,R_7mDdWs6TyMY7SJY,001,2025-09-05_12h28.49.442,continuous_performance_test,2024.2.4,Win32,60.24096386,217.1194,218.8637,,0,0,7,7,5,1,F,space,,,,,,,,,,
,,,,,R_7mDdWs6TyMY7SJY,001,2025-09-05_12h28.49.442,continuous_performance_test,2024.2.4,Win32,60.24096386,218.8684,220.7634,,0,0,8,8,19,1,T,space,,,,,,,,,,
,,,,,R_7mDdWs6TyMY7SJY,001,2025-09-05_12h28.49.442,continuous_performance_test,2024.2.4,Win32,60.24096386,220.7657,222.7636,,0,0,9,9,18,1,S,space,,,,,,,,,,
,,,,,R_7mDdWs6TyMY7SJY,001,2025-09-05_12h28.49.442,continuous_performance_test,2024.2.4,Win32,60.24096386,222.7704,224.7135,,0,0,10,10,17,1,R,space,,,,,,,,,,
,,,,,R_7mDdWs6TyMY7SJY,001,2025-09-05_12h28.49.442,continuous_performance_test,2024.2.4,Win32,60.24096386,224.7196,226.6639,,0,0,11,11,10,1,K,space,,,,,,,,,,
,,,,,R_7mDdWs6TyMY7SJY,001,2025-09-05_12h28.49.442,continuous_performance_test,2024.2.4,Win32,60.24096386,226.6702,228.6137,,0,0,12,12,12,1,M,space,,,,,,,,,,
,,,,,R_7mDdWs6TyMY7SJY,001,2025-09-05_12h28.49.442,continuous_performance_test,2024.2.4,Win32,60.24096386,228.6181,230.414,,0,0,13,13,16,1,Q,space,,,,,,,,,,
,,,,,R_7mDdWs6TyMY7SJY,001,2025-09-05_12h28.49.442,continuous_performance_test,2024.2.4,Win32,60.24096386,230.419,232.2134,,0,0,14,14,14,1,O,space,,,,,,,,,,
,,,,,R_7mDdWs6TyMY7SJY,001,2025-09-05_12h28.49.442,continuous_performance_test,2024.2.4,Win32,60.24096386,232.2184,233.8646,,0,0,15,15,15,1,P,space,,,,,,,,,,
,,,,,R_7mDdWs6TyMY7SJY,001,2025-09-05_12h28.49.442,continuous_performance_test,2024.2.4,Win32,60.24096386,233.8697,235.8633,,0,0,16,16,4,1,E,space,,,,,,,,,,
,,,,,R_7mDdWs6TyMY7SJY,001,2025-09-05_12h28.49.442,continuous_performance_test,2024.2.4,Win32,60.24096386,235.8684,237.7141,,0,0,17,17,23,1,Y,space,,,,,,,,,,
,,,,,R_7mDdWs6TyMY7SJY,001,2025-09-05_12h28.49.442,continuous_performance_test,2024.2.4,Win32,60.24096386,237.7188,239.5676,,0,0,18,18,0,1,A,space,,,,,,,,,,
,,,,,R_7mDdWs6TyMY7SJY,001,2025-09-05_12h28.49.442,continuous_performance_test,2024.2.4,Win32,60.24096386,239.5718,241.2631,,1,0,19,19,29,1,X,,,,,,,,,,,
,,,,,R_7mDdWs6TyMY7SJY,001,2025-09-05_12h28.49.442,continuous_performance_test,2024.2.4,Win32,60.24096386,241.2679,243.2133,,0,0,20,20,7,1,H,space,,,,,,,,,,
,,,,,R_7mDdWs6TyMY7SJY,001,2025-09-05_12h28.49.442,continuous_performance_test,2024.2.4,Win32,60.24096386,243.2178,245.2134,,0,0,21,21,13,1,N,space,,,,,,,,,,
,,,,,R_7mDdWs6TyMY7SJY,001,2025-09-05_12h28.49.442,continuous_performance_test,2024.2.4,Win32,60.24096386,245.2184,247.0128,,0,0,22,22,6,1,G,space,,,,,,,,,,
,,,,,R_7mDdWs6TyMY7SJY,001,2025-09-05_12h28.49.442,continuous_performance_test,2024.2.4,Win32,60.24096386,247.0179,248.5627,,1,0,23,23,26,1,X,,,,,,,,,,,
,,,,,R_7mDdWs6TyMY7SJY,001,2025-09-05_12h28.49.442,continuous_performance_test,2024.2.4,Win32,60.24096386,248.5679,250.163,,0,0,24,24,24,1,Z,space,,,,,,,,,,
,,,,,R_7mDdWs6TyMY7SJY,001,2025-09-05_12h28.49.442,continuous_performance_test,2024.2.4,Win32,60.24096386,250.1692,251.7118,,0,0,25,25,2,1,C,space,,,,,,,,,,
,,,,,R_7mDdWs6TyMY7SJY,001,2025-09-05_12h28.49.442,continuous_performance_test,2024.2.4,Win32,60.24096386,251.7143,253.3117,,1,0,26,26,27,1,X,,,,,,,,,,,
,,,,,R_7mDdWs6TyMY7SJY,001,2025-09-05_12h28.49.442,continuous_performance_test,2024.2.4,Win32,60.24096386,253.3145,255.0113,,0,0,27,27,9,1,J,space,,,,,,,,,,
,,,,,R_7mDdWs6TyMY7SJY,001,2025-09-05_12h28.49.442,continuous_performance_test,2024.2.4,Win32,60.24096386,255.0138,256.7126,,0,0,28,28,22,1,W,space,,,,,,,,,,
,,,,,R_7mDdWs6TyMY7SJY,001,2025-09-05_12h28.49.442,continuous_performance_test,2024.2.4,Win32,60.24096386,256.7173,258.7115,,0,0,29,29,1,1,B,space,,,,,,,,,,
,,,,,R_7mDdWs6TyMY7SJY,001,2025-09-05_12h28.49.442,continuous_performance_test,2024.2.4,Win32,60.24096386,261.0534,263.0441,,0,0,0,0,15,1,P,space,258.7139,261.0297,space,2.2938,,,,,,
,,,,,R_7mDdWs6TyMY7SJY,001,2025-09-05_12h28.49.442,continuous_performance_test,2024.2.4,Win32,60.24096386,263.0462,264.8453,,0,0,1,1,9,1,J,space,,,,,,,,,,
,,,,,R_7mDdWs6TyMY7SJY,001,2025-09-05_12h28.49.442,continuous_performance_test,2024.2.4,Win32,60.24096386,264.8495,266.6448,,0,0,2,2,10,1,K,space,,,,,,,,,,
,,,,,R_7mDdWs6TyMY7SJY,001,2025-09-05_12h28.49.442,continuous_performance_test,2024.2.4,Win32,60.24096386,266.6501,268.1949,,0,0,3,3,13,1,N,space,,,,,,,,,,
,,,,,R_7mDdWs6TyMY7SJY,001,2025-09-05_12h28.49.442,continuous_performance_test,2024.2.4,Win32,60.24096386,268.1991,269.8448,,0,0,4,4,19,1,T,space,,,,,,,,,,
,,,,,R_7mDdWs6TyMY7SJY,001,2025-09-05_12h28.49.442,continuous_performance_test,2024.2.4,Win32,60.24096386,269.8495,271.845,,0,0,5,5,16,1,Q,space,,,,,,,,,,
,,,,,R_7mDdWs6TyMY7SJY,001,2025-09-05_12h28.49.442,continuous_performance_test,2024.2.4,Win32,60.24096386,271.8505,273.5947,,0,0,6,6,11,1,L,space,,,,,,,,,,
,,,,,R_7mDdWs6TyMY7SJY,001,2025-09-05_12h28.49.442,continuous_performance_test,2024.2.4,Win32,60.24096386,273.6003,275.3446,,0,0,7,7,4,1,E,space,,,,,,,,,,
,,,,,R_7mDdWs6TyMY7SJY,001,2025-09-05_12h28.49.442,continuous_performance_test,2024.2.4,Win32,60.24096386,275.3497,277.3444,,0,0,8,8,20,1,U,space,,,,,,,,,,
,,,,,R_7mDdWs6TyMY7SJY,001,2025-09-05_12h28.49.442,continuous_performance_test,2024.2.4,Win32,60.24096386,277.3492,278.8943,,0,0,9,9,3,1,D,space,,,,,,,,,,
,,,,,R_7mDdWs6TyMY7SJY,001,2025-09-05_12h28.49.442,continuous_performance_test,2024.2.4,Win32,60.24096386,278.8975,280.7943,,0,0,10,10,0,1,A,space,,,,,,,,,,
,,,,,R_7mDdWs6TyMY7SJY,001,2025-09-05_12h28.49.442,continuous_performance_test,2024.2.4,Win32,60.24096386,280.7987,282.4445,,0,0,11,11,21,1,V,space,,,,,,,,,,
,,,,,R_7mDdWs6TyMY7SJY,001,2025-09-05_12h28.49.442,continuous_performance_test,2024.2.4,Win32,60.24096386,282.4482,284.0441,,0,0,12,12,1,1,B,space,,,,,,,,,,
,,,,,R_7mDdWs6TyMY7SJY,001,2025-09-05_12h28.49.442,continuous_performance_test,2024.2.4,Win32,60.24096386,284.048,285.8444,,0,0,13,13,8,1,I,space,,,,,,,,,,
,,,,,R_7mDdWs6TyMY7SJY,001,2025-09-05_12h28.49.442,continuous_performance_test,2024.2.4,Win32,60.24096386,285.8514,287.7941,,1,0,14,14,29,1,X,,,,,,,,,,,
,,,,,R_7mDdWs6TyMY7SJY,001,2025-09-05_12h28.49.442,continuous_performance_test,2024.2.4,Win32,60.24096386,287.7984,289.5441,,0,0,15,15,22,1,W,space,,,,,,,,,,
,,,,,R_7mDdWs6TyMY7SJY,001,2025-09-05_12h28.49.442,continuous_performance_test,2024.2.4,Win32,60.24096386,289.5486,291.5438,,0,0,16,16,14,1,O,space,,,,,,,,,,
,,,,,R_7mDdWs6TyMY7SJY,001,2025-09-05_12h28.49.442,continuous_performance_test,2024.2.4,Win32,60.24096386,291.5478,293.1937,,1,0,17,17,27,1,X,,,,,,,,,,,
,,,,,R_7mDdWs6TyMY7SJY,001,2025-09-05_12h28.49.442,continuous_performance_test,2024.2.4,Win32,60.24096386,293.1961,294.7937,,1,0,18,18,25,1,X,,,,,,,,,,,
,,,,,R_7mDdWs6TyMY7SJY,001,2025-09-05_12h28.49.442,continuous_performance_test,2024.2.4,Win32,60.24096386,294.7974,296.4938,,1,0,19,19,26,1,X,,,,,,,,,,,
,,,,,R_7mDdWs6TyMY7SJY,001,2025-09-05_12h28.49.442,continuous_performance_test,2024.2.4,Win32,60.24096386,296.4981,298.4435,,0,0,20,20,18,1,S,space,,,,,,,,,,
,,,,,R_7mDdWs6TyMY7SJY,001,2025-09-05_12h28.49.442,continuous_performance_test,2024.2.4,Win32,60.24096386,298.4474,300.3434,,0,0,21,21,23,1,Y,space,,,,,,,,,,
,,,,,R_7mDdWs6TyMY7SJY,001,2025-09-05_12h28.49.442,continuous_performance_test,2024.2.4,Win32,60.24096386,300.3471,302.2434,,0,0,22,22,17,1,R,space,,,,,,,,,,
,,,,,R_7mDdWs6TyMY7SJY,001,2025-09-05_12h28.49.442,continuous_performance_test,2024.2.4,Win32,60.24096386,302.2477,303.9928,,1,0,23,23,28,1,X,,,,,,,,,,,
,,,,,R_7mDdWs6TyMY7SJY,001,2025-09-05_12h28.49.442,continuous_performance_test,2024.2.4,Win32,60.24096386,303.9962,305.6427,,0,0,24,24,24,1,Z,space,,,,,,,,,,
,,,,,R_7mDdWs6TyMY7SJY,001,2025-09-05_12h28.49.442,continuous_performance_test,2024.2.4,Win32,60.24096386,305.645,307.3445,,0,0,25,25,5,1,F,space,,,,,,,,,,
,,,,,R_7mDdWs6TyMY7SJY,001,2025-09-05_12h28.49.442,continuous_performance_test,2024.2.4,Win32,60.24096386,307.3489,309.2942,,0,0,26,26,7,1,H,space,,,,,,,,,,
,,,,,R_7mDdWs6TyMY7SJY,001,2025-09-05_12h28.49.442,continuous_performance_test,2024.2.4,Win32,60.24096386,309.2983,310.9931,,0,0,27,27,12,1,M,space,,,,,,,,,,
,,,,,R_7mDdWs6TyMY7SJY,001,2025-09-05_12h28.49.442,continuous_performance_test,2024.2.4,Win32,60.24096386,310.9971,312.5928,,0,0,28,28,2,1,C,space,,,,,,,,,,
,,,,,R_7mDdWs6TyMY7SJY,001,2025-09-05_12h28.49.442,continuous_performance_test,2024.2.4,Win32,60.24096386,312.5979,314.3924,,0,0,29,29,6,1,G,space,,,,,,,,,,
,,,,,R_7mDdWs6TyMY7SJY,001,2025-09-05_12h28.49.442,continuous_performance_test,2024.2.4,Win32,60.24096386,316.3197,318.2589,,0,0,0,0,13,1,N,space,314.3979,316.3088,space,1.8891,,,,,,
,,,,,R_7mDdWs6TyMY7SJY,001,2025-09-05_12h28.49.442,continuous_performance_test,2024.2.4,Win32,60.24096386,318.2636,319.9591,,0,0,1,1,17,1,R,space,,,,,,,,,,
,,,,,R_7mDdWs6TyMY7SJY,001,2025-09-05_12h28.49.442,continuous_performance_test,2024.2.4,Win32,60.24096386,319.9628,321.8091,,0,0,2,2,6,1,G,space,,,,,,,,,,
,,,,,R_7mDdWs6TyMY7SJY,001,2025-09-05_12h28.49.442,continuous_performance_test,2024.2.4,Win32,60.24096386,321.8127,323.7584,,0,0,3,3,7,1,H,space,,,,,,,,,,
,,,,,R_7mDdWs6TyMY7SJY,001,2025-09-05_12h28.49.442,continuous_performance_test,2024.2.4,Win32,60.24096386,323.7605,325.759,,1,0,4,4,25,1,X,,,,,,,,,,,
,,,,,R_7mDdWs6TyMY7SJY,001,2025-09-05_12h28.49.442,continuous_performance_test,2024.2.4,Win32,60.24096386,325.7635,327.7581,,0,0,5,5,24,1,Z,space,,,,,,,,,,
,,,,,R_7mDdWs6TyMY7SJY,001,2025-09-05_12h28.49.442,continuous_performance_test,2024.2.4,Win32,60.24096386,327.7592,329.4587,,0,0,6,6,21,1,V,space,,,,,,,,,,
,,,,,R_7mDdWs6TyMY7SJY,001,2025-09-05_12h28.49.442,continuous_performance_test,2024.2.4,Win32,60.24096386,329.4621,331.2587,,1,0,7,7,29,1,X,,,,,,,,,,,
,,,,,R_7mDdWs6TyMY7SJY,001,2025-09-05_12h28.49.442,continuous_performance_test,2024.2.4,Win32,60.24096386,331.2631,333.1584,,0,0,8,8,10,1,K,space,,,,,,,,,,
,,,,,R_7mDdWs6TyMY7SJY,001,2025-09-05_12h28.49.442,continuous_performance_test,2024.2.4,Win32,60.24096386,333.1629,334.8097,,1,0,9,9,28,1,X,,,,,,,,,,,
,,,,,R_7mDdWs6TyMY7SJY,001,2025-09-05_12h28.49.442,continuous_performance_test,2024.2.4,Win32,60.24096386,334.8138,336.6077,,1,0,10,10,27,1,X,,,,,,,,,,,
,,,,,R_7mDdWs6TyMY7SJY,001,2025-09-05_12h28.49.442,continuous_performance_test,2024.2.4,Win32,60.24096386,336.6123,338.4582,,0,0,11,11,2,1,C,space,,,,,,,,,,
,,,,,R_7mDdWs6TyMY7SJY,001,2025-09-05_12h28.49.442,continuous_performance_test,2024.2.4,Win32,60.24096386,338.4633,340.1586,,0,0,12,12,4,1,E,space,,,,,,,,,,
,,,,,R_7mDdWs6TyMY7SJY,001,2025-09-05_12h28.49.442,continuous_performance_test,2024.2.4,Win32,60.24096386,340.1632,341.7589,,0,0,13,13,8,1,I,space,,,,,,,,,,
,,,,,R_7mDdWs6TyMY7SJY,001,2025-09-05_12h28.49.442,continuous_performance_test,2024.2.4,Win32,60.24096386,341.763,343.7578,,0,0,14,14,15,1,P,space,,,,,,,,,,
,,,,,R_7mDdWs6TyMY7SJY,001,2025-09-05_12h28.49.442,continuous_performance_test,2024.2.4,Win32,60.24096386,343.7608,345.3082,,0,0,15,15,1,1,B,space,,,,,,,,,,
,,,,,R_7mDdWs6TyMY7SJY,001,2025-09-05_12h28.49.442,continuous_performance_test,2024.2.4,Win32,60.24096386,345.3132,347.2587,,0,0,16,16,12,1,M,space,,,,,,,,,,
,,,,,R_7mDdWs6TyMY7SJY,001,2025-09-05_12h28.49.442,continuous_performance_test,2024.2.4,Win32,60.24096386,347.2636,349.2628,,0,0,17,17,23,1,Y,space,,,,,,,,,,
,,,,,R_7mDdWs6TyMY7SJY,001,2025-09-05_12h28.49.442,continuous_performance_test,2024.2.4,Win32,60.24096386,349.2674,351.0579,,0,0,18,18,9,1,J,space,,,,,,,,,,
,,,,,R_7mDdWs6TyMY7SJY,001,2025-09-05_12h28.49.442,continuous_performance_test,2024.2.4,Win32,60.24096386,351.0631,353.0079,,0,0,19,19,22,1,W,space,,,,,,,,,,
,,,,,R_7mDdWs6TyMY7SJY,001,2025-09-05_12h28.49.442,continuous_performance_test,2024.2.4,Win32,60.24096386,353.0129,354.5569,,1,0,20,20,26,1,X,,,,,,,,,,,
,,,,,R_7mDdWs6TyMY7SJY,001,2025-09-05_12h28.49.442,continuous_performance_test,2024.2.4,Win32,60.24096386,354.5591,356.5576,,0,0,21,21,16,1,Q,space,,,,,,,,,,
,,,,,R_7mDdWs6TyMY7SJY,001,2025-09-05_12h28.49.442,continuous_performance_test,2024.2.4,Win32,60.24096386,356.5633,358.2075,,0,0,22,22,3,1,D,space,,,,,,,,,,
,,,,,R_7mDdWs6TyMY7SJY,001,2025-09-05_12h28.49.442,continuous_performance_test,2024.2.4,Win32,60.24096386,358.2115,359.8073,,0,0,23,23,20,1,U,space,,,,,,,,,,
,,,,,R_7mDdWs6TyMY7SJY,001,2025-09-05_12h28.49.442,continuous_performance_test,2024.2.4,Win32,60.24096386,359.8118,361.7075,,0,0,24,24,0,1,A,space,,,,,,,,,,
,,,,,R_7mDdWs6TyMY7SJY,001,2025-09-05_12h28.49.442,continuous_performance_test,2024.2.4,Win32,60.24096386,361.7126,363.2571,,0,0,25,25,5,1,F,space,,,,,,,,,,
,,,,,R_7mDdWs6TyMY7SJY,001,2025-09-05_12h28.49.442,continuous_performance_test,2024.2.4,Win32,60.24096386,363.2609,365.1577,,0,0,26,26,11,1,L,space,,,,,,,,,,
,,,,,R_7mDdWs6TyMY7SJY,001,2025-09-05_12h28.49.442,continuous_performance_test,2024.2.4,Win32,60.24096386,365.1622,366.8072,,0,0,27,27,14,1,O,space,,,,,,,,,,
,,,,,R_7mDdWs6TyMY7SJY,001,2025-09-05_12h28.49.442,continuous_performance_test,2024.2.4,Win32,60.24096386,366.8131,368.7575,,0,0,28,28,18,1,S,space,,,,,,,,,,
,,,,,R_7mDdWs6TyMY7SJY,001,2025-09-05_12h28.49.442,continuous_performance_test,2024.2.4,Win32,60.24096386,368.7614,370.6574,,0,0,29,29,19,1,T,space,,,,,,,,,,
,,,,,R_7mDdWs6TyMY7SJY,001,2025-09-05_12h28.49.442,continuous_performance_test,2024.2.4,Win32,60.24096386,372.2158,374.0065,,0,0,0,0,1,1,B,space,370.6634,372.1907,space,1.5036,,,,,,
,,,,,R_7mDdWs6TyMY7SJY,001,2025-09-05_12h28.49.442,continuous_performance_test,2024.2.4,Win32,60.24096386,374.0109,375.5586,,0,0,1,1,3,1,D,space,,,,,,,,,,
,,,,,R_7mDdWs6TyMY7SJY,001,2025-09-05_12h28.49.442,continuous_performance_test,2024.2.4,Win32,60.24096386,375.565,377.1066,,0,0,2,2,22,1,W,space,,,,,,,,,,
,,,,,R_7mDdWs6TyMY7SJY,001,2025-09-05_12h28.49.442,continuous_performance_test,2024.2.4,Win32,60.24096386,377.1101,378.7563,,0,0,3,3,4,1,E,space,,,,,,,,,,
,,,,,R_7mDdWs6TyMY7SJY,001,2025-09-05_12h28.49.442,continuous_performance_test,2024.2.4,Win32,60.24096386,378.7602,380.7057,,0,0,4,4,2,1,C,space,,,,,,,,,,
,,,,,R_7mDdWs6TyMY7SJY,001,2025-09-05_12h28.49.442,continuous_performance_test,2024.2.4,Win32,60.24096386,380.7074,382.6562,,1,0,5,5,29,1,X,,,,,,,,,,,
,,,,,R_7mDdWs6TyMY7SJY,001,2025-09-05_12h28.49.442,continuous_performance_test,2024.2.4,Win32,60.24096386,382.661,384.4063,,0,0,6,6,14,1,O,space,,,,,,,,,,
,,,,,R_7mDdWs6TyMY7SJY,001,2025-09-05_12h28.49.442,continuous_performance_test,2024.2.4,Win32,60.24096386,384.4107,386.156,,0,0,7,7,18,1,S,space,,,,,,,,,,
,,,,,R_7mDdWs6TyMY7SJY,001,2025-09-05_12h28.49.442,continuous_performance_test,2024.2.4,Win32,60.24096386,386.1607,387.8566,,0,0,8,8,19,1,T,space,,,,,,,,,,
,,,,,R_7mDdWs6TyMY7SJY,001,2025-09-05_12h28.49.442,continuous_performance_test,2024.2.4,Win32,60.24096386,387.8612,389.606,,0,0,9,9,9,1,J,space,,,,,,,,,,
,,,,,R_7mDdWs6TyMY7SJY,001,2025-09-05_12h28.49.442,continuous_performance_test,2024.2.4,Win32,60.24096386,389.6102,391.3057,,0,0,10,10,12,1,M,space,,,,,,,,,,
,,,,,R_7mDdWs6TyMY7SJY,001,2025-09-05_12h28.49.442,continuous_performance_test,2024.2.4,Win32,60.24096386,391.3103,393.1059,,0,0,11,11,7,1,H,space,,,,,,,,,,
,,,,,R_7mDdWs6TyMY7SJY,001,2025-09-05_12h28.49.442,continuous_performance_test,2024.2.4,Win32,60.24096386,393.1109,394.8055,,0,0,12,12,15,1,P,space,,,,,,,,,,
,,,,,R_7mDdWs6TyMY7SJY,001,2025-09-05_12h28.49.442,continuous_performance_test,2024.2.4,Win32,60.24096386,394.81,396.5056,,0,0,13,13,10,1,K,space,,,,,,,,,,
,,,,,R_7mDdWs6TyMY7SJY,001,2025-09-05_12h28.49.442,continuous_performance_test,2024.2.4,Win32,60.24096386,396.5104,398.1555,,0,0,14,14,21,1,V,space,,,,,,,,,,
,,,,,R_7mDdWs6TyMY7SJY,001,2025-09-05_12h28.49.442,continuous_performance_test,2024.2.4,Win32,60.24096386,398.16,400.0056,,0,0,15,15,6,1,G,space,,,,,,,,,,
,,,,,R_7mDdWs6TyMY7SJY,001,2025-09-05_12h28.49.442,continuous_performance_test,2024.2.4,Win32,60.24096386,400.0094,401.6554,,1,0,16,16,25,1,X,,,,,,,,,,,
,,,,,R_7mDdWs6TyMY7SJY,001,2025-09-05_12h28.49.442,continuous_performance_test,2024.2.4,Win32,60.24096386,401.6602,403.3553,,0,0,17,17,20,1,U,space,,,,,,,,,,
,,,,,R_7mDdWs6TyMY7SJY,001,2025-09-05_12h28.49.442,continuous_performance_test,2024.2.4,Win32,60.24096386,403.3587,404.9551,,0,0,18,18,13,1,N,space,,,,,,,,,,
,,,,,R_7mDdWs6TyMY7SJY,001,2025-09-05_12h28.49.442,continuous_performance_test,2024.2.4,Win32,60.24096386,404.9598,406.9051,,1,0,19,19,27,1,X,,,,,,,,,,,
,,,,,R_7mDdWs6TyMY7SJY,001,2025-09-05_12h28.49.442,continuous_performance_test,2024.2.4,Win32,60.24096386,406.9095,408.8052,,0,0,20,20,24,1,Z,space,,,,,,,,,,
,,,,,R_7mDdWs6TyMY7SJY,001,2025-09-05_12h28.49.442,continuous_performance_test,2024.2.4,Win32,60.24096386,408.8104,410.5051,,0,0,21,21,23,1,Y,space,,,,,,,,,,
,,,,,R_7mDdWs6TyMY7SJY,001,2025-09-05_12h28.49.442,continuous_performance_test,2024.2.4,Win32,60.24096386,410.5092,412.1048,,0,0,22,22,5,1,F,space,,,,,,,,,,
,,,,,R_7mDdWs6TyMY7SJY,001,2025-09-05_12h28.49.442,continuous_performance_test,2024.2.4,Win32,60.24096386,412.1085,414.1048,,0,0,23,23,16,1,Q,space,,,,,,,,,,
,,,,,R_7mDdWs6TyMY7SJY,001,2025-09-05_12h28.49.442,continuous_performance_test,2024.2.4,Win32,60.24096386,414.1095,415.6546,,1,0,24,24,28,1,X,,,,,,,,,,,
,,,,,R_7mDdWs6TyMY7SJY,001,2025-09-05_12h28.49.442,continuous_performance_test,2024.2.4,Win32,60.24096386,415.6586,417.6548,,0,0,25,25,0,1,A,space,,,,,,,,,,
,,,,,R_7mDdWs6TyMY7SJY,001,2025-09-05_12h28.49.442,continuous_performance_test,2024.2.4,Win32,60.24096386,417.6604,419.5546,,0,0,26,26,8,1,I,space,,,,,,,,,,
,,,,,R_7mDdWs6TyMY7SJY,001,2025-09-05_12h28.49.442,continuous_performance_test,2024.2.4,Win32,60.24096386,419.5582,421.2546,,0,0,27,27,17,1,R,space,,,,,,,,,,
,,,,,R_7mDdWs6TyMY7SJY,001,2025-09-05_12h28.49.442,continuous_performance_test,2024.2.4,Win32,60.24096386,421.2596,422.8544,,0,0,28,28,11,1,L,space,,,,,,,,,,
,,,,,R_7mDdWs6TyMY7SJY,001,2025-09-05_12h28.49.442,continuous_performance_test,2024.2.4,Win32,60.24096386,422.8599,424.4543,,1,0,29,29,26,1,X,,,,,,,,,,,
,,,,,R_7mDdWs6TyMY7SJY,001,2025-09-05_12h28.49.442,continuous_performance_test,2024.2.4,Win32,60.24096386,425.1432,426.6876,,0,0,0,0,15,1,P,space,424.4604,425.1215,space,0.6411,,,,,,
,,,,,R_7mDdWs6TyMY7SJY,001,2025-09-05_12h28.49.442,continuous_performance_test,2024.2.4,Win32,60.24096386,426.6927,428.6876,,0,0,1,1,17,1,R,space,,,,,,,,,,
,,,,,R_7mDdWs6TyMY7SJY,001,2025-09-05_12h28.49.442,continuous_performance_test,2024.2.4,Win32,60.24096386,428.6911,430.5869,,1,0,2,2,26,1,X,,,,,,,,,,,
,,,,,R_7mDdWs6TyMY7SJY,001,2025-09-05_12h28.49.442,continuous_performance_test,2024.2.4,Win32,60.24096386,430.5893,432.3865,,0,0,3,3,23,1,Y,space,,,,,,,,,,
,,,,,R_7mDdWs6TyMY7SJY,001,2025-09-05_12h28.49.442,continuous_performance_test,2024.2.4,Win32,60.24096386,432.3878,434.2872,,0,0,4,4,8,1,I,space,,,,,,,,,,
,,,,,R_7mDdWs6TyMY7SJY,001,2025-09-05_12h28.49.442,continuous_performance_test,2024.2.4,Win32,60.24096386,434.2912,436.1872,,0,0,5,5,6,1,G,space,,,,,,,,,,
,,,,,R_7mDdWs6TyMY7SJY,001,2025-09-05_12h28.49.442,continuous_performance_test,2024.2.4,Win32,60.24096386,436.1928,437.887,,0,0,6,6,10,1,K,space,,,,,,,,,,
,,,,,R_7mDdWs6TyMY7SJY,001,2025-09-05_12h28.49.442,continuous_performance_test,2024.2.4,Win32,60.24096386,437.8917,439.8868,,0,0,7,7,3,1,D,space,,,,,,,,,,
,,,,,R_7mDdWs6TyMY7SJY,001,2025-09-05_12h28.49.442,continuous_performance_test,2024.2.4,Win32,60.24096386,439.8908,441.8867,,0,0,8,8,4,1,E,space,,,,,,,,,,
,,,,,R_7mDdWs6TyMY7SJY,001,2025-09-05_12h28.49.442,continuous_performance_test,2024.2.4,Win32,60.24096386,441.8917,443.7865,,1,0,9,9,29,1,X,,,,,,,,,,,
,,,,,R_7mDdWs6TyMY7SJY,001,2025-09-05_12h28.49.442,continuous_performance_test,2024.2.4,Win32,60.24096386,443.7893,445.6366,,0,0,10,10,22,1,W,space,,,,,,,,,,
,,,,,R_7mDdWs6TyMY7SJY,001,2025-09-05_12h28.49.442,continuous_performance_test,2024.2.4,Win32,60.24096386,445.6419,447.5867,,0,0,11,11,1,1,B,space,,,,,,,,,,
,,,,,R_7mDdWs6TyMY7SJY,001,2025-09-05_12h28.49.442,continuous_performance_test,2024.2.4,Win32,60.24096386,447.5914,449.4364,,0,0,12,12,18,1,S,space,,,,,,,,,,
,,,,,R_7mDdWs6TyMY7SJY,001,2025-09-05_12h28.49.442,continuous_performance_test,2024.2.4,Win32,60.24096386,449.4414,451.4363,,0,0,13,13,9,1,J,space,,,,,,,,,,
,,,,,R_7mDdWs6TyMY7SJY,001,2025-09-05_12h28.49.442,continuous_performance_test,2024.2.4,Win32,60.24096386,451.4409,452.9863,,1,0,14,14,28,1,X,,,,,,,,,,,
,,,,,R_7mDdWs6TyMY7SJY,001,2025-09-05_12h28.49.442,continuous_performance_test,2024.2.4,Win32,60.24096386,452.9906,454.786,,0,0,15,15,16,1,Q,space,,,,,,,,,,
,,,,,R_7mDdWs6TyMY7SJY,001,2025-09-05_12h28.49.442,continuous_performance_test,2024.2.4,Win32,60.24096386,454.7915,456.7861,,0,0,16,16,5,1,F,space,,,,,,,,,,
,,,,,R_7mDdWs6TyMY7SJY,001,2025-09-05_12h28.49.442,continuous_performance_test,2024.2.4,Win32,60.24096386,456.7914,458.7356,,0,0,17,17,24,1,Z,space,,,,,,,,,,
,,,,,R_7mDdWs6TyMY7SJY,001,2025-09-05_12h28.49.442,continuous_performance_test,2024.2.4,Win32,60.24096386,458.7382,460.336,,0,0,18,18,2,1,C,space,,,,,,,,,,
,,,,,R_7mDdWs6TyMY7SJY,001,2025-09-05_12h28.49.442,continuous_performance_test,2024.2.4,Win32,60.24096386,460.3403,461.8856,,0,0,19,19,7,1,H,space,,,,,,,,,,
,,,,,R_7mDdWs6TyMY7SJY,001,2025-09-05_12h28.49.442,continuous_performance_test,2024.2.4,Win32,60.24096386,461.8889,463.735,,0,0,20,20,13,1,N,space,,,,,,,,,,
,,,,,R_7mDdWs6TyMY7SJY,001,2025-09-05_12h28.49.442,continuous_performance_test,2024.2.4,Win32,60.24096386,463.7365,465.6856,,0,0,21,21,14,1,O,space,,,,,,,,,,
,,,,,R_7mDdWs6TyMY7SJY,001,2025-09-05_12h28.49.442,continuous_performance_test,2024.2.4,Win32,60.24096386,465.6912,467.5355,,1,0,22,22,25,1,X,,,,,,,,,,,
,,,,,R_7mDdWs6TyMY7SJY,001,2025-09-05_12h28.49.442,continuous_performance_test,2024.2.4,Win32,60.24096386,467.5394,469.1852,,0,0,23,23,19,1,T,space,,,,,,,,,,
,,,,,R_7mDdWs6TyMY7SJY,001,2025-09-05_12h28.49.442,continuous_performance_test,2024.2.4,Win32,60.24096386,469.1887,470.8349,,0,0,24,24,21,1,V,space,,,,,,,,,,
,,,,,R_7mDdWs6TyMY7SJY,001,2025-09-05_12h28.49.442,continuous_performance_test,2024.2.4,Win32,60.24096386,470.837,472.4856,,0,0,25,25,20,1,U,space,,,,,,,,,,
,,,,,R_7mDdWs6TyMY7SJY,001,2025-09-05_12h28.49.442,continuous_performance_test,2024.2.4,Win32,60.24096386,472.4899,474.1353,,1,0,26,26,27,1,X,,,,,,,,,,,
,,,,,R_7mDdWs6TyMY7SJY,001,2025-09-05_12h28.49.442,continuous_performance_test,2024.2.4,Win32,60.24096386,474.1417,476.1352,,0,0,27,27,0,1,A,space,,,,,,,,,,
,,,,,R_7mDdWs6TyMY7SJY,001,2025-09-05_12h28.49.442,continuous_performance_test,2024.2.4,Win32,60.24096386,476.1399,477.8352,,0,0,28,28,11,1,L,space,,,,,,,,,,
,,,,,R_7mDdWs6TyMY7SJY,001,2025-09-05_12h28.49.442,continuous_performance_test,2024.2.4,Win32,60.24096386,477.8399,479.4352,,0,0,29,29,12,1,M,space,,,,,,,,,,
,,,,,R_7mDdWs6TyMY7SJY,001,2025-09-05_12h28.49.442,continuous_performance_test,2024.2.4,Win32,60.24096386,480.4732,482.2179,,0,0,0,0,10,1,K,space,479.4405,480.4521,space,0.9905,,,,,,
,,,,,R_7mDdWs6TyMY7SJY,001,2025-09-05_12h28.49.442,continuous_performance_test,2024.2.4,Win32,60.24096386,482.221,483.7683,,1,0,1,1,25,1,X,,,,,,,,,,,
,,,,,R_7mDdWs6TyMY7SJY,001,2025-09-05_12h28.49.442,continuous_performance_test,2024.2.4,Win32,60.24096386,483.7717,485.3682,,0,0,2,2,19,1,T,space,,,,,,,,,,
,,,,,R_7mDdWs6TyMY7SJY,001,2025-09-05_12h28.49.442,continuous_performance_test,2024.2.4,Win32,60.24096386,485.3728,487.2687,,0,0,3,3,16,1,Q,space,,,,,,,,,,
,,,,,R_7mDdWs6TyMY7SJY,001,2025-09-05_12h28.49.442,continuous_performance_test,2024.2.4,Win32,60.24096386,487.2727,489.0181,,0,0,4,4,11,1,L,space,,,,,,,,,,
,,,,,R_7mDdWs6TyMY7SJY,001,2025-09-05_12h28.49.442,continuous_performance_test,2024.2.4,Win32,60.24096386,489.022,490.8175,,0,0,5,5,3,1,D,space,,,,,,,,,,
,,,,,R_7mDdWs6TyMY7SJY,001,2025-09-05_12h28.49.442,continuous_performance_test,2024.2.4,Win32,60.24096386,490.8198,492.6181,,0,0,6,6,1,1,B,space,,,,,,,,,,
,,,,,R_7mDdWs6TyMY7SJY,001,2025-09-05_12h28.49.442,continuous_performance_test,2024.2.4,Win32,60.24096386,492.6227,494.4184,,0,0,7,7,18,1,S,space,,,,,,,,,,
,,,,,R_7mDdWs6TyMY7SJY,001,2025-09-05_12h28.49.442,continuous_performance_test,2024.2.4,Win32,60.24096386,494.4233,496.3682,,0,0,8,8,9,1,J,space,,,,,,,,,,
,,,,,R_7mDdWs6TyMY7SJY,001,2025-09-05_12h28.49.442,continuous_performance_test,2024.2.4,Win32,60.24096386,496.3726,498.1677,,0,0,9,9,13,1,N,space,,,,,,,,,,
,,,,,R_7mDdWs6TyMY7SJY,001,2025-09-05_12h28.49.442,continuous_performance_test,2024.2.4,Win32,60.24096386,498.1743,500.0176,,1,0,10,10,29,1,X,,,,,,,,,,,
,,,,,R_7mDdWs6TyMY7SJY,001,2025-09-05_12h28.49.442,continuous_performance_test,2024.2.4,Win32,60.24096386,500.0226,501.6176,,0,0,11,11,22,1,W,space,,,,,,,,,,
,,,,,R_7mDdWs6TyMY7SJY,001,2025-09-05_12h28.49.442,continuous_performance_test,2024.2.4,Win32,60.24096386,501.623,503.1676,,1,0,12,12,26,1,X,,,,,,,,,,,
,,,,,R_7mDdWs6TyMY7SJY,001,2025-09-05_12h28.49.442,continuous_performance_test,2024.2.4,Win32,60.24096386,503.173,504.7167,,0,0,13,13,20,1,U,space,,,,,,,,,,
,,,,,R_7mDdWs6TyMY7SJY,001,2025-09-05_12h28.49.442,continuous_performance_test,2024.2.4,Win32,60.24096386,504.7196,506.6175,,0,0,14,14,7,1,H,space,,,,,,,,,,
,,,,,R_7mDdWs6TyMY7SJY,001,2025-09-05_12h28.49.442,continuous_performance_test,2024.2.4,Win32,60.24096386,506.6224,508.5219,,0,0,15,15,14,1,O,space,,,,,,,,,,
,,,,,R_7mDdWs6TyMY7SJY,001,2025-09-05_12h28.49.442,continuous_performance_test,2024.2.4,Win32,60.24096386,508.5265,510.4719,,0,0,16,16,2,1,C,space,,,,,,,,,,
,,,,,R_7mDdWs6TyMY7SJY,001,2025-09-05_12h28.49.442,continuous_performance_test,2024.2.4,Win32,60.24096386,510.4759,512.1673,,0,0,17,17,23,1,Y,space,,,,,,,,,,
,,,,,R_7mDdWs6TyMY7SJY,001,2025-09-05_12h28.49.442,continuous_performance_test,2024.2.4,Win32,60.24096386,512.172,513.8171,,0,0,18,18,12,1,M,space,,,,,,,,,,
,,,,,R_7mDdWs6TyMY7SJY,001,2025-09-05_12h28.49.442,continuous_performance_test,2024.2.4,Win32,60.24096386,513.8217,515.817,,1,0,19,19,28,1,X,,,,,,,,,,,
,,,,,R_7mDdWs6TyMY7SJY,001,2025-09-05_12h28.49.442,continuous_performance_test,2024.2.4,Win32,60.24096386,515.8217,517.7174,,0,0,20,20,5,1,F,space,,,,,,,,,,
,,,,,R_7mDdWs6TyMY7SJY,001,2025-09-05_12h28.49.442,continuous_performance_test,2024.2.4,Win32,60.24096386,517.7216,519.7187,,0,0,21,21,21,1,V,space,,,,,,,,,,
,,,,,R_7mDdWs6TyMY7SJY,001,2025-09-05_12h28.49.442,continuous_performance_test,2024.2.4,Win32,60.24096386,519.7236,521.3158,,0,0,22,22,17,1,R,space,,,,,,,,,,
,,,,,R_7mDdWs6TyMY7SJY,001,2025-09-05_12h28.49.442,continuous_performance_test,2024.2.4,Win32,60.24096386,521.3181,522.8667,,0,0,23,23,0,1,A,space,,,,,,,,,,
,,,,,R_7mDdWs6TyMY7SJY,001,2025-09-05_12h28.49.442,continuous_performance_test,2024.2.4,Win32,60.24096386,522.8722,524.8657,,0,0,24,24,8,1,I,space,,,,,,,,,,
,,,,,R_7mDdWs6TyMY7SJY,001,2025-09-05_12h28.49.442,continuous_performance_test,2024.2.4,Win32,60.24096386,524.8681,526.867,,0,0,25,25,6,1,G,space,,,,,,,,,,
,,,,,R_7mDdWs6TyMY7SJY,001,2025-09-05_12h28.49.442,continuous_performance_test,2024.2.4,Win32,60.24096386,526.8715,528.5664,,0,0,26,26,4,1,E,space,,,,,,,,,,
,,,,,R_7mDdWs6TyMY7SJY,001,2025-09-05_12h28.49.442,continuous_performance_test,2024.2.4,Win32,60.24096386,528.5717,530.3691,,0,0,27,27,24,1,Z,space,,,,,,,,,,
,,,,,R_7mDdWs6TyMY7SJY,001,2025-09-05_12h28.49.442,continuous_performance_test,2024.2.4,Win32,60.24096386,530.3735,532.0664,,1,0,28,28,27,1,X,,,,,,,,,,,
,,,,,R_7mDdWs6TyMY7SJY,001,2025-09-05_12h28.49.442,continuous_performance_test,2024.2.4,Win32,60.24096386,532.0718,533.8162,,0,0,29,29,15,1,P,space,,,,,,,,,,
,,,,,R_7mDdWs6TyMY7SJY,001,2025-09-05_12h28.49.442,continuous_performance_test,2024.2.4,Win32,60.24096386,540.2614,541.8987,,0,0,0,0,18,1,S,space,533.8221,540.2333,space,6.3867,,,,,,
,,,,,R_7mDdWs6TyMY7SJY,001,2025-09-05_12h28.49.442,continuous_performance_test,2024.2.4,Win32,60.24096386,541.9034,543.549,,1,0,1,1,25,1,X,,,,,,,,,,,
,,,,,R_7mDdWs6TyMY7SJY,001,2025-09-05_12h28.49.442,continuous_performance_test,2024.2.4,Win32,60.24096386,543.553,545.199,,0,0,2,2,15,1,P,space,,,,,,,,,,
,,,,,R_7mDdWs6TyMY7SJY,001,2025-09-05_12h28.49.442,continuous_performance_test,2024.2.4,Win32,60.24096386,545.204,547.0487,,1,0,3,3,26,1,X,,,,,,,,,,,
,,,,,R_7mDdWs6TyMY7SJY,001,2025-09-05_12h28.49.442,continuous_performance_test,2024.2.4,Win32,60.24096386,547.0521,548.7982,,1,0,4,4,29,1,X,,,,,,,,,,,
,,,,,R_7mDdWs6TyMY7SJY,001,2025-09-05_12h28.49.442,continuous_performance_test,2024.2.4,Win32,60.24096386,548.8008,550.7487,,0,0,5,5,4,1,E,space,,,,,,,,,,
,,,,,R_7mDdWs6TyMY7SJY,001,2025-09-05_12h28.49.442,continuous_performance_test,2024.2.4,Win32,60.24096386,550.7538,552.6476,,0,0,6,6,7,1,H,space,,,,,,,,,,
,,,,,R_7mDdWs6TyMY7SJY,001,2025-09-05_12h28.49.442,continuous_performance_test,2024.2.4,Win32,60.24096386,552.6487,554.4979,,0,0,7,7,6,1,G,space,,,,,,,,,,
,,,,,R_7mDdWs6TyMY7SJY,001,2025-09-05_12h28.49.442,continuous_performance_test,2024.2.4,Win32,60.24096386,554.5013,556.4477,,0,0,8,8,5,1,F,space,,,,,,,,,,
,,,,,R_7mDdWs6TyMY7SJY,001,2025-09-05_12h28.49.442,continuous_performance_test,2024.2.4,Win32,60.24096386,556.4496,558.3979,,0,0,9,9,10,1,K,space,,,,,,,,,,
,,,,,R_7mDdWs6TyMY7SJY,001,2025-09-05_12h28.49.442,continuous_performance_test,2024.2.4,Win32,60.24096386,558.4019,560.048,,1,0,10,10,28,1,X,,,,,,,,,,,
,,,,,R_7mDdWs6TyMY7SJY,001,2025-09-05_12h28.49.442,continuous_performance_test,2024.2.4,Win32,60.24096386,560.0527,561.5983,,0,0,11,11,11,1,L,space,,,,,,,,,,
,,,,,R_7mDdWs6TyMY7SJY,001,2025-09-05_12h28.49.442,continuous_performance_test,2024.2.4,Win32,60.24096386,561.6025,563.5481,,0,0,12,12,21,1,V,space,,,,,,,,,,
,,,,,R_7mDdWs6TyMY7SJY,001,2025-09-05_12h28.49.442,continuous_performance_test,2024.2.4,Win32,60.24096386,563.5536,565.398,,0,0,13,13,22,1,W,space,,,,,,,,,,
,,,,,R_7mDdWs6TyMY7SJY,001,2025-09-05_12h28.49.442,continuous_performance_test,2024.2.4,Win32,60.24096386,565.4024,566.9978,,0,0,14,14,16,1,Q,space,,,,,,,,,,
,,,,,R_7mDdWs6TyMY7SJY,001,2025-09-05_12h28.49.442,continuous_performance_test,2024.2.4,Win32,60.24096386,567.0035,568.8974,,0,0,15,15,2,1,C,space,,,,,,,,,,
,,,,,R_7mDdWs6TyMY7SJY,001,2025-09-05_12h28.49.442,continuous_performance_test,2024.2.4,Win32,60.24096386,568.9014,570.6977,,0,0,16,16,20,1,U,space,,,,,,,,,,
,,,,,R_7mDdWs6TyMY7SJY,001,2025-09-05_12h28.49.442,continuous_performance_test,2024.2.4,Win32,60.24096386,570.7025,572.4977,,0,0,17,17,3,1,D,space,,,,,,,,,,
,,,,,R_7mDdWs6TyMY7SJY,001,2025-09-05_12h28.49.442,continuous_performance_test,2024.2.4,Win32,60.24096386,572.5017,574.1475,,0,0,18,18,14,1,O,space,,,,,,,,,,
,,,,,R_7mDdWs6TyMY7SJY,001,2025-09-05_12h28.49.442,continuous_performance_test,2024.2.4,Win32,60.24096386,574.1521,575.8974,,0,0,19,19,17,1,R,space,,,,,,,,,,
,,,,,R_7mDdWs6TyMY7SJY,001,2025-09-05_12h28.49.442,continuous_performance_test,2024.2.4,Win32,60.24096386,575.9006,577.5971,,0,0,20,20,8,1,I,space,,,,,,,,,,
,,,,,R_7mDdWs6TyMY7SJY,001,2025-09-05_12h28.49.442,continuous_performance_test,2024.2.4,Win32,60.24096386,577.6009,579.3471,,0,0,21,21,12,1,M,space,,,,,,,,,,
,,,,,R_7mDdWs6TyMY7SJY,001,2025-09-05_12h28.49.442,continuous_performance_test,2024.2.4,Win32,60.24096386,579.3505,580.8968,,0,0,22,22,24,1,Z,space,,,,,,,,,,
,,,,,R_7mDdWs6TyMY7SJY,001,2025-09-05_12h28.49.442,continuous_performance_test,2024.2.4,Win32,60.24096386,580.9013,582.547,,0,0,23,23,1,1,B,space,,,,,,,,,,
,,,,,R_7mDdWs6TyMY7SJY,001,2025-09-05_12h28.49.442,continuous_performance_test,2024.2.4,Win32,60.24096386,582.5503,584.5469,,0,0,24,24,19,1,T,space,,,,,,,,,,
,,,,,R_7mDdWs6TyMY7SJY,001,2025-09-05_12h28.49.442,continuous_performance_test,2024.2.4,Win32,60.24096386,584.5506,586.397,,0,0,25,25,0,1,A,space,,,,,,,,,,
,,,,,R_7mDdWs6TyMY7SJY,001,2025-09-05_12h28.49.442,continuous_performance_test,2024.2.4,Win32,60.24096386,586.4016,588.0969,,0,0,26,26,23,1,Y,space,,,,,,,,,,
,,,,,R_7mDdWs6TyMY7SJY,001,2025-09-05_12h28.49.442,continuous_performance_test,2024.2.4,Win32,60.24096386,588.1016,589.9958,,0,0,27,27,9,1,J,space,,,,,,,,,,
,,,,,R_7mDdWs6TyMY7SJY,001,2025-09-05_12h28.49.442,continuous_performance_test,2024.2.4,Win32,60.24096386,589.9981,591.7957,,0,0,28,28,13,1,N,space,,,,,,,,,,
,,,,,R_7mDdWs6TyMY7SJY,001,2025-09-05_12h28.49.442,continuous_performance_test,2024.2.4,Win32,60.24096386,591.797,593.5466,,1,0,29,29,27,1,X,,,,,,,,,,,
,,,,,R_7mDdWs6TyMY7SJY,001,2025-09-05_12h28.49.442,continuous_performance_test,2024.2.4,Win32,60.24096386,,,,,,,,,,,,593.5508,593.5528,,,,593.5539,601.5142,space,7.9366,
