Instructions.started,Instructions.stopped,key_resp.keys,key_resp.rt,key_resp.duration,participant,session,date,expName,psychopyVersion,OS,frameRate,realeye-tester-id,realeye-tester-quality_grade,Trial_noX.started,Trial_noX.stopped,response.keys,response.corr,trials_noX.thisRepN,trials_noX.thisTrialN,trials_noX.thisN,trials_noX.thisIndex,trials_noX.ran,letter,corrAns,response.rt,response.duration,BlockBreak.started,BlockBreak.stopped,key_instruct.keys,key_instruct.rt,key_instruct.duration,End_NoX.started,End_NoX.stopped,key_resp_end_noX.keys,key_resp_end_noX.rt,key_resp_end_noX.duration
0.0003,23.4221,space,23.4075,,R_82R35ItJxL12AnJ,001,2025-09-10_13h05.00.771,continuous_performance_test,2024.2.4,Win32,59.52380952,49df378b-344f-429f-b4af-04ea5646092d,5,,,,,,,,,,,,,,,,,,,,,,,
,,,,,R_82R35ItJxL12AnJ,001,2025-09-10_13h05.00.771,continuous_performance_test,2024.2.4,Win32,59.52380952,49df378b-344f-429f-b4af-04ea5646092d,5,23.4328,25.0321,,0,0,0,0,8,1,I,space,,,,,,,,,,,,
,,,,,R_82R35ItJxL12AnJ,001,2025-09-10_13h05.00.771,continuous_performance_test,2024.2.4,Win32,59.52380952,49df378b-344f-429f-b4af-04ea5646092d,5,25.0344,27.0314,,0,0,1,1,19,1,T,space,,,,,,,,,,,,
,,,,,R_82R35ItJxL12AnJ,001,2025-09-10_13h05.00.771,continuous_performance_test,2024.2.4,Win32,59.52380952,49df378b-344f-429f-b4af-04ea5646092d,5,27.0324,28.6314,,0,0,2,2,11,1,L,space,,,,,,,,,,,,
,,,,,R_82R35ItJxL12AnJ,001,2025-09-10_13h05.00.771,continuous_performance_test,2024.2.4,Win32,59.52380952,49df378b-344f-429f-b4af-04ea5646092d,5,28.633,30.3815,,0,0,3,3,3,1,D,space,,,,,,,,,,,,
,,,,,R_82R35ItJxL12AnJ,001,2025-09-10_13h05.00.771,continuous_performance_test,2024.2.4,Win32,59.52380952,49df378b-344f-429f-b4af-04ea5646092d,5,30.3837,32.1815,,0,0,4,4,13,1,N,space,,,,,,,,,,,,
,,,,,R_82R35ItJxL12AnJ,001,2025-09-10_13h05.00.771,continuous_performance_test,2024.2.4,Win32,59.52380952,49df378b-344f-429f-b4af-04ea5646092d,5,32.1826,34.0316,space,0,0,5,5,26,1,X,,0.835,,,,,,,,,,,
,,,,,R_82R35ItJxL12AnJ,001,2025-09-10_13h05.00.771,continuous_performance_test,2024.2.4,Win32,59.52380952,49df378b-344f-429f-b4af-04ea5646092d,5,34.0329,35.9318,,0,0,6,6,23,1,Y,space,,,,,,,,,,,,
,,,,,R_82R35ItJxL12AnJ,001,2025-09-10_13h05.00.771,continuous_performance_test,2024.2.4,Win32,59.52380952,49df378b-344f-429f-b4af-04ea5646092d,5,35.934,37.7317,space,0,0,7,7,28,1,X,,0.5342,,,,,,,,,,,
,,,,,R_82R35ItJxL12AnJ,001,2025-09-10_13h05.00.771,continuous_performance_test,2024.2.4,Win32,59.52380952,49df378b-344f-429f-b4af-04ea5646092d,5,37.7348,39.6816,,0,0,8,8,4,1,E,space,,,,,,,,,,,,
,,,,,R_82R35ItJxL12AnJ,001,2025-09-10_13h05.00.771,continuous_performance_test,2024.2.4,Win32,59.52380952,49df378b-344f-429f-b4af-04ea5646092d,5,39.6834,41.5316,,0,0,9,9,5,1,F,space,,,,,,,,,,,,
,,,,,R_82R35ItJxL12AnJ,001,2025-09-10_13h05.00.771,continuous_performance_test,2024.2.4,Win32,59.52380952,49df378b-344f-429f-b4af-04ea5646092d,5,41.5336,43.0815,,0,0,10,10,20,1,U,space,,,,,,,,,,,,
,,,,,R_82R35ItJxL12AnJ,001,2025-09-10_13h05.00.771,continuous_performance_test,2024.2.4,Win32,59.52380952,49df378b-344f-429f-b4af-04ea5646092d,5,43.083,44.7813,,0,0,11,11,6,1,G,space,,,,,,,,,,,,
,,,,,R_82R35ItJxL12AnJ,001,2025-09-10_13h05.00.771,continuous_performance_test,2024.2.4,Win32,59.52380952,49df378b-344f-429f-b4af-04ea5646092d,5,44.7826,46.332,,0,0,12,12,18,1,S,space,,,,,,,,,,,,
,,,,,R_82R35ItJxL12AnJ,001,2025-09-10_13h05.00.771,continuous_performance_test,2024.2.4,Win32,59.52380952,49df378b-344f-429f-b4af-04ea5646092d,5,46.3339,48.2316,space,0,0,13,13,29,1,X,,0.4327,,,,,,,,,,,
,,,,,R_82R35ItJxL12AnJ,001,2025-09-10_13h05.00.771,continuous_performance_test,2024.2.4,Win32,59.52380952,49df378b-344f-429f-b4af-04ea5646092d,5,48.2334,49.8812,,0,0,14,14,15,1,P,space,,,,,,,,,,,,
,,,,,R_82R35ItJxL12AnJ,001,2025-09-10_13h05.00.771,continuous_performance_test,2024.2.4,Win32,59.52380952,49df378b-344f-429f-b4af-04ea5646092d,5,49.8823,51.5813,,0,0,15,15,2,1,C,space,,,,,,,,,,,,
,,,,,R_82R35ItJxL12AnJ,001,2025-09-10_13h05.00.771,continuous_performance_test,2024.2.4,Win32,59.52380952,49df378b-344f-429f-b4af-04ea5646092d,5,51.5824,53.1813,,0,0,16,16,9,1,J,space,,,,,,,,,,,,
,,,,,R_82R35ItJxL12AnJ,001,2025-09-10_13h05.00.771,continuous_performance_test,2024.2.4,Win32,59.52380952,49df378b-344f-429f-b4af-04ea5646092d,5,53.1822,55.0813,,0,0,17,17,1,1,B,space,,,,,,,,,,,,
,,,,,R_82R35ItJxL12AnJ,001,2025-09-10_13h05.00.771,continuous_performance_test,2024.2.4,Win32,59.52380952,49df378b-344f-429f-b4af-04ea5646092d,5,55.0819,57.032,,0,0,18,18,12,1,M,space,,,,,,,,,,,,
,,,,,R_82R35ItJxL12AnJ,001,2025-09-10_13h05.00.771,continuous_performance_test,2024.2.4,Win32,59.52380952,49df378b-344f-429f-b4af-04ea5646092d,5,57.0343,58.8817,space,0,0,19,19,25,1,X,,0.5163,,,,,,,,,,,
,,,,,R_82R35ItJxL12AnJ,001,2025-09-10_13h05.00.771,continuous_performance_test,2024.2.4,Win32,59.52380952,49df378b-344f-429f-b4af-04ea5646092d,5,58.8842,60.7317,,0,0,20,20,16,1,Q,space,,,,,,,,,,,,
,,,,,R_82R35ItJxL12AnJ,001,2025-09-10_13h05.00.771,continuous_performance_test,2024.2.4,Win32,59.52380952,49df378b-344f-429f-b4af-04ea5646092d,5,60.7336,62.4315,,0,0,21,21,10,1,K,space,,,,,,,,,,,,
,,,,,R_82R35ItJxL12AnJ,001,2025-09-10_13h05.00.771,continuous_performance_test,2024.2.4,Win32,59.52380952,49df378b-344f-429f-b4af-04ea5646092d,5,62.4331,64.0814,space,0,0,22,22,27,1,X,,0.6,,,,,,,,,,,
,,,,,R_82R35ItJxL12AnJ,001,2025-09-10_13h05.00.771,continuous_performance_test,2024.2.4,Win32,59.52380952,49df378b-344f-429f-b4af-04ea5646092d,5,64.0823,65.9812,,0,0,23,23,24,1,Z,space,,,,,,,,,,,,
,,,,,R_82R35ItJxL12AnJ,001,2025-09-10_13h05.00.771,continuous_performance_test,2024.2.4,Win32,59.52380952,49df378b-344f-429f-b4af-04ea5646092d,5,65.9822,67.6315,,0,0,24,24,21,1,V,space,,,,,,,,,,,,
,,,,,R_82R35ItJxL12AnJ,001,2025-09-10_13h05.00.771,continuous_performance_test,2024.2.4,Win32,59.52380952,49df378b-344f-429f-b4af-04ea5646092d,5,67.6337,69.5818,,0,0,25,25,17,1,R,space,,,,,,,,,,,,
,,,,,R_82R35ItJxL12AnJ,001,2025-09-10_13h05.00.771,continuous_performance_test,2024.2.4,Win32,59.52380952,49df378b-344f-429f-b4af-04ea5646092d,5,69.5843,71.5313,,0,0,26,26,0,1,A,space,,,,,,,,,,,,
,,,,,R_82R35ItJxL12AnJ,001,2025-09-10_13h05.00.771,continuous_performance_test,2024.2.4,Win32,59.52380952,49df378b-344f-429f-b4af-04ea5646092d,5,71.5323,73.1814,,0,0,27,27,7,1,H,space,,,,,,,,,,,,
,,,,,R_82R35ItJxL12AnJ,001,2025-09-10_13h05.00.771,continuous_performance_test,2024.2.4,Win32,59.52380952,49df378b-344f-429f-b4af-04ea5646092d,5,73.1825,74.8814,,0,0,28,28,22,1,W,space,,,,,,,,,,,,
,,,,,R_82R35ItJxL12AnJ,001,2025-09-10_13h05.00.771,continuous_performance_test,2024.2.4,Win32,59.52380952,49df378b-344f-429f-b4af-04ea5646092d,5,74.8824,76.5315,,0,0,29,29,14,1,O,space,,,,,,,,,,,,
,,,,,R_82R35ItJxL12AnJ,001,2025-09-10_13h05.00.771,continuous_performance_test,2024.2.4,Win32,59.52380952,49df378b-344f-429f-b4af-04ea5646092d,5,77.143,78.8316,,0,0,0,0,12,1,M,space,,,76.5321,77.1386,space,0.5838,0.0001,,,,,
,,,,,R_82R35ItJxL12AnJ,001,2025-09-10_13h05.00.771,continuous_performance_test,2024.2.4,Win32,59.52380952,49df378b-344f-429f-b4af-04ea5646092d,5,78.8324,80.4859,,0,0,1,1,20,1,U,space,,,,,,,,,,,,
,,,,,R_82R35ItJxL12AnJ,001,2025-09-10_13h05.00.771,continuous_performance_test,2024.2.4,Win32,59.52380952,49df378b-344f-429f-b4af-04ea5646092d,5,80.4867,82.0816,,0,0,2,2,21,1,V,space,,,,,,,,,,,,
,,,,,R_82R35ItJxL12AnJ,001,2025-09-10_13h05.00.771,continuous_performance_test,2024.2.4,Win32,59.52380952,49df378b-344f-429f-b4af-04ea5646092d,5,82.0821,83.9371,,0,0,3,3,18,1,S,space,,,,,,,,,,,,
,,,,,R_82R35ItJxL12AnJ,001,2025-09-10_13h05.00.771,continuous_performance_test,2024.2.4,Win32,59.52380952,49df378b-344f-429f-b4af-04ea5646092d,5,83.9376,85.8769,,0,0,4,4,8,1,I,space,,,,,,,,,,,,
,,,,,R_82R35ItJxL12AnJ,001,2025-09-10_13h05.00.771,continuous_performance_test,2024.2.4,Win32,59.52380952,49df378b-344f-429f-b4af-04ea5646092d,5,85.8775,87.6148,,0,0,5,5,11,1,L,space,,,,,,,,,,,,
,,,,,R_82R35ItJxL12AnJ,001,2025-09-10_13h05.00.771,continuous_performance_test,2024.2.4,Win32,59.52380952,49df378b-344f-429f-b4af-04ea5646092d,5,87.6155,89.2708,,0,0,6,6,17,1,R,space,,,,,,,,,,,,
,,,,,R_82R35ItJxL12AnJ,001,2025-09-10_13h05.00.771,continuous_performance_test,2024.2.4,Win32,59.52380952,49df378b-344f-429f-b4af-04ea5646092d,5,89.2714,90.9146,,0,0,7,7,22,1,W,space,,,,,,,,,,,,
,,,,,R_82R35ItJxL12AnJ,001,2025-09-10_13h05.00.771,continuous_performance_test,2024.2.4,Win32,59.52380952,49df378b-344f-429f-b4af-04ea5646092d,5,90.9154,92.7651,,0,0,8,8,10,1,K,space,,,,,,,,,,,,
,,,,,R_82R35ItJxL12AnJ,001,2025-09-10_13h05.00.771,continuous_performance_test,2024.2.4,Win32,59.52380952,49df378b-344f-429f-b4af-04ea5646092d,5,92.7662,94.6646,space,0,0,9,9,27,1,X,,0.5562,,,,,,,,,,,
,,,,,R_82R35ItJxL12AnJ,001,2025-09-10_13h05.00.771,continuous_performance_test,2024.2.4,Win32,59.52380952,49df378b-344f-429f-b4af-04ea5646092d,5,94.6653,96.3023,,0,0,10,10,9,1,J,space,,,,,,,,,,,,
,,,,,R_82R35ItJxL12AnJ,001,2025-09-10_13h05.00.771,continuous_performance_test,2024.2.4,Win32,59.52380952,49df378b-344f-429f-b4af-04ea5646092d,5,96.303,97.8537,,1,0,11,11,26,1,X,,,,,,,,,,,,,
,,,,,R_82R35ItJxL12AnJ,001,2025-09-10_13h05.00.771,continuous_performance_test,2024.2.4,Win32,59.52380952,49df378b-344f-429f-b4af-04ea5646092d,5,97.8545,99.8536,,0,0,12,12,1,1,B,space,,,,,,,,,,,,
,,,,,R_82R35ItJxL12AnJ,001,2025-09-10_13h05.00.771,continuous_performance_test,2024.2.4,Win32,59.52380952,49df378b-344f-429f-b4af-04ea5646092d,5,99.8542,101.498,,0,0,13,13,14,1,O,space,,,,,,,,,,,,
,,,,,R_82R35ItJxL12AnJ,001,2025-09-10_13h05.00.771,continuous_performance_test,2024.2.4,Win32,59.52380952,49df378b-344f-429f-b4af-04ea5646092d,5,101.4987,103.398,,0,0,14,14,24,1,Z,space,,,,,,,,,,,,
,,,,,R_82R35ItJxL12AnJ,001,2025-09-10_13h05.00.771,continuous_performance_test,2024.2.4,Win32,59.52380952,49df378b-344f-429f-b4af-04ea5646092d,5,103.3984,105.0005,,0,0,15,15,4,1,E,space,,,,,,,,,,,,
,,,,,R_82R35ItJxL12AnJ,001,2025-09-10_13h05.00.771,continuous_performance_test,2024.2.4,Win32,59.52380952,49df378b-344f-429f-b4af-04ea5646092d,5,105.001,106.7482,,0,0,16,16,19,1,T,space,,,,,,,,,,,,
,,,,,R_82R35ItJxL12AnJ,001,2025-09-10_13h05.00.771,continuous_performance_test,2024.2.4,Win32,59.52380952,49df378b-344f-429f-b4af-04ea5646092d,5,106.7493,108.5482,,0,0,17,17,2,1,C,space,,,,,,,,,,,,
,,,,,R_82R35ItJxL12AnJ,001,2025-09-10_13h05.00.771,continuous_performance_test,2024.2.4,Win32,59.52380952,49df378b-344f-429f-b4af-04ea5646092d,5,108.5488,110.1376,space,0,0,18,18,25,1,X,,0.5324,,,,,,,,,,,
,,,,,R_82R35ItJxL12AnJ,001,2025-09-10_13h05.00.771,continuous_performance_test,2024.2.4,Win32,59.52380952,49df378b-344f-429f-b4af-04ea5646092d,5,110.1381,111.6815,,0,0,19,19,13,1,N,space,,,,,,,,,,,,
,,,,,R_82R35ItJxL12AnJ,001,2025-09-10_13h05.00.771,continuous_performance_test,2024.2.4,Win32,59.52380952,49df378b-344f-429f-b4af-04ea5646092d,5,111.6821,113.2815,,0,0,20,20,0,1,A,space,,,,,,,,,,,,
,,,,,R_82R35ItJxL12AnJ,001,2025-09-10_13h05.00.771,continuous_performance_test,2024.2.4,Win32,59.52380952,49df378b-344f-429f-b4af-04ea5646092d,5,113.2822,115.2815,,0,0,21,21,16,1,Q,space,,,,,,,,,,,,
,,,,,R_82R35ItJxL12AnJ,001,2025-09-10_13h05.00.771,continuous_performance_test,2024.2.4,Win32,59.52380952,49df378b-344f-429f-b4af-04ea5646092d,5,115.2822,117.0315,,0,0,22,22,6,1,G,space,,,,,,,,,,,,
,,,,,R_82R35ItJxL12AnJ,001,2025-09-10_13h05.00.771,continuous_performance_test,2024.2.4,Win32,59.52380952,49df378b-344f-429f-b4af-04ea5646092d,5,117.0323,118.6815,,0,0,23,23,23,1,Y,space,,,,,,,,,,,,
,,,,,R_82R35ItJxL12AnJ,001,2025-09-10_13h05.00.771,continuous_performance_test,2024.2.4,Win32,59.52380952,49df378b-344f-429f-b4af-04ea5646092d,5,118.6822,120.5814,,0,0,24,24,3,1,D,space,,,,,,,,,,,,
,,,,,R_82R35ItJxL12AnJ,001,2025-09-10_13h05.00.771,continuous_performance_test,2024.2.4,Win32,59.52380952,49df378b-344f-429f-b4af-04ea5646092d,5,120.5821,122.5815,,0,0,25,25,5,1,F,space,,,,,,,,,,,,
,,,,,R_82R35ItJxL12AnJ,001,2025-09-10_13h05.00.771,continuous_performance_test,2024.2.4,Win32,59.52380952,49df378b-344f-429f-b4af-04ea5646092d,5,122.5821,124.1314,space,0,0,26,26,28,1,X,,0.6324,,,,,,,,,,,
,,,,,R_82R35ItJxL12AnJ,001,2025-09-10_13h05.00.771,continuous_performance_test,2024.2.4,Win32,59.52380952,49df378b-344f-429f-b4af-04ea5646092d,5,124.132,125.7859,,0,0,27,27,7,1,H,space,,,,,,,,,,,,
,,,,,R_82R35ItJxL12AnJ,001,2025-09-10_13h05.00.771,continuous_performance_test,2024.2.4,Win32,59.52380952,49df378b-344f-429f-b4af-04ea5646092d,5,125.7867,127.7315,space,0,0,28,28,29,1,X,,0.749,0.0011,,,,,,,,,,
,,,,,R_82R35ItJxL12AnJ,001,2025-09-10_13h05.00.771,continuous_performance_test,2024.2.4,Win32,59.52380952,49df378b-344f-429f-b4af-04ea5646092d,5,127.732,129.6814,,0,0,29,29,15,1,P,space,,,,,,,,,,,,
,,,,,R_82R35ItJxL12AnJ,001,2025-09-10_13h05.00.771,continuous_performance_test,2024.2.4,Win32,59.52380952,49df378b-344f-429f-b4af-04ea5646092d,5,144.69,146.3316,,0,0,0,0,11,1,L,space,,,129.6818,144.6863,,,,,,,,
,,,,,R_82R35ItJxL12AnJ,001,2025-09-10_13h05.00.771,continuous_performance_test,2024.2.4,Win32,59.52380952,49df378b-344f-429f-b4af-04ea5646092d,5,146.3322,147.9313,,0,0,1,1,9,1,J,space,,,,,,,,,,,,
,,,,,R_82R35ItJxL12AnJ,001,2025-09-10_13h05.00.771,continuous_performance_test,2024.2.4,Win32,59.52380952,49df378b-344f-429f-b4af-04ea5646092d,5,147.932,149.4816,,0,0,2,2,15,1,P,space,,,,,,,,,,,,
,,,,,R_82R35ItJxL12AnJ,001,2025-09-10_13h05.00.771,continuous_performance_test,2024.2.4,Win32,59.52380952,49df378b-344f-429f-b4af-04ea5646092d,5,149.4823,151.2875,,0,0,3,3,21,1,V,space,,,,,,,,,,,,
,,,,,R_82R35ItJxL12AnJ,001,2025-09-10_13h05.00.771,continuous_performance_test,2024.2.4,Win32,59.52380952,49df378b-344f-429f-b4af-04ea5646092d,5,151.2882,153.0316,,0,0,4,4,24,1,Z,space,,,,,,,,,,,,
,,,,,R_82R35ItJxL12AnJ,001,2025-09-10_13h05.00.771,continuous_performance_test,2024.2.4,Win32,59.52380952,49df378b-344f-429f-b4af-04ea5646092d,5,153.0322,154.8204,,0,0,5,5,2,1,C,space,,,,,,,,,,,,
,,,,,R_82R35ItJxL12AnJ,001,2025-09-10_13h05.00.771,continuous_performance_test,2024.2.4,Win32,59.52380952,49df378b-344f-429f-b4af-04ea5646092d,5,154.8209,156.5649,,0,0,6,6,7,1,H,space,,,,,,,,,,,,
,,,,,R_82R35ItJxL12AnJ,001,2025-09-10_13h05.00.771,continuous_performance_test,2024.2.4,Win32,59.52380952,49df378b-344f-429f-b4af-04ea5646092d,5,156.5655,158.2147,,0,0,7,7,18,1,S,space,,,,,,,,,,,,
,,,,,R_82R35ItJxL12AnJ,001,2025-09-10_13h05.00.771,continuous_performance_test,2024.2.4,Win32,59.52380952,49df378b-344f-429f-b4af-04ea5646092d,5,158.2152,159.865,,0,0,8,8,12,1,M,space,,,,,,,,,,,,
,,,,,R_82R35ItJxL12AnJ,001,2025-09-10_13h05.00.771,continuous_performance_test,2024.2.4,Win32,59.52380952,49df378b-344f-429f-b4af-04ea5646092d,5,159.866,161.7703,space,0,0,9,9,27,1,X,,0.5919,,,,,,,,,,,
,,,,,R_82R35ItJxL12AnJ,001,2025-09-10_13h05.00.771,continuous_performance_test,2024.2.4,Win32,59.52380952,49df378b-344f-429f-b4af-04ea5646092d,5,161.7709,163.5649,space,0,0,10,10,28,1,X,,0.6211,,,,,,,,,,,
,,,,,R_82R35ItJxL12AnJ,001,2025-09-10_13h05.00.771,continuous_performance_test,2024.2.4,Win32,59.52380952,49df378b-344f-429f-b4af-04ea5646092d,5,163.5653,165.515,,0,0,11,11,13,1,N,space,,,,,,,,,,,,
,,,,,R_82R35ItJxL12AnJ,001,2025-09-10_13h05.00.771,continuous_performance_test,2024.2.4,Win32,59.52380952,49df378b-344f-429f-b4af-04ea5646092d,5,165.516,167.2198,,0,0,12,12,14,1,O,space,,,,,,,,,,,,
,,,,,R_82R35ItJxL12AnJ,001,2025-09-10_13h05.00.771,continuous_performance_test,2024.2.4,Win32,59.52380952,49df378b-344f-429f-b4af-04ea5646092d,5,167.2204,169.2149,,0,0,13,13,1,1,B,space,,,,,,,,,,,,
,,,,,R_82R35ItJxL12AnJ,001,2025-09-10_13h05.00.771,continuous_performance_test,2024.2.4,Win32,59.52380952,49df378b-344f-429f-b4af-04ea5646092d,5,169.2155,171.004,,0,0,14,14,3,1,D,space,,,,,,,,,,,,
,,,,,R_82R35ItJxL12AnJ,001,2025-09-10_13h05.00.771,continuous_performance_test,2024.2.4,Win32,59.52380952,49df378b-344f-429f-b4af-04ea5646092d,5,171.0046,172.7483,,0,0,15,15,22,1,W,space,,,,,,,,,,,,
,,,,,R_82R35ItJxL12AnJ,001,2025-09-10_13h05.00.771,continuous_performance_test,2024.2.4,Win32,59.52380952,49df378b-344f-429f-b4af-04ea5646092d,5,172.7495,174.3981,,0,0,16,16,19,1,T,space,,,,,,,,,,,,
,,,,,R_82R35ItJxL12AnJ,001,2025-09-10_13h05.00.771,continuous_performance_test,2024.2.4,Win32,59.52380952,49df378b-344f-429f-b4af-04ea5646092d,5,174.3988,175.9484,space,0,0,17,17,29,1,X,,0.6061,,,,,,,,,,,
,,,,,R_82R35ItJxL12AnJ,001,2025-09-10_13h05.00.771,continuous_performance_test,2024.2.4,Win32,59.52380952,49df378b-344f-429f-b4af-04ea5646092d,5,175.9494,177.9483,,0,0,18,18,20,1,U,space,,,,,,,,,,,,
,,,,,R_82R35ItJxL12AnJ,001,2025-09-10_13h05.00.771,continuous_performance_test,2024.2.4,Win32,59.52380952,49df378b-344f-429f-b4af-04ea5646092d,5,177.9489,179.6989,,1,0,19,19,26,1,X,,,,,,,,,,,,,
,,,,,R_82R35ItJxL12AnJ,001,2025-09-10_13h05.00.771,continuous_performance_test,2024.2.4,Win32,59.52380952,49df378b-344f-429f-b4af-04ea5646092d,5,179.7006,181.5486,,0,0,20,20,23,1,Y,space,,,,,,,,,,,,
,,,,,R_82R35ItJxL12AnJ,001,2025-09-10_13h05.00.771,continuous_performance_test,2024.2.4,Win32,59.52380952,49df378b-344f-429f-b4af-04ea5646092d,5,181.551,183.0983,,0,0,21,21,10,1,K,space,,,,,,,,,,,,
,,,,,R_82R35ItJxL12AnJ,001,2025-09-10_13h05.00.771,continuous_performance_test,2024.2.4,Win32,59.52380952,49df378b-344f-429f-b4af-04ea5646092d,5,183.0999,184.8981,,0,0,22,22,4,1,E,space,,,,,,,,,,,,
,,,,,R_82R35ItJxL12AnJ,001,2025-09-10_13h05.00.771,continuous_performance_test,2024.2.4,Win32,59.52380952,49df378b-344f-429f-b4af-04ea5646092d,5,184.8986,186.7983,,0,0,23,23,16,1,Q,space,,,,,,,,,,,,
,,,,,R_82R35ItJxL12AnJ,001,2025-09-10_13h05.00.771,continuous_performance_test,2024.2.4,Win32,59.52380952,49df378b-344f-429f-b4af-04ea5646092d,5,186.7989,188.3534,,0,0,24,24,8,1,I,space,,,,,,,,,,,,
,,,,,R_82R35ItJxL12AnJ,001,2025-09-10_13h05.00.771,continuous_performance_test,2024.2.4,Win32,59.52380952,49df378b-344f-429f-b4af-04ea5646092d,5,188.3539,190.3481,,0,0,25,25,0,1,A,space,,,,,,,,,,,,
,,,,,R_82R35ItJxL12AnJ,001,2025-09-10_13h05.00.771,continuous_performance_test,2024.2.4,Win32,59.52380952,49df378b-344f-429f-b4af-04ea5646092d,5,190.3486,191.8982,,0,0,26,26,5,1,F,space,,,,,,,,,,,,
,,,,,R_82R35ItJxL12AnJ,001,2025-09-10_13h05.00.771,continuous_performance_test,2024.2.4,Win32,59.52380952,49df378b-344f-429f-b4af-04ea5646092d,5,191.8988,193.4485,,0,0,27,27,6,1,G,space,,,,,,,,,,,,
,,,,,R_82R35ItJxL12AnJ,001,2025-09-10_13h05.00.771,continuous_performance_test,2024.2.4,Win32,59.52380952,49df378b-344f-429f-b4af-04ea5646092d,5,193.4497,195.3871,,0,0,28,28,17,1,R,space,,,,,,,,,,,,
,,,,,R_82R35ItJxL12AnJ,001,2025-09-10_13h05.00.771,continuous_performance_test,2024.2.4,Win32,59.52380952,49df378b-344f-429f-b4af-04ea5646092d,5,195.3876,197.3815,space,0,0,29,29,25,1,X,,0.5537,,,,,,,,,,,
,,,,,R_82R35ItJxL12AnJ,001,2025-09-10_13h05.00.771,continuous_performance_test,2024.2.4,Win32,59.52380952,49df378b-344f-429f-b4af-04ea5646092d,5,206.835,208.5364,space,0,0,0,0,26,1,X,,0.584,,197.3819,206.8316,space,9.4199,,,,,,
,,,,,R_82R35ItJxL12AnJ,001,2025-09-10_13h05.00.771,continuous_performance_test,2024.2.4,Win32,59.52380952,49df378b-344f-429f-b4af-04ea5646092d,5,208.5369,210.0818,,0,0,1,1,1,1,B,space,,,,,,,,,,,,
,,,,,R_82R35ItJxL12AnJ,001,2025-09-10_13h05.00.771,continuous_performance_test,2024.2.4,Win32,59.52380952,49df378b-344f-429f-b4af-04ea5646092d,5,210.0825,211.6318,,0,0,2,2,4,1,E,space,,,,,,,,,,,,
,,,,,R_82R35ItJxL12AnJ,001,2025-09-10_13h05.00.771,continuous_performance_test,2024.2.4,Win32,59.52380952,49df378b-344f-429f-b4af-04ea5646092d,5,211.6323,213.637,,0,0,3,3,12,1,M,space,,,,,,,,,,,,
,,,,,R_82R35ItJxL12AnJ,001,2025-09-10_13h05.00.771,continuous_performance_test,2024.2.4,Win32,59.52380952,49df378b-344f-429f-b4af-04ea5646092d,5,213.6375,215.2349,,0,0,4,4,3,1,D,space,,,,,,,,,,,,
,,,,,R_82R35ItJxL12AnJ,001,2025-09-10_13h05.00.771,continuous_performance_test,2024.2.4,Win32,59.52380952,49df378b-344f-429f-b4af-04ea5646092d,5,215.2354,216.9315,,0,0,5,5,6,1,G,space,,,,,,,,,,,,
,,,,,R_82R35ItJxL12AnJ,001,2025-09-10_13h05.00.771,continuous_performance_test,2024.2.4,Win32,59.52380952,49df378b-344f-429f-b4af-04ea5646092d,5,216.9321,218.8205,,0,0,6,6,19,1,T,space,,,,,,,,,,,,
,,,,,R_82R35ItJxL12AnJ,001,2025-09-10_13h05.00.771,continuous_performance_test,2024.2.4,Win32,59.52380952,49df378b-344f-429f-b4af-04ea5646092d,5,218.821,220.5704,,0,0,7,7,10,1,K,space,,,,,,,,,,,,
,,,,,R_82R35ItJxL12AnJ,001,2025-09-10_13h05.00.771,continuous_performance_test,2024.2.4,Win32,59.52380952,49df378b-344f-429f-b4af-04ea5646092d,5,220.571,222.2148,,0,0,8,8,20,1,U,space,,,,,,,,,,,,
,,,,,R_82R35ItJxL12AnJ,001,2025-09-10_13h05.00.771,continuous_performance_test,2024.2.4,Win32,59.52380952,49df378b-344f-429f-b4af-04ea5646092d,5,222.2153,223.7537,space,0,0,9,9,29,1,X,,0.6551,,,,,,,,,,,
,,,,,R_82R35ItJxL12AnJ,001,2025-09-10_13h05.00.771,continuous_performance_test,2024.2.4,Win32,59.52380952,49df378b-344f-429f-b4af-04ea5646092d,5,223.7543,225.6981,,0,0,10,10,2,1,C,space,,,,,,,,,,,,
,,,,,R_82R35ItJxL12AnJ,001,2025-09-10_13h05.00.771,continuous_performance_test,2024.2.4,Win32,59.52380952,49df378b-344f-429f-b4af-04ea5646092d,5,225.6987,227.2983,,0,0,11,11,22,1,W,space,,,,,,,,,,,,
,,,,,R_82R35ItJxL12AnJ,001,2025-09-10_13h05.00.771,continuous_performance_test,2024.2.4,Win32,59.52380952,49df378b-344f-429f-b4af-04ea5646092d,5,227.2988,229.2982,,0,0,12,12,21,1,V,space,,,,,,,,,,,,
,,,,,R_82R35ItJxL12AnJ,001,2025-09-10_13h05.00.771,continuous_performance_test,2024.2.4,Win32,59.52380952,49df378b-344f-429f-b4af-04ea5646092d,5,229.2987,231.2485,,0,0,13,13,0,1,A,space,,,,,,,,,,,,
,,,,,R_82R35ItJxL12AnJ,001,2025-09-10_13h05.00.771,continuous_performance_test,2024.2.4,Win32,59.52380952,49df378b-344f-429f-b4af-04ea5646092d,5,231.2492,233.0488,space,1,0,14,14,11,1,L,space,0.7501,,,,,,,,,,,
,,,,,R_82R35ItJxL12AnJ,001,2025-09-10_13h05.00.771,continuous_performance_test,2024.2.4,Win32,59.52380952,49df378b-344f-429f-b4af-04ea5646092d,5,233.0506,234.6515,,0,0,15,15,13,1,N,space,,,,,,,,,,,,
,,,,,R_82R35ItJxL12AnJ,001,2025-09-10_13h05.00.771,continuous_performance_test,2024.2.4,Win32,59.52380952,49df378b-344f-429f-b4af-04ea5646092d,5,234.6523,236.3036,,0,0,16,16,23,1,Y,space,,,,,,,,,,,,
,,,,,R_82R35ItJxL12AnJ,001,2025-09-10_13h05.00.771,continuous_performance_test,2024.2.4,Win32,59.52380952,49df378b-344f-429f-b4af-04ea5646092d,5,236.3043,237.9537,,0,0,17,17,8,1,I,space,,,,,,,,,,,,
,,,,,R_82R35ItJxL12AnJ,001,2025-09-10_13h05.00.771,continuous_performance_test,2024.2.4,Win32,59.52380952,49df378b-344f-429f-b4af-04ea5646092d,5,237.9544,239.9482,,0,0,18,18,14,1,O,space,,,,,,,,,,,,
,,,,,R_82R35ItJxL12AnJ,001,2025-09-10_13h05.00.771,continuous_performance_test,2024.2.4,Win32,59.52380952,49df378b-344f-429f-b4af-04ea5646092d,5,239.9488,241.5871,,0,0,19,19,17,1,R,space,,,,,,,,,,,,
,,,,,R_82R35ItJxL12AnJ,001,2025-09-10_13h05.00.771,continuous_performance_test,2024.2.4,Win32,59.52380952,49df378b-344f-429f-b4af-04ea5646092d,5,241.5877,243.3316,space,0,0,20,20,28,1,X,,0.5824,,,,,,,,,,,
,,,,,R_82R35ItJxL12AnJ,001,2025-09-10_13h05.00.771,continuous_performance_test,2024.2.4,Win32,59.52380952,49df378b-344f-429f-b4af-04ea5646092d,5,243.3323,245.2817,,0,0,21,21,24,1,Z,space,,,,,,,,,,,,
,,,,,R_82R35ItJxL12AnJ,001,2025-09-10_13h05.00.771,continuous_performance_test,2024.2.4,Win32,59.52380952,49df378b-344f-429f-b4af-04ea5646092d,5,245.2826,246.9874,space,0,0,22,22,27,1,X,,0.6563,,,,,,,,,,,
,,,,,R_82R35ItJxL12AnJ,001,2025-09-10_13h05.00.771,continuous_performance_test,2024.2.4,Win32,59.52380952,49df378b-344f-429f-b4af-04ea5646092d,5,246.9881,248.5867,,0,0,23,23,18,1,S,space,,,,,,,,,,,,
,,,,,R_82R35ItJxL12AnJ,001,2025-09-10_13h05.00.771,continuous_performance_test,2024.2.4,Win32,59.52380952,49df378b-344f-429f-b4af-04ea5646092d,5,248.5873,250.1318,,0,0,24,24,9,1,J,space,,,,,,,,,,,,
,,,,,R_82R35ItJxL12AnJ,001,2025-09-10_13h05.00.771,continuous_performance_test,2024.2.4,Win32,59.52380952,49df378b-344f-429f-b4af-04ea5646092d,5,250.1323,251.9377,,0,0,25,25,15,1,P,space,,,,,,,,,,,,
,,,,,R_82R35ItJxL12AnJ,001,2025-09-10_13h05.00.771,continuous_performance_test,2024.2.4,Win32,59.52380952,49df378b-344f-429f-b4af-04ea5646092d,5,251.9383,253.7821,,0,0,26,26,5,1,F,space,,,,,,,,,,,,
,,,,,R_82R35ItJxL12AnJ,001,2025-09-10_13h05.00.771,continuous_performance_test,2024.2.4,Win32,59.52380952,49df378b-344f-429f-b4af-04ea5646092d,5,253.7838,255.6819,space,0,0,27,27,25,1,X,,0.5825,,,,,,,,,,,
,,,,,R_82R35ItJxL12AnJ,001,2025-09-10_13h05.00.771,continuous_performance_test,2024.2.4,Win32,59.52380952,49df378b-344f-429f-b4af-04ea5646092d,5,255.6826,257.5816,,0,0,28,28,16,1,Q,space,,,,,,,,,,,,
,,,,,R_82R35ItJxL12AnJ,001,2025-09-10_13h05.00.771,continuous_performance_test,2024.2.4,Win32,59.52380952,49df378b-344f-429f-b4af-04ea5646092d,5,257.5826,259.4818,,0,0,29,29,7,1,H,space,,,,,,,,,,,,
,,,,,R_82R35ItJxL12AnJ,001,2025-09-10_13h05.00.771,continuous_performance_test,2024.2.4,Win32,59.52380952,49df378b-344f-429f-b4af-04ea5646092d,5,261.4853,263.132,,0,0,0,0,14,1,O,space,,,259.4827,261.4817,space,1.9736,,,,,,
,,,,,R_82R35ItJxL12AnJ,001,2025-09-10_13h05.00.771,continuous_performance_test,2024.2.4,Win32,59.52380952,49df378b-344f-429f-b4af-04ea5646092d,5,263.1332,265.0206,,0,0,1,1,11,1,L,space,,,,,,,,,,,,
,,,,,R_82R35ItJxL12AnJ,001,2025-09-10_13h05.00.771,continuous_performance_test,2024.2.4,Win32,59.52380952,49df378b-344f-429f-b4af-04ea5646092d,5,265.0212,266.865,,0,0,2,2,16,1,Q,space,,,,,,,,,,,,
,,,,,R_82R35ItJxL12AnJ,001,2025-09-10_13h05.00.771,continuous_performance_test,2024.2.4,Win32,59.52380952,49df378b-344f-429f-b4af-04ea5646092d,5,266.8656,268.6209,,0,0,3,3,8,1,I,space,,,,,,,,,,,,
,,,,,R_82R35ItJxL12AnJ,001,2025-09-10_13h05.00.771,continuous_performance_test,2024.2.4,Win32,59.52380952,49df378b-344f-429f-b4af-04ea5646092d,5,268.6215,270.521,,0,0,4,4,20,1,U,space,,,,,,,,,,,,
,,,,,R_82R35ItJxL12AnJ,001,2025-09-10_13h05.00.771,continuous_performance_test,2024.2.4,Win32,59.52380952,49df378b-344f-429f-b4af-04ea5646092d,5,270.5218,272.465,,0,0,5,5,5,1,F,space,,,,,,,,,,,,
,,,,,R_82R35ItJxL12AnJ,001,2025-09-10_13h05.00.771,continuous_performance_test,2024.2.4,Win32,59.52380952,49df378b-344f-429f-b4af-04ea5646092d,5,272.4659,274.0649,space,0,0,6,6,29,1,X,,0.5848,0,,,,,,,,,,
,,,,,R_82R35ItJxL12AnJ,001,2025-09-10_13h05.00.771,continuous_performance_test,2024.2.4,Win32,59.52380952,49df378b-344f-429f-b4af-04ea5646092d,5,274.0657,275.8149,,0,0,7,7,18,1,S,space,,,,,,,,,,,,
,,,,,R_82R35ItJxL12AnJ,001,2025-09-10_13h05.00.771,continuous_performance_test,2024.2.4,Win32,59.52380952,49df378b-344f-429f-b4af-04ea5646092d,5,275.8157,277.3539,space,0,0,8,8,26,1,X,,0.6037,,,,,,,,,,,
,,,,,R_82R35ItJxL12AnJ,001,2025-09-10_13h05.00.771,continuous_performance_test,2024.2.4,Win32,59.52380952,49df378b-344f-429f-b4af-04ea5646092d,5,277.3546,279.3537,,0,0,9,9,3,1,D,space,,,,,,,,,,,,
,,,,,R_82R35ItJxL12AnJ,001,2025-09-10_13h05.00.771,continuous_performance_test,2024.2.4,Win32,59.52380952,49df378b-344f-429f-b4af-04ea5646092d,5,279.3543,280.904,space,0,0,10,10,27,1,X,,0.6834,,,,,,,,,,,
,,,,,R_82R35ItJxL12AnJ,001,2025-09-10_13h05.00.771,continuous_performance_test,2024.2.4,Win32,59.52380952,49df378b-344f-429f-b4af-04ea5646092d,5,280.9046,282.7039,,0,0,11,11,24,1,Z,space,,,,,,,,,,,,
,,,,,R_82R35ItJxL12AnJ,001,2025-09-10_13h05.00.771,continuous_performance_test,2024.2.4,Win32,59.52380952,49df378b-344f-429f-b4af-04ea5646092d,5,282.7046,284.2483,space,0,0,12,12,25,1,X,,0.5336,0.0001,,,,,,,,,,
,,,,,R_82R35ItJxL12AnJ,001,2025-09-10_13h05.00.771,continuous_performance_test,2024.2.4,Win32,59.52380952,49df378b-344f-429f-b4af-04ea5646092d,5,284.2488,285.8487,,0,0,13,13,13,1,N,space,,,,,,,,,,,,
,,,,,R_82R35ItJxL12AnJ,001,2025-09-10_13h05.00.771,continuous_performance_test,2024.2.4,Win32,59.52380952,49df378b-344f-429f-b4af-04ea5646092d,5,285.8502,287.5485,,0,0,14,14,19,1,T,space,,,,,,,,,,,,
,,,,,R_82R35ItJxL12AnJ,001,2025-09-10_13h05.00.771,continuous_performance_test,2024.2.4,Win32,59.52380952,49df378b-344f-429f-b4af-04ea5646092d,5,287.549,289.2376,,0,0,15,15,7,1,H,space,,,,,,,,,,,,
,,,,,R_82R35ItJxL12AnJ,001,2025-09-10_13h05.00.771,continuous_performance_test,2024.2.4,Win32,59.52380952,49df378b-344f-429f-b4af-04ea5646092d,5,289.2382,291.1876,,0,0,16,16,9,1,J,space,,,,,,,,,,,,
,,,,,R_82R35ItJxL12AnJ,001,2025-09-10_13h05.00.771,continuous_performance_test,2024.2.4,Win32,59.52380952,49df378b-344f-429f-b4af-04ea5646092d,5,291.1883,292.7875,space,0,0,17,17,28,1,X,,0.5319,0.0056,,,,,,,,,,
,,,,,R_82R35ItJxL12AnJ,001,2025-09-10_13h05.00.771,continuous_performance_test,2024.2.4,Win32,59.52380952,49df378b-344f-429f-b4af-04ea5646092d,5,292.7882,294.7818,,0,0,18,18,1,1,B,space,,,,,,,,,,,,
,,,,,R_82R35ItJxL12AnJ,001,2025-09-10_13h05.00.771,continuous_performance_test,2024.2.4,Win32,59.52380952,49df378b-344f-429f-b4af-04ea5646092d,5,294.7824,296.6204,,0,0,19,19,17,1,R,space,,,,,,,,,,,,
,,,,,R_82R35ItJxL12AnJ,001,2025-09-10_13h05.00.771,continuous_performance_test,2024.2.4,Win32,59.52380952,49df378b-344f-429f-b4af-04ea5646092d,5,296.6209,298.515,,0,0,20,20,10,1,K,space,,,,,,,,,,,,
,,,,,R_82R35ItJxL12AnJ,001,2025-09-10_13h05.00.771,continuous_performance_test,2024.2.4,Win32,59.52380952,49df378b-344f-429f-b4af-04ea5646092d,5,298.5157,300.0649,,0,0,21,21,2,1,C,space,,,,,,,,,,,,
,,,,,R_82R35ItJxL12AnJ,001,2025-09-10_13h05.00.771,continuous_performance_test,2024.2.4,Win32,59.52380952,49df378b-344f-429f-b4af-04ea5646092d,5,300.0656,301.9151,,0,0,22,22,12,1,M,space,,,,,,,,,,,,
,,,,,R_82R35ItJxL12AnJ,001,2025-09-10_13h05.00.771,continuous_performance_test,2024.2.4,Win32,59.52380952,49df378b-344f-429f-b4af-04ea5646092d,5,301.9159,303.9153,,0,0,23,23,6,1,G,space,,,,,,,,,,,,
,,,,,R_82R35ItJxL12AnJ,001,2025-09-10_13h05.00.771,continuous_performance_test,2024.2.4,Win32,59.52380952,49df378b-344f-429f-b4af-04ea5646092d,5,303.9162,305.7706,,0,0,24,24,0,1,A,space,,,,,,,,,,,,
,,,,,R_82R35ItJxL12AnJ,001,2025-09-10_13h05.00.771,continuous_performance_test,2024.2.4,Win32,59.52380952,49df378b-344f-429f-b4af-04ea5646092d,5,305.7713,307.6606,,0,0,25,25,22,1,W,space,,,,,,,,,,,,
,,,,,R_82R35ItJxL12AnJ,001,2025-09-10_13h05.00.771,continuous_performance_test,2024.2.4,Win32,59.52380952,49df378b-344f-429f-b4af-04ea5646092d,5,307.6612,309.3543,,0,0,26,26,4,1,E,space,,,,,,,,,,,,
,,,,,R_82R35ItJxL12AnJ,001,2025-09-10_13h05.00.771,continuous_performance_test,2024.2.4,Win32,59.52380952,49df378b-344f-429f-b4af-04ea5646092d,5,309.355,311.2484,,0,0,27,27,23,1,Y,space,,,,,,,,,,,,
,,,,,R_82R35ItJxL12AnJ,001,2025-09-10_13h05.00.771,continuous_performance_test,2024.2.4,Win32,59.52380952,49df378b-344f-429f-b4af-04ea5646092d,5,311.249,312.7983,,0,0,28,28,15,1,P,space,,,,,,,,,,,,
,,,,,R_82R35ItJxL12AnJ,001,2025-09-10_13h05.00.771,continuous_performance_test,2024.2.4,Win32,59.52380952,49df378b-344f-429f-b4af-04ea5646092d,5,312.7988,314.5984,,0,0,29,29,21,1,V,space,,,,,,,,,,,,
,,,,,R_82R35ItJxL12AnJ,001,2025-09-10_13h05.00.771,continuous_performance_test,2024.2.4,Win32,59.52380952,49df378b-344f-429f-b4af-04ea5646092d,5,329.6081,331.4983,,0,0,0,0,12,1,M,space,,,314.599,329.6046,,,,,,,,
,,,,,R_82R35ItJxL12AnJ,001,2025-09-10_13h05.00.771,continuous_performance_test,2024.2.4,Win32,59.52380952,49df378b-344f-429f-b4af-04ea5646092d,5,331.4987,333.3987,,0,0,1,1,24,1,Z,space,,,,,,,,,,,,
,,,,,R_82R35ItJxL12AnJ,001,2025-09-10_13h05.00.771,continuous_performance_test,2024.2.4,Win32,59.52380952,49df378b-344f-429f-b4af-04ea5646092d,5,333.3995,335.1486,,0,0,2,2,20,1,U,space,,,,,,,,,,,,
,,,,,R_82R35ItJxL12AnJ,001,2025-09-10_13h05.00.771,continuous_performance_test,2024.2.4,Win32,59.52380952,49df378b-344f-429f-b4af-04ea5646092d,5,335.1496,336.9372,,0,0,3,3,1,1,B,space,,,,,,,,,,,,
,,,,,R_82R35ItJxL12AnJ,001,2025-09-10_13h05.00.771,continuous_performance_test,2024.2.4,Win32,59.52380952,49df378b-344f-429f-b4af-04ea5646092d,5,336.938,338.8817,,0,0,4,4,0,1,A,space,,,,,,,,,,,,
,,,,,R_82R35ItJxL12AnJ,001,2025-09-10_13h05.00.771,continuous_performance_test,2024.2.4,Win32,59.52380952,49df378b-344f-429f-b4af-04ea5646092d,5,338.8823,340.6363,,0,0,5,5,19,1,T,space,,,,,,,,,,,,
,,,,,R_82R35ItJxL12AnJ,001,2025-09-10_13h05.00.771,continuous_performance_test,2024.2.4,Win32,59.52380952,49df378b-344f-429f-b4af-04ea5646092d,5,340.6369,342.5319,,0,0,6,6,13,1,N,space,,,,,,,,,,,,
,,,,,R_82R35ItJxL12AnJ,001,2025-09-10_13h05.00.771,continuous_performance_test,2024.2.4,Win32,59.52380952,49df378b-344f-429f-b4af-04ea5646092d,5,342.5325,344.2361,,0,0,7,7,4,1,E,space,,,,,,,,,,,,
,,,,,R_82R35ItJxL12AnJ,001,2025-09-10_13h05.00.771,continuous_performance_test,2024.2.4,Win32,59.52380952,49df378b-344f-429f-b4af-04ea5646092d,5,344.2366,346.0318,,0,0,8,8,21,1,V,space,,,,,,,,,,,,
,,,,,R_82R35ItJxL12AnJ,001,2025-09-10_13h05.00.771,continuous_performance_test,2024.2.4,Win32,59.52380952,49df378b-344f-429f-b4af-04ea5646092d,5,346.0324,347.8709,,0,0,9,9,18,1,S,space,,,,,,,,,,,,
,,,,,R_82R35ItJxL12AnJ,001,2025-09-10_13h05.00.771,continuous_performance_test,2024.2.4,Win32,59.52380952,49df378b-344f-429f-b4af-04ea5646092d,5,347.8715,349.4188,,0,0,10,10,10,1,K,space,,,,,,,,,,,,
,,,,,R_82R35ItJxL12AnJ,001,2025-09-10_13h05.00.771,continuous_performance_test,2024.2.4,Win32,59.52380952,49df378b-344f-429f-b4af-04ea5646092d,5,349.4195,351.4152,,0,0,11,11,15,1,P,space,,,,,,,,,,,,
,,,,,R_82R35ItJxL12AnJ,001,2025-09-10_13h05.00.771,continuous_performance_test,2024.2.4,Win32,59.52380952,49df378b-344f-429f-b4af-04ea5646092d,5,351.416,353.315,,0,0,12,12,11,1,L,space,,,,,,,,,,,,
,,,,,R_82R35ItJxL12AnJ,001,2025-09-10_13h05.00.771,continuous_performance_test,2024.2.4,Win32,59.52380952,49df378b-344f-429f-b4af-04ea5646092d,5,353.3155,354.9152,,0,0,13,13,22,1,W,space,,,,,,,,,,,,
,,,,,R_82R35ItJxL12AnJ,001,2025-09-10_13h05.00.771,continuous_performance_test,2024.2.4,Win32,59.52380952,49df378b-344f-429f-b4af-04ea5646092d,5,354.9158,356.7151,space,0,0,14,14,28,1,X,,0.6378,0.0006,,,,,,,,,,
,,,,,R_82R35ItJxL12AnJ,001,2025-09-10_13h05.00.771,continuous_performance_test,2024.2.4,Win32,59.52380952,49df378b-344f-429f-b4af-04ea5646092d,5,356.7163,358.2706,,0,0,15,15,14,1,O,space,,,,,,,,,,,,
,,,,,R_82R35ItJxL12AnJ,001,2025-09-10_13h05.00.771,continuous_performance_test,2024.2.4,Win32,59.52380952,49df378b-344f-429f-b4af-04ea5646092d,5,358.2712,359.8696,,0,0,16,16,16,1,Q,space,,,,,,,,,,,,
,,,,,R_82R35ItJxL12AnJ,001,2025-09-10_13h05.00.771,continuous_performance_test,2024.2.4,Win32,59.52380952,49df378b-344f-429f-b4af-04ea5646092d,5,359.8704,361.465,,0,0,17,17,2,1,C,space,,,,,,,,,,,,
,,,,,R_82R35ItJxL12AnJ,001,2025-09-10_13h05.00.771,continuous_performance_test,2024.2.4,Win32,59.52380952,49df378b-344f-429f-b4af-04ea5646092d,5,361.4657,363.2704,space,0,0,18,18,25,1,X,,0.6753,,,,,,,,,,,
,,,,,R_82R35ItJxL12AnJ,001,2025-09-10_13h05.00.771,continuous_performance_test,2024.2.4,Win32,59.52380952,49df378b-344f-429f-b4af-04ea5646092d,5,363.271,364.9152,,0,0,19,19,6,1,G,space,,,,,,,,,,,,
,,,,,R_82R35ItJxL12AnJ,001,2025-09-10_13h05.00.771,continuous_performance_test,2024.2.4,Win32,59.52380952,49df378b-344f-429f-b4af-04ea5646092d,5,364.916,366.5649,,0,0,20,20,17,1,R,space,,,,,,,,,,,,
,,,,,R_82R35ItJxL12AnJ,001,2025-09-10_13h05.00.771,continuous_performance_test,2024.2.4,Win32,59.52380952,49df378b-344f-429f-b4af-04ea5646092d,5,366.5655,368.421,,0,0,21,21,8,1,I,space,,,,,,,,,,,,
,,,,,R_82R35ItJxL12AnJ,001,2025-09-10_13h05.00.771,continuous_performance_test,2024.2.4,Win32,59.52380952,49df378b-344f-429f-b4af-04ea5646092d,5,368.4217,370.1653,,0,0,22,22,7,1,H,space,,,,,,,,,,,,
,,,,,R_82R35ItJxL12AnJ,001,2025-09-10_13h05.00.771,continuous_performance_test,2024.2.4,Win32,59.52380952,49df378b-344f-429f-b4af-04ea5646092d,5,370.1659,372.1212,space,0,0,23,23,26,1,X,,0.6015,,,,,,,,,,,
,,,,,R_82R35ItJxL12AnJ,001,2025-09-10_13h05.00.771,continuous_performance_test,2024.2.4,Win32,59.52380952,49df378b-344f-429f-b4af-04ea5646092d,5,372.1218,373.8151,,0,0,24,24,23,1,Y,space,,,,,,,,,,,,
,,,,,R_82R35ItJxL12AnJ,001,2025-09-10_13h05.00.771,continuous_performance_test,2024.2.4,Win32,59.52380952,49df378b-344f-429f-b4af-04ea5646092d,5,373.8158,375.8151,space,0,0,25,25,29,1,X,,0.6368,,,,,,,,,,,
,,,,,R_82R35ItJxL12AnJ,001,2025-09-10_13h05.00.771,continuous_performance_test,2024.2.4,Win32,59.52380952,49df378b-344f-429f-b4af-04ea5646092d,5,375.8159,377.6205,space,0,0,26,26,27,1,X,,0.5355,,,,,,,,,,,
,,,,,R_82R35ItJxL12AnJ,001,2025-09-10_13h05.00.771,continuous_performance_test,2024.2.4,Win32,59.52380952,49df378b-344f-429f-b4af-04ea5646092d,5,377.6211,379.3206,,0,0,27,27,3,1,D,space,,,,,,,,,,,,
,,,,,R_82R35ItJxL12AnJ,001,2025-09-10_13h05.00.771,continuous_performance_test,2024.2.4,Win32,59.52380952,49df378b-344f-429f-b4af-04ea5646092d,5,379.3211,381.1653,,0,0,28,28,5,1,F,space,,,,,,,,,,,,
,,,,,R_82R35ItJxL12AnJ,001,2025-09-10_13h05.00.771,continuous_performance_test,2024.2.4,Win32,59.52380952,49df378b-344f-429f-b4af-04ea5646092d,5,381.1664,382.7698,,0,0,29,29,9,1,J,space,,,,,,,,,,,,
,,,,,R_82R35ItJxL12AnJ,001,2025-09-10_13h05.00.771,continuous_performance_test,2024.2.4,Win32,59.52380952,49df378b-344f-429f-b4af-04ea5646092d,5,397.7729,399.3151,,0,0,0,0,1,1,B,space,,,382.7702,397.7698,,,,,,,,
,,,,,R_82R35ItJxL12AnJ,001,2025-09-10_13h05.00.771,continuous_performance_test,2024.2.4,Win32,59.52380952,49df378b-344f-429f-b4af-04ea5646092d,5,399.3156,400.8654,,0,0,1,1,14,1,O,space,,,,,,,,,,,,
,,,,,R_82R35ItJxL12AnJ,001,2025-09-10_13h05.00.771,continuous_performance_test,2024.2.4,Win32,59.52380952,49df378b-344f-429f-b4af-04ea5646092d,5,400.8664,402.7154,,0,0,2,2,13,1,N,space,,,,,,,,,,,,
,,,,,R_82R35ItJxL12AnJ,001,2025-09-10_13h05.00.771,continuous_performance_test,2024.2.4,Win32,59.52380952,49df378b-344f-429f-b4af-04ea5646092d,5,402.7165,404.5656,,0,0,3,3,8,1,I,space,,,,,,,,,,,,
,,,,,R_82R35ItJxL12AnJ,001,2025-09-10_13h05.00.771,continuous_performance_test,2024.2.4,Win32,59.52380952,49df378b-344f-429f-b4af-04ea5646092d,5,404.5668,406.4721,,0,0,4,4,12,1,M,space,,,,,,,,,,,,
,,,,,R_82R35ItJxL12AnJ,001,2025-09-10_13h05.00.771,continuous_performance_test,2024.2.4,Win32,59.52380952,49df378b-344f-429f-b4af-04ea5646092d,5,406.4727,408.0651,,0,0,5,5,21,1,V,space,,,,,,,,,,,,
,,,,,R_82R35ItJxL12AnJ,001,2025-09-10_13h05.00.771,continuous_performance_test,2024.2.4,Win32,59.52380952,49df378b-344f-429f-b4af-04ea5646092d,5,408.0657,409.7534,,0,0,6,6,10,1,K,space,,,,,,,,,,,,
,,,,,R_82R35ItJxL12AnJ,001,2025-09-10_13h05.00.771,continuous_performance_test,2024.2.4,Win32,59.52380952,49df378b-344f-429f-b4af-04ea5646092d,5,409.7541,411.5486,,0,0,7,7,2,1,C,space,,,,,,,,,,,,
,,,,,R_82R35ItJxL12AnJ,001,2025-09-10_13h05.00.771,continuous_performance_test,2024.2.4,Win32,59.52380952,49df378b-344f-429f-b4af-04ea5646092d,5,411.5492,413.1378,,0,0,8,8,0,1,A,space,,,,,,,,,,,,
,,,,,R_82R35ItJxL12AnJ,001,2025-09-10_13h05.00.771,continuous_performance_test,2024.2.4,Win32,59.52380952,49df378b-344f-429f-b4af-04ea5646092d,5,413.1386,414.8375,,0,0,9,9,3,1,D,space,,,,,,,,,,,,
,,,,,R_82R35ItJxL12AnJ,001,2025-09-10_13h05.00.771,continuous_performance_test,2024.2.4,Win32,59.52380952,49df378b-344f-429f-b4af-04ea5646092d,5,414.8381,416.4873,,0,0,10,10,23,1,Y,space,,,,,,,,,,,,
,,,,,R_82R35ItJxL12AnJ,001,2025-09-10_13h05.00.771,continuous_performance_test,2024.2.4,Win32,59.52380952,49df378b-344f-429f-b4af-04ea5646092d,5,416.4881,418.3865,,0,0,11,11,22,1,W,space,,,,,,,,,,,,
,,,,,R_82R35ItJxL12AnJ,001,2025-09-10_13h05.00.771,continuous_performance_test,2024.2.4,Win32,59.52380952,49df378b-344f-429f-b4af-04ea5646092d,5,418.387,420.1872,space,0,0,12,12,26,1,X,,0.6825,,,,,,,,,,,
,,,,,R_82R35ItJxL12AnJ,001,2025-09-10_13h05.00.771,continuous_performance_test,2024.2.4,Win32,59.52380952,49df378b-344f-429f-b4af-04ea5646092d,5,420.188,421.7318,,0,0,13,13,11,1,L,space,,,,,,,,,,,,
,,,,,R_82R35ItJxL12AnJ,001,2025-09-10_13h05.00.771,continuous_performance_test,2024.2.4,Win32,59.52380952,49df378b-344f-429f-b4af-04ea5646092d,5,421.7325,423.5319,,0,0,14,14,15,1,P,space,,,,,,,,,,,,
,,,,,R_82R35ItJxL12AnJ,001,2025-09-10_13h05.00.771,continuous_performance_test,2024.2.4,Win32,59.52380952,49df378b-344f-429f-b4af-04ea5646092d,5,423.5329,425.132,,0,0,15,15,24,1,Z,space,,,,,,,,,,,,
,,,,,R_82R35ItJxL12AnJ,001,2025-09-10_13h05.00.771,continuous_performance_test,2024.2.4,Win32,59.52380952,49df378b-344f-429f-b4af-04ea5646092d,5,425.1328,426.9211,,0,0,16,16,18,1,S,space,,,,,,,,,,,,
,,,,,R_82R35ItJxL12AnJ,001,2025-09-10_13h05.00.771,continuous_performance_test,2024.2.4,Win32,59.52380952,49df378b-344f-429f-b4af-04ea5646092d,5,426.9216,428.5654,space,0,0,17,17,25,1,X,,0.7868,,,,,,,,,,,
,,,,,R_82R35ItJxL12AnJ,001,2025-09-10_13h05.00.771,continuous_performance_test,2024.2.4,Win32,59.52380952,49df378b-344f-429f-b4af-04ea5646092d,5,428.5659,430.2153,,0,0,18,18,7,1,H,space,,,,,,,,,,,,
,,,,,R_82R35ItJxL12AnJ,001,2025-09-10_13h05.00.771,continuous_performance_test,2024.2.4,Win32,59.52380952,49df378b-344f-429f-b4af-04ea5646092d,5,430.2164,431.7652,,0,0,19,19,17,1,R,space,,,,,,,,,,,,
,,,,,R_82R35ItJxL12AnJ,001,2025-09-10_13h05.00.771,continuous_performance_test,2024.2.4,Win32,59.52380952,49df378b-344f-429f-b4af-04ea5646092d,5,431.7659,433.4182,space,0,0,20,20,28,1,X,,0.841,,,,,,,,,,,
,,,,,R_82R35ItJxL12AnJ,001,2025-09-10_13h05.00.771,continuous_performance_test,2024.2.4,Win32,59.52380952,49df378b-344f-429f-b4af-04ea5646092d,5,433.4188,435.2653,,0,0,21,21,16,1,Q,space,,,,,,,,,,,,
,,,,,R_82R35ItJxL12AnJ,001,2025-09-10_13h05.00.771,continuous_performance_test,2024.2.4,Win32,59.52380952,49df378b-344f-429f-b4af-04ea5646092d,5,435.2659,437.0184,,0,0,22,22,5,1,F,space,,,,,,,,,,,,
,,,,,R_82R35ItJxL12AnJ,001,2025-09-10_13h05.00.771,continuous_performance_test,2024.2.4,Win32,59.52380952,49df378b-344f-429f-b4af-04ea5646092d,5,437.019,438.5653,,0,0,23,23,19,1,T,space,,,,,,,,,,,,
,,,,,R_82R35ItJxL12AnJ,001,2025-09-10_13h05.00.771,continuous_performance_test,2024.2.4,Win32,59.52380952,49df378b-344f-429f-b4af-04ea5646092d,5,438.566,440.5653,,0,0,24,24,4,1,E,space,,,,,,,,,,,,
,,,,,R_82R35ItJxL12AnJ,001,2025-09-10_13h05.00.771,continuous_performance_test,2024.2.4,Win32,59.52380952,49df378b-344f-429f-b4af-04ea5646092d,5,440.5666,442.1198,space,0,0,25,25,29,1,X,,0.5871,,,,,,,,,,,
,,,,,R_82R35ItJxL12AnJ,001,2025-09-10_13h05.00.771,continuous_performance_test,2024.2.4,Win32,59.52380952,49df378b-344f-429f-b4af-04ea5646092d,5,442.1206,443.9657,,0,0,26,26,6,1,G,space,,,,,,,,,,,,
,,,,,R_82R35ItJxL12AnJ,001,2025-09-10_13h05.00.771,continuous_performance_test,2024.2.4,Win32,59.52380952,49df378b-344f-429f-b4af-04ea5646092d,5,443.9671,445.6206,,0,0,27,27,20,1,U,space,,,,,,,,,,,,
,,,,,R_82R35ItJxL12AnJ,001,2025-09-10_13h05.00.771,continuous_performance_test,2024.2.4,Win32,59.52380952,49df378b-344f-429f-b4af-04ea5646092d,5,445.6212,447.5653,,0,0,28,28,9,1,J,space,,,,,,,,,,,,
,,,,,R_82R35ItJxL12AnJ,001,2025-09-10_13h05.00.771,continuous_performance_test,2024.2.4,Win32,59.52380952,49df378b-344f-429f-b4af-04ea5646092d,5,447.5662,449.5651,space,0,0,29,29,27,1,X,,0.5994,,,,,,,,,,,
,,,,,R_82R35ItJxL12AnJ,001,2025-09-10_13h05.00.771,continuous_performance_test,2024.2.4,Win32,59.52380952,49df378b-344f-429f-b4af-04ea5646092d,5,450.9055,452.6988,,0,0,0,0,9,1,J,space,,,449.5656,450.9024,space,1.314,,,,,,
,,,,,R_82R35ItJxL12AnJ,001,2025-09-10_13h05.00.771,continuous_performance_test,2024.2.4,Win32,59.52380952,49df378b-344f-429f-b4af-04ea5646092d,5,452.6994,454.3369,space,0,0,1,1,26,1,X,,0.7304,,,,,,,,,,,
,,,,,R_82R35ItJxL12AnJ,001,2025-09-10_13h05.00.771,continuous_performance_test,2024.2.4,Win32,59.52380952,49df378b-344f-429f-b4af-04ea5646092d,5,454.3375,456.1318,,0,0,2,2,13,1,N,space,,,,,,,,,,,,
,,,,,R_82R35ItJxL12AnJ,001,2025-09-10_13h05.00.771,continuous_performance_test,2024.2.4,Win32,59.52380952,49df378b-344f-429f-b4af-04ea5646092d,5,456.1324,457.9819,space,0,0,3,3,27,1,X,,0.5668,,,,,,,,,,,
,,,,,R_82R35ItJxL12AnJ,001,2025-09-10_13h05.00.771,continuous_performance_test,2024.2.4,Win32,59.52380952,49df378b-344f-429f-b4af-04ea5646092d,5,457.9826,459.9206,,0,0,4,4,14,1,O,space,,,,,,,,,,,,
,,,,,R_82R35ItJxL12AnJ,001,2025-09-10_13h05.00.771,continuous_performance_test,2024.2.4,Win32,59.52380952,49df378b-344f-429f-b4af-04ea5646092d,5,459.9211,461.6154,,0,0,5,5,4,1,E,space,,,,,,,,,,,,
,,,,,R_82R35ItJxL12AnJ,001,2025-09-10_13h05.00.771,continuous_performance_test,2024.2.4,Win32,59.52380952,49df378b-344f-429f-b4af-04ea5646092d,5,461.6159,463.3153,,0,0,6,6,12,1,M,space,,,,,,,,,,,,
,,,,,R_82R35ItJxL12AnJ,001,2025-09-10_13h05.00.771,continuous_performance_test,2024.2.4,Win32,59.52380952,49df378b-344f-429f-b4af-04ea5646092d,5,463.316,465.3208,,0,0,7,7,21,1,V,space,,,,,,,,,,,,
,,,,,R_82R35ItJxL12AnJ,001,2025-09-10_13h05.00.771,continuous_performance_test,2024.2.4,Win32,59.52380952,49df378b-344f-429f-b4af-04ea5646092d,5,465.3214,467.121,space,0,0,8,8,28,1,X,,0.7,,,,,,,,,,,
,,,,,R_82R35ItJxL12AnJ,001,2025-09-10_13h05.00.771,continuous_performance_test,2024.2.4,Win32,59.52380952,49df378b-344f-429f-b4af-04ea5646092d,5,467.1215,468.9154,space,0,0,9,9,25,1,X,,0.6875,,,,,,,,,,,
,,,,,R_82R35ItJxL12AnJ,001,2025-09-10_13h05.00.771,continuous_performance_test,2024.2.4,Win32,59.52380952,49df378b-344f-429f-b4af-04ea5646092d,5,468.916,470.4548,,0,0,10,10,0,1,A,space,,,,,,,,,,,,
,,,,,R_82R35ItJxL12AnJ,001,2025-09-10_13h05.00.771,continuous_performance_test,2024.2.4,Win32,59.52380952,49df378b-344f-429f-b4af-04ea5646092d,5,470.4554,472.0022,,0,0,11,11,7,1,H,space,,,,,,,,,,,,
,,,,,R_82R35ItJxL12AnJ,001,2025-09-10_13h05.00.771,continuous_performance_test,2024.2.4,Win32,59.52380952,49df378b-344f-429f-b4af-04ea5646092d,5,472.0028,474.0113,,0,0,12,12,11,1,L,space,,,,,,,,,,,,
,,,,,R_82R35ItJxL12AnJ,001,2025-09-10_13h05.00.771,continuous_performance_test,2024.2.4,Win32,59.52380952,49df378b-344f-429f-b4af-04ea5646092d,5,474.0119,475.8655,,0,0,13,13,23,1,Y,space,,,,,,,,,,,,
,,,,,R_82R35ItJxL12AnJ,001,2025-09-10_13h05.00.771,continuous_performance_test,2024.2.4,Win32,59.52380952,49df378b-344f-429f-b4af-04ea5646092d,5,475.866,477.7539,,0,0,14,14,8,1,I,space,,,,,,,,,,,,
,,,,,R_82R35ItJxL12AnJ,001,2025-09-10_13h05.00.771,continuous_performance_test,2024.2.4,Win32,59.52380952,49df378b-344f-429f-b4af-04ea5646092d,5,477.7544,479.6988,,0,0,15,15,10,1,K,space,,,,,,,,,,,,
,,,,,R_82R35ItJxL12AnJ,001,2025-09-10_13h05.00.771,continuous_performance_test,2024.2.4,Win32,59.52380952,49df378b-344f-429f-b4af-04ea5646092d,5,479.6994,481.6989,,0,0,16,16,18,1,S,space,,,,,,,,,,,,
,,,,,R_82R35ItJxL12AnJ,001,2025-09-10_13h05.00.771,continuous_performance_test,2024.2.4,Win32,59.52380952,49df378b-344f-429f-b4af-04ea5646092d,5,481.6999,483.3487,,0,0,17,17,24,1,Z,space,,,,,,,,,,,,
,,,,,R_82R35ItJxL12AnJ,001,2025-09-10_13h05.00.771,continuous_performance_test,2024.2.4,Win32,59.52380952,49df378b-344f-429f-b4af-04ea5646092d,5,483.3494,485.0488,,0,0,18,18,15,1,P,space,,,,,,,,,,,,
,,,,,R_82R35ItJxL12AnJ,001,2025-09-10_13h05.00.771,continuous_performance_test,2024.2.4,Win32,59.52380952,49df378b-344f-429f-b4af-04ea5646092d,5,485.0498,487.0542,,0,0,19,19,1,1,B,space,,,,,,,,,,,,
,,,,,R_82R35ItJxL12AnJ,001,2025-09-10_13h05.00.771,continuous_performance_test,2024.2.4,Win32,59.52380952,49df378b-344f-429f-b4af-04ea5646092d,5,487.0548,488.8989,,0,0,20,20,3,1,D,space,,,,,,,,,,,,
,,,,,R_82R35ItJxL12AnJ,001,2025-09-10_13h05.00.771,continuous_performance_test,2024.2.4,Win32,59.52380952,49df378b-344f-429f-b4af-04ea5646092d,5,488.8997,490.7989,space,0,0,21,21,29,1,X,,0.7979,1E-04,,,,,,,,,,
,,,,,R_82R35ItJxL12AnJ,001,2025-09-10_13h05.00.771,continuous_performance_test,2024.2.4,Win32,59.52380952,49df378b-344f-429f-b4af-04ea5646092d,5,490.7996,492.7988,,0,0,22,22,5,1,F,space,,,,,,,,,,,,
,,,,,R_82R35ItJxL12AnJ,001,2025-09-10_13h05.00.771,continuous_performance_test,2024.2.4,Win32,59.52380952,49df378b-344f-429f-b4af-04ea5646092d,5,492.7997,494.6877,,0,0,23,23,17,1,R,space,,,,,,,,,,,,
,,,,,R_82R35ItJxL12AnJ,001,2025-09-10_13h05.00.771,continuous_performance_test,2024.2.4,Win32,59.52380952,49df378b-344f-429f-b4af-04ea5646092d,5,494.6881,496.2324,,0,0,24,24,16,1,Q,space,,,,,,,,,,,,
,,,,,R_82R35ItJxL12AnJ,001,2025-09-10_13h05.00.771,continuous_performance_test,2024.2.4,Win32,59.52380952,49df378b-344f-429f-b4af-04ea5646092d,5,496.2347,498.082,,0,0,25,25,6,1,G,space,,,,,,,,,,,,
,,,,,R_82R35ItJxL12AnJ,001,2025-09-10_13h05.00.771,continuous_performance_test,2024.2.4,Win32,59.52380952,49df378b-344f-429f-b4af-04ea5646092d,5,498.0829,499.8321,,0,0,26,26,22,1,W,space,,,,,,,,,,,,
,,,,,R_82R35ItJxL12AnJ,001,2025-09-10_13h05.00.771,continuous_performance_test,2024.2.4,Win32,59.52380952,49df378b-344f-429f-b4af-04ea5646092d,5,499.8334,501.6319,,0,0,27,27,2,1,C,space,,,,,,,,,,,,
,,,,,R_82R35ItJxL12AnJ,001,2025-09-10_13h05.00.771,continuous_performance_test,2024.2.4,Win32,59.52380952,49df378b-344f-429f-b4af-04ea5646092d,5,501.6325,503.3376,,0,0,28,28,19,1,T,space,,,,,,,,,,,,
,,,,,R_82R35ItJxL12AnJ,001,2025-09-10_13h05.00.771,continuous_performance_test,2024.2.4,Win32,59.52380952,49df378b-344f-429f-b4af-04ea5646092d,5,503.3384,505.182,,0,0,29,29,20,1,U,space,,,,,,,,,,,,
,,,,,R_82R35ItJxL12AnJ,001,2025-09-10_13h05.00.771,continuous_performance_test,2024.2.4,Win32,59.52380952,49df378b-344f-429f-b4af-04ea5646092d,5,520.1856,522.1821,,1,0,0,0,28,1,X,,,,505.1825,520.1819,,,,,,,,
,,,,,R_82R35ItJxL12AnJ,001,2025-09-10_13h05.00.771,continuous_performance_test,2024.2.4,Win32,59.52380952,49df378b-344f-429f-b4af-04ea5646092d,5,522.1827,523.8322,,0,0,1,1,19,1,T,space,,,,,,,,,,,,
,,,,,R_82R35ItJxL12AnJ,001,2025-09-10_13h05.00.771,continuous_performance_test,2024.2.4,Win32,59.52380952,49df378b-344f-429f-b4af-04ea5646092d,5,523.833,525.3821,space,0,0,2,2,25,1,X,,0.7004,,,,,,,,,,,
,,,,,R_82R35ItJxL12AnJ,001,2025-09-10_13h05.00.771,continuous_performance_test,2024.2.4,Win32,59.52380952,49df378b-344f-429f-b4af-04ea5646092d,5,525.3828,527.3209,,0,0,3,3,0,1,A,space,,,,,,,,,,,,
,,,,,R_82R35ItJxL12AnJ,001,2025-09-10_13h05.00.771,continuous_performance_test,2024.2.4,Win32,59.52380952,49df378b-344f-429f-b4af-04ea5646092d,5,527.3215,528.8653,,0,0,4,4,7,1,H,space,,,,,,,,,,,,
,,,,,R_82R35ItJxL12AnJ,001,2025-09-10_13h05.00.771,continuous_performance_test,2024.2.4,Win32,59.52380952,49df378b-344f-429f-b4af-04ea5646092d,5,528.8663,530.5153,space,0,0,5,5,27,1,X,,0.6515,,,,,,,,,,,
,,,,,R_82R35ItJxL12AnJ,001,2025-09-10_13h05.00.771,continuous_performance_test,2024.2.4,Win32,59.52380952,49df378b-344f-429f-b4af-04ea5646092d,5,530.516,532.0655,,0,0,6,6,1,1,B,space,,,,,,,,,,,,
,,,,,R_82R35ItJxL12AnJ,001,2025-09-10_13h05.00.771,continuous_performance_test,2024.2.4,Win32,59.52380952,49df378b-344f-429f-b4af-04ea5646092d,5,532.0665,533.9654,,0,0,7,7,18,1,S,space,,,,,,,,,,,,
,,,,,R_82R35ItJxL12AnJ,001,2025-09-10_13h05.00.771,continuous_performance_test,2024.2.4,Win32,59.52380952,49df378b-344f-429f-b4af-04ea5646092d,5,533.966,535.6213,,0,0,8,8,6,1,G,space,,,,,,,,,,,,
,,,,,R_82R35ItJxL12AnJ,001,2025-09-10_13h05.00.771,continuous_performance_test,2024.2.4,Win32,59.52380952,49df378b-344f-429f-b4af-04ea5646092d,5,535.6219,537.4654,space,0,0,9,9,26,1,X,,0.7434,,,,,,,,,,,
,,,,,R_82R35ItJxL12AnJ,001,2025-09-10_13h05.00.771,continuous_performance_test,2024.2.4,Win32,59.52380952,49df378b-344f-429f-b4af-04ea5646092d,5,537.466,539.3707,,0,0,10,10,21,1,V,space,,,,,,,,,,,,
,,,,,R_82R35ItJxL12AnJ,001,2025-09-10_13h05.00.771,continuous_performance_test,2024.2.4,Win32,59.52380952,49df378b-344f-429f-b4af-04ea5646092d,5,539.3712,541.1656,,0,0,11,11,10,1,K,space,,,,,,,,,,,,
,,,,,R_82R35ItJxL12AnJ,001,2025-09-10_13h05.00.771,continuous_performance_test,2024.2.4,Win32,59.52380952,49df378b-344f-429f-b4af-04ea5646092d,5,541.1663,543.0656,,0,0,12,12,4,1,E,space,,,,,,,,,,,,
,,,,,R_82R35ItJxL12AnJ,001,2025-09-10_13h05.00.771,continuous_performance_test,2024.2.4,Win32,59.52380952,49df378b-344f-429f-b4af-04ea5646092d,5,543.0661,544.8654,space,0,0,13,13,29,1,X,,0.637,,,,,,,,,,,
,,,,,R_82R35ItJxL12AnJ,001,2025-09-10_13h05.00.771,continuous_performance_test,2024.2.4,Win32,59.52380952,49df378b-344f-429f-b4af-04ea5646092d,5,544.8659,546.4153,,0,0,14,14,11,1,L,space,,,,,,,,,,,,
,,,,,R_82R35ItJxL12AnJ,001,2025-09-10_13h05.00.771,continuous_performance_test,2024.2.4,Win32,59.52380952,49df378b-344f-429f-b4af-04ea5646092d,5,546.4159,548.1153,,0,0,15,15,15,1,P,space,,,,,,,,,,,,
,,,,,R_82R35ItJxL12AnJ,001,2025-09-10_13h05.00.771,continuous_performance_test,2024.2.4,Win32,59.52380952,49df378b-344f-429f-b4af-04ea5646092d,5,548.1161,549.7199,,0,0,16,16,20,1,U,space,,,,,,,,,,,,
,,,,,R_82R35ItJxL12AnJ,001,2025-09-10_13h05.00.771,continuous_performance_test,2024.2.4,Win32,59.52380952,49df378b-344f-429f-b4af-04ea5646092d,5,549.7205,551.6213,,0,0,17,17,24,1,Z,space,,,,,,,,,,,,
,,,,,R_82R35ItJxL12AnJ,001,2025-09-10_13h05.00.771,continuous_performance_test,2024.2.4,Win32,59.52380952,49df378b-344f-429f-b4af-04ea5646092d,5,551.6218,553.4654,,0,0,18,18,23,1,Y,space,,,,,,,,,,,,
,,,,,R_82R35ItJxL12AnJ,001,2025-09-10_13h05.00.771,continuous_performance_test,2024.2.4,Win32,59.52380952,49df378b-344f-429f-b4af-04ea5646092d,5,553.466,555.2546,,0,0,19,19,3,1,D,space,,,,,,,,,,,,
,,,,,R_82R35ItJxL12AnJ,001,2025-09-10_13h05.00.771,continuous_performance_test,2024.2.4,Win32,59.52380952,49df378b-344f-429f-b4af-04ea5646092d,5,555.2551,557.1487,,0,0,20,20,5,1,F,space,,,,,,,,,,,,
,,,,,R_82R35ItJxL12AnJ,001,2025-09-10_13h05.00.771,continuous_performance_test,2024.2.4,Win32,59.52380952,49df378b-344f-429f-b4af-04ea5646092d,5,557.1492,558.9487,,0,0,21,21,22,1,W,space,,,,,,,,,,,,
,,,,,R_82R35ItJxL12AnJ,001,2025-09-10_13h05.00.771,continuous_performance_test,2024.2.4,Win32,59.52380952,49df378b-344f-429f-b4af-04ea5646092d,5,558.9495,560.6876,,0,0,22,22,16,1,Q,space,,,,,,,,,,,,
,,,,,R_82R35ItJxL12AnJ,001,2025-09-10_13h05.00.771,continuous_performance_test,2024.2.4,Win32,59.52380952,49df378b-344f-429f-b4af-04ea5646092d,5,560.6881,562.3322,,0,0,23,23,2,1,C,space,,,,,,,,,,,,
,,,,,R_82R35ItJxL12AnJ,001,2025-09-10_13h05.00.771,continuous_performance_test,2024.2.4,Win32,59.52380952,49df378b-344f-429f-b4af-04ea5646092d,5,562.3329,563.9323,,0,0,24,24,17,1,R,space,,,,,,,,,,,,
,,,,,R_82R35ItJxL12AnJ,001,2025-09-10_13h05.00.771,continuous_performance_test,2024.2.4,Win32,59.52380952,49df378b-344f-429f-b4af-04ea5646092d,5,563.9332,565.6322,,0,0,25,25,9,1,J,space,,,,,,,,,,,,
,,,,,R_82R35ItJxL12AnJ,001,2025-09-10_13h05.00.771,continuous_performance_test,2024.2.4,Win32,59.52380952,49df378b-344f-429f-b4af-04ea5646092d,5,565.6327,567.4323,,0,0,26,26,12,1,M,space,,,,,,,,,,,,
,,,,,R_82R35ItJxL12AnJ,001,2025-09-10_13h05.00.771,continuous_performance_test,2024.2.4,Win32,59.52380952,49df378b-344f-429f-b4af-04ea5646092d,5,567.4329,569.2321,,0,0,27,27,13,1,N,space,,,,,,,,,,,,
,,,,,R_82R35ItJxL12AnJ,001,2025-09-10_13h05.00.771,continuous_performance_test,2024.2.4,Win32,59.52380952,49df378b-344f-429f-b4af-04ea5646092d,5,569.2328,570.7713,,0,0,28,28,8,1,I,space,,,,,,,,,,,,
,,,,,R_82R35ItJxL12AnJ,001,2025-09-10_13h05.00.771,continuous_performance_test,2024.2.4,Win32,59.52380952,49df378b-344f-429f-b4af-04ea5646092d,5,570.7719,572.3716,,0,0,29,29,14,1,O,space,,,,,,,,,,,,
,,,,,R_82R35ItJxL12AnJ,001,2025-09-10_13h05.00.771,continuous_performance_test,2024.2.4,Win32,59.52380952,49df378b-344f-429f-b4af-04ea5646092d,5,587.3709,588.9155,,0,0,0,0,16,1,Q,space,,,572.3722,587.3657,,,,,,,,
,,,,,R_82R35ItJxL12AnJ,001,2025-09-10_13h05.00.771,continuous_performance_test,2024.2.4,Win32,59.52380952,49df378b-344f-429f-b4af-04ea5646092d,5,588.9164,590.7549,,0,0,1,1,2,1,C,space,,,,,,,,,,,,
,,,,,R_82R35ItJxL12AnJ,001,2025-09-10_13h05.00.771,continuous_performance_test,2024.2.4,Win32,59.52380952,49df378b-344f-429f-b4af-04ea5646092d,5,590.7555,592.6486,space,0,0,2,2,27,1,X,,0.7604,,,,,,,,,,,
,,,,,R_82R35ItJxL12AnJ,001,2025-09-10_13h05.00.771,continuous_performance_test,2024.2.4,Win32,59.52380952,49df378b-344f-429f-b4af-04ea5646092d,5,592.6492,594.5987,,0,0,3,3,4,1,E,space,,,,,,,,,,,,
,,,,,R_82R35ItJxL12AnJ,001,2025-09-10_13h05.00.771,continuous_performance_test,2024.2.4,Win32,59.52380952,49df378b-344f-429f-b4af-04ea5646092d,5,594.5993,596.5488,,0,0,4,4,5,1,F,space,,,,,,,,,,,,
,,,,,R_82R35ItJxL12AnJ,001,2025-09-10_13h05.00.771,continuous_performance_test,2024.2.4,Win32,59.52380952,49df378b-344f-429f-b4af-04ea5646092d,5,596.5496,598.1866,,0,0,5,5,3,1,D,space,,,,,,,,,,,,
,,,,,R_82R35ItJxL12AnJ,001,2025-09-10_13h05.00.771,continuous_performance_test,2024.2.4,Win32,59.52380952,49df378b-344f-429f-b4af-04ea5646092d,5,598.1872,600.0821,,0,0,6,6,23,1,Y,space,,,,,,,,,,,,
,,,,,R_82R35ItJxL12AnJ,001,2025-09-10_13h05.00.771,continuous_performance_test,2024.2.4,Win32,59.52380952,49df378b-344f-429f-b4af-04ea5646092d,5,600.0826,601.6822,space,0,0,7,7,29,1,X,,0.6929,,,,,,,,,,,
,,,,,R_82R35ItJxL12AnJ,001,2025-09-10_13h05.00.771,continuous_performance_test,2024.2.4,Win32,59.52380952,49df378b-344f-429f-b4af-04ea5646092d,5,601.6835,603.3822,,0,0,8,8,18,1,S,space,,,,,,,,,,,,
,,,,,R_82R35ItJxL12AnJ,001,2025-09-10_13h05.00.771,continuous_performance_test,2024.2.4,Win32,59.52380952,49df378b-344f-429f-b4af-04ea5646092d,5,603.383,605.021,,0,0,9,9,22,1,W,space,,,,,,,,,,,,
,,,,,R_82R35ItJxL12AnJ,001,2025-09-10_13h05.00.771,continuous_performance_test,2024.2.4,Win32,59.52380952,49df378b-344f-429f-b4af-04ea5646092d,5,605.0218,606.9157,,0,0,10,10,1,1,B,space,,,,,,,,,,,,
,,,,,R_82R35ItJxL12AnJ,001,2025-09-10_13h05.00.771,continuous_performance_test,2024.2.4,Win32,59.52380952,49df378b-344f-429f-b4af-04ea5646092d,5,606.917,608.5655,,0,0,11,11,13,1,N,space,,,,,,,,,,,,
,,,,,R_82R35ItJxL12AnJ,001,2025-09-10_13h05.00.771,continuous_performance_test,2024.2.4,Win32,59.52380952,49df378b-344f-429f-b4af-04ea5646092d,5,608.566,610.2215,,0,0,12,12,14,1,O,space,,,,,,,,,,,,
,,,,,R_82R35ItJxL12AnJ,001,2025-09-10_13h05.00.771,continuous_performance_test,2024.2.4,Win32,59.52380952,49df378b-344f-429f-b4af-04ea5646092d,5,610.2219,612.1703,,0,0,13,13,8,1,I,space,,,,,,,,,,,,
,,,,,R_82R35ItJxL12AnJ,001,2025-09-10_13h05.00.771,continuous_performance_test,2024.2.4,Win32,59.52380952,49df378b-344f-429f-b4af-04ea5646092d,5,612.171,614.1656,,0,0,14,14,0,1,A,space,,,,,,,,,,,,
,,,,,R_82R35ItJxL12AnJ,001,2025-09-10_13h05.00.771,continuous_performance_test,2024.2.4,Win32,59.52380952,49df378b-344f-429f-b4af-04ea5646092d,5,614.1667,615.8158,,0,0,15,15,24,1,Z,space,,,,,,,,,,,,
,,,,,R_82R35ItJxL12AnJ,001,2025-09-10_13h05.00.771,continuous_performance_test,2024.2.4,Win32,59.52380952,49df378b-344f-429f-b4af-04ea5646092d,5,615.8165,617.6543,,0,0,16,16,17,1,R,space,,,,,,,,,,,,
,,,,,R_82R35ItJxL12AnJ,001,2025-09-10_13h05.00.771,continuous_performance_test,2024.2.4,Win32,59.52380952,49df378b-344f-429f-b4af-04ea5646092d,5,617.6548,619.4992,space,0,0,17,17,26,1,X,,0.6334,,,,,,,,,,,
,,,,,R_82R35ItJxL12AnJ,001,2025-09-10_13h05.00.771,continuous_performance_test,2024.2.4,Win32,59.52380952,49df378b-344f-429f-b4af-04ea5646092d,5,619.5004,621.4992,,0,0,18,18,11,1,L,space,,,,,,,,,,,,
,,,,,R_82R35ItJxL12AnJ,001,2025-09-10_13h05.00.771,continuous_performance_test,2024.2.4,Win32,59.52380952,49df378b-344f-429f-b4af-04ea5646092d,5,621.5006,623.3489,space,0,0,19,19,25,1,X,,0.6698,,,,,,,,,,,
,,,,,R_82R35ItJxL12AnJ,001,2025-09-10_13h05.00.771,continuous_performance_test,2024.2.4,Win32,59.52380952,49df378b-344f-429f-b4af-04ea5646092d,5,623.3496,625.249,,0,0,20,20,9,1,J,space,,,,,,,,,,,,
,,,,,R_82R35ItJxL12AnJ,001,2025-09-10_13h05.00.771,continuous_performance_test,2024.2.4,Win32,59.52380952,49df378b-344f-429f-b4af-04ea5646092d,5,625.2495,626.9989,,0,0,21,21,10,1,K,space,,,,,,,,,,,,
,,,,,R_82R35ItJxL12AnJ,001,2025-09-10_13h05.00.771,continuous_performance_test,2024.2.4,Win32,59.52380952,49df378b-344f-429f-b4af-04ea5646092d,5,627,628.7493,space,0,0,22,22,28,1,X,,0.6921,,,,,,,,,,,
,,,,,R_82R35ItJxL12AnJ,001,2025-09-10_13h05.00.771,continuous_performance_test,2024.2.4,Win32,59.52380952,49df378b-344f-429f-b4af-04ea5646092d,5,628.7506,630.7047,,0,0,23,23,15,1,P,space,,,,,,,,,,,,
,,,,,R_82R35ItJxL12AnJ,001,2025-09-10_13h05.00.771,continuous_performance_test,2024.2.4,Win32,59.52380952,49df378b-344f-429f-b4af-04ea5646092d,5,630.7054,632.4488,,0,0,24,24,20,1,U,space,,,,,,,,,,,,
,,,,,R_82R35ItJxL12AnJ,001,2025-09-10_13h05.00.771,continuous_performance_test,2024.2.4,Win32,59.52380952,49df378b-344f-429f-b4af-04ea5646092d,5,632.4494,634.049,,0,0,25,25,21,1,V,space,,,,,,,,,,,,
,,,,,R_82R35ItJxL12AnJ,001,2025-09-10_13h05.00.771,continuous_performance_test,2024.2.4,Win32,59.52380952,49df378b-344f-429f-b4af-04ea5646092d,5,634.0501,635.999,,0,0,26,26,6,1,G,space,,,,,,,,,,,,
,,,,,R_82R35ItJxL12AnJ,001,2025-09-10_13h05.00.771,continuous_performance_test,2024.2.4,Win32,59.52380952,49df378b-344f-429f-b4af-04ea5646092d,5,635.9998,637.7877,,0,0,27,27,12,1,M,space,,,,,,,,,,,,
,,,,,R_82R35ItJxL12AnJ,001,2025-09-10_13h05.00.771,continuous_performance_test,2024.2.4,Win32,59.52380952,49df378b-344f-429f-b4af-04ea5646092d,5,637.7885,639.7366,,0,0,28,28,7,1,H,space,,,,,,,,,,,,
,,,,,R_82R35ItJxL12AnJ,001,2025-09-10_13h05.00.771,continuous_performance_test,2024.2.4,Win32,59.52380952,49df378b-344f-429f-b4af-04ea5646092d,5,639.7372,641.6322,,0,0,29,29,19,1,T,space,,,,,,,,,,,,
,,,,,R_82R35ItJxL12AnJ,001,2025-09-10_13h05.00.771,continuous_performance_test,2024.2.4,Win32,59.52380952,49df378b-344f-429f-b4af-04ea5646092d,5,,,,,,,,,,,,,,641.6328,641.6333,,,,641.6335,653.7553,space,12.1003,
