Instructions.started,Instructions.stopped,key_resp.keys,key_resp.rt,key_resp.duration,participant,session,date,expName,psychopyVersion,OS,frameRate,realeye-tester-id,realeye-tester-quality_grade,Trial_noX.started,Trial_noX.stopped,response.keys,response.corr,trials_noX.thisRepN,trials_noX.thisTrialN,trials_noX.thisN,trials_noX.thisIndex,trials_noX.ran,letter,corrAns,response.rt,response.duration,BlockBreak.started,BlockBreak.stopped,key_instruct.keys,key_instruct.rt,key_instruct.duration,End_NoX.started,End_NoX.stopped,key_resp_end_noX.keys,key_resp_end_noX.rt,key_resp_end_noX.duration
0.0002,22.4393,space,22.4221,,R_82R35ItJxL12AnJ,001,2025-09-10_13h16.33.255,continuous_performance_test,2024.2.4,Win32,59.52380952,49df378b-344f-429f-b4af-04ea5646092d,5,,,,,,,,,,,,,,,,,,,,,,,
,,,,,R_82R35ItJxL12AnJ,001,2025-09-10_13h16.33.255,continuous_performance_test,2024.2.4,Win32,59.52380952,49df378b-344f-429f-b4af-04ea5646092d,5,22.4469,23.9891,,1,0,0,0,29,1,X,,,,,,,,,,,,,
,,,,,R_82R35ItJxL12AnJ,001,2025-09-10_13h16.33.255,continuous_performance_test,2024.2.4,Win32,59.52380952,49df378b-344f-429f-b4af-04ea5646092d,5,23.9899,25.7281,space,1,0,1,1,4,1,E,space,0.3826,,,,,,,,,,,
,,,,,R_82R35ItJxL12AnJ,001,2025-09-10_13h16.33.255,continuous_performance_test,2024.2.4,Win32,59.52380952,49df378b-344f-429f-b4af-04ea5646092d,5,25.7286,27.4287,space,1,0,2,2,14,1,O,space,0.2991,,,,,,,,,,,
,,,,,R_82R35ItJxL12AnJ,001,2025-09-10_13h16.33.255,continuous_performance_test,2024.2.4,Win32,59.52380952,49df378b-344f-429f-b4af-04ea5646092d,5,27.4295,29.3781,space,1,0,3,3,0,1,A,space,0.3034,,,,,,,,,,,
,,,,,R_82R35ItJxL12AnJ,001,2025-09-10_13h16.33.255,continuous_performance_test,2024.2.4,Win32,59.52380952,49df378b-344f-429f-b4af-04ea5646092d,5,29.3786,31.2281,space,1,0,4,4,24,1,Z,space,0.2995,,,,,,,,,,,
,,,,,R_82R35ItJxL12AnJ,001,2025-09-10_13h16.33.255,continuous_performance_test,2024.2.4,Win32,59.52380952,49df378b-344f-429f-b4af-04ea5646092d,5,31.2287,33.0791,space,1,0,5,5,7,1,H,space,0.2878,,,,,,,,,,,
,,,,,R_82R35ItJxL12AnJ,001,2025-09-10_13h16.33.255,continuous_performance_test,2024.2.4,Win32,59.52380952,49df378b-344f-429f-b4af-04ea5646092d,5,33.0797,34.8724,space,1,0,6,6,6,1,G,space,0.2491,,,,,,,,,,,
,,,,,R_82R35ItJxL12AnJ,001,2025-09-10_13h16.33.255,continuous_performance_test,2024.2.4,Win32,59.52380952,49df378b-344f-429f-b4af-04ea5646092d,5,34.8731,36.4727,space,1,0,7,7,20,1,U,space,0.2866,,,,,,,,,,,
,,,,,R_82R35ItJxL12AnJ,001,2025-09-10_13h16.33.255,continuous_performance_test,2024.2.4,Win32,59.52380952,49df378b-344f-429f-b4af-04ea5646092d,5,36.4737,38.3726,space,1,0,8,8,2,1,C,space,0.2872,,,,,,,,,,,
,,,,,R_82R35ItJxL12AnJ,001,2025-09-10_13h16.33.255,continuous_performance_test,2024.2.4,Win32,59.52380952,49df378b-344f-429f-b4af-04ea5646092d,5,38.3732,39.9284,space,1,0,9,9,23,1,Y,space,0.2844,,,,,,,,,,,
,,,,,R_82R35ItJxL12AnJ,001,2025-09-10_13h16.33.255,continuous_performance_test,2024.2.4,Win32,59.52380952,49df378b-344f-429f-b4af-04ea5646092d,5,39.929,41.5225,space,1,0,10,10,1,1,B,space,0.2937,,,,,,,,,,,
,,,,,R_82R35ItJxL12AnJ,001,2025-09-10_13h16.33.255,continuous_performance_test,2024.2.4,Win32,59.52380952,49df378b-344f-429f-b4af-04ea5646092d,5,41.5232,43.0726,space,1,0,11,11,15,1,P,space,0.306,,,,,,,,,,,
,,,,,R_82R35ItJxL12AnJ,001,2025-09-10_13h16.33.255,continuous_performance_test,2024.2.4,Win32,59.52380952,49df378b-344f-429f-b4af-04ea5646092d,5,43.0736,44.7285,space,1,0,12,12,12,1,M,space,0.3345,,,,,,,,,,,
,,,,,R_82R35ItJxL12AnJ,001,2025-09-10_13h16.33.255,continuous_performance_test,2024.2.4,Win32,59.52380952,49df378b-344f-429f-b4af-04ea5646092d,5,44.7292,46.3726,space,1,0,13,13,13,1,N,space,0.2913,,,,,,,,,,,
,,,,,R_82R35ItJxL12AnJ,001,2025-09-10_13h16.33.255,continuous_performance_test,2024.2.4,Win32,59.52380952,49df378b-344f-429f-b4af-04ea5646092d,5,46.374,48.0723,space,1,0,14,14,22,1,W,space,0.2823,,,,,,,,,,,
,,,,,R_82R35ItJxL12AnJ,001,2025-09-10_13h16.33.255,continuous_performance_test,2024.2.4,Win32,59.52380952,49df378b-344f-429f-b4af-04ea5646092d,5,48.073,49.6225,space,1,0,15,15,10,1,K,space,0.3044,,,,,,,,,,,
,,,,,R_82R35ItJxL12AnJ,001,2025-09-10_13h16.33.255,continuous_performance_test,2024.2.4,Win32,59.52380952,49df378b-344f-429f-b4af-04ea5646092d,5,49.6235,51.3726,space,1,0,16,16,5,1,F,space,0.3257,,,,,,,,,,,
,,,,,R_82R35ItJxL12AnJ,001,2025-09-10_13h16.33.255,continuous_performance_test,2024.2.4,Win32,59.52380952,49df378b-344f-429f-b4af-04ea5646092d,5,51.3732,52.9111,space,0,0,17,17,25,1,X,,0.2675,,,,,,,,,,,
,,,,,R_82R35ItJxL12AnJ,001,2025-09-10_13h16.33.255,continuous_performance_test,2024.2.4,Win32,59.52380952,49df378b-344f-429f-b4af-04ea5646092d,5,52.9118,54.6558,space,1,0,18,18,19,1,T,space,0.3168,,,,,,,,,,,
,,,,,R_82R35ItJxL12AnJ,001,2025-09-10_13h16.33.255,continuous_performance_test,2024.2.4,Win32,59.52380952,49df378b-344f-429f-b4af-04ea5646092d,5,54.6564,56.4613,space,0,0,19,19,27,1,X,,0.2892,,,,,,,,,,,
,,,,,R_82R35ItJxL12AnJ,001,2025-09-10_13h16.33.255,continuous_performance_test,2024.2.4,Win32,59.52380952,49df378b-344f-429f-b4af-04ea5646092d,5,56.4619,58.2558,space,1,0,20,20,18,1,S,space,0.5324,,,,,,,,,,,
,,,,,R_82R35ItJxL12AnJ,001,2025-09-10_13h16.33.255,continuous_performance_test,2024.2.4,Win32,59.52380952,49df378b-344f-429f-b4af-04ea5646092d,5,58.2567,60.0951,space,1,0,21,21,3,1,D,space,0.3668,,,,,,,,,,,
,,,,,R_82R35ItJxL12AnJ,001,2025-09-10_13h16.33.255,continuous_performance_test,2024.2.4,Win32,59.52380952,49df378b-344f-429f-b4af-04ea5646092d,5,60.0956,61.7939,space,1,0,22,22,21,1,V,space,0.3769,,,,,,,,,,,
,,,,,R_82R35ItJxL12AnJ,001,2025-09-10_13h16.33.255,continuous_performance_test,2024.2.4,Win32,59.52380952,49df378b-344f-429f-b4af-04ea5646092d,5,61.7945,63.7953,space,0,0,23,23,28,1,X,,0.3064,,,,,,,,,,,
,,,,,R_82R35ItJxL12AnJ,001,2025-09-10_13h16.33.255,continuous_performance_test,2024.2.4,Win32,59.52380952,49df378b-344f-429f-b4af-04ea5646092d,5,63.7958,65.6894,space,1,0,24,24,9,1,J,space,0.5042,,,,,,,,,,,
,,,,,R_82R35ItJxL12AnJ,001,2025-09-10_13h16.33.255,continuous_performance_test,2024.2.4,Win32,59.52380952,49df378b-344f-429f-b4af-04ea5646092d,5,65.69,67.428,space,1,0,25,25,16,1,Q,space,0.3488,,,,,,,,,,,
,,,,,R_82R35ItJxL12AnJ,001,2025-09-10_13h16.33.255,continuous_performance_test,2024.2.4,Win32,59.52380952,49df378b-344f-429f-b4af-04ea5646092d,5,67.4285,69.1726,,0,0,26,26,11,1,L,space,,,,,,,,,,,,
,,,,,R_82R35ItJxL12AnJ,001,2025-09-10_13h16.33.255,continuous_performance_test,2024.2.4,Win32,59.52380952,49df378b-344f-429f-b4af-04ea5646092d,5,69.1732,70.8781,space,1,0,27,27,17,1,R,space,0.4334,,,,,,,,,,,
,,,,,R_82R35ItJxL12AnJ,001,2025-09-10_13h16.33.255,continuous_performance_test,2024.2.4,Win32,59.52380952,49df378b-344f-429f-b4af-04ea5646092d,5,70.8788,72.728,,1,0,28,28,26,1,X,,,,,,,,,,,,,
,,,,,R_82R35ItJxL12AnJ,001,2025-09-10_13h16.33.255,continuous_performance_test,2024.2.4,Win32,59.52380952,49df378b-344f-429f-b4af-04ea5646092d,5,72.7285,74.5228,space,1,0,29,29,8,1,I,space,0.3731,,,,,,,,,,,
,,,,,R_82R35ItJxL12AnJ,001,2025-09-10_13h16.33.255,continuous_performance_test,2024.2.4,Win32,59.52380952,49df378b-344f-429f-b4af-04ea5646092d,5,89.5292,91.2725,,1,0,0,0,27,1,X,,,,74.523,89.5227,,,,,,,,
,,,,,R_82R35ItJxL12AnJ,001,2025-09-10_13h16.33.255,continuous_performance_test,2024.2.4,Win32,59.52380952,49df378b-344f-429f-b4af-04ea5646092d,5,91.2733,93.0111,space,1,0,1,1,11,1,L,space,0.5733,,,,,,,,,,,
,,,,,R_82R35ItJxL12AnJ,001,2025-09-10_13h16.33.255,continuous_performance_test,2024.2.4,Win32,59.52380952,49df378b-344f-429f-b4af-04ea5646092d,5,93.0117,94.606,space,1,0,2,2,9,1,J,space,0.3613,,,,,,,,,,,
,,,,,R_82R35ItJxL12AnJ,001,2025-09-10_13h16.33.255,continuous_performance_test,2024.2.4,Win32,59.52380952,49df378b-344f-429f-b4af-04ea5646092d,5,94.6066,96.5561,space,1,0,3,3,23,1,Y,space,0.2998,,,,,,,,,,,
,,,,,R_82R35ItJxL12AnJ,001,2025-09-10_13h16.33.255,continuous_performance_test,2024.2.4,Win32,59.52380952,49df378b-344f-429f-b4af-04ea5646092d,5,96.5573,98.5057,space,1,0,4,4,1,1,B,space,0.2991,,,,,,,,,,,
,,,,,R_82R35ItJxL12AnJ,001,2025-09-10_13h16.33.255,continuous_performance_test,2024.2.4,Win32,59.52380952,49df378b-344f-429f-b4af-04ea5646092d,5,98.5064,100.356,space,0,0,5,5,25,1,X,,0.3325,,,,,,,,,,,
,,,,,R_82R35ItJxL12AnJ,001,2025-09-10_13h16.33.255,continuous_performance_test,2024.2.4,Win32,59.52380952,49df378b-344f-429f-b4af-04ea5646092d,5,100.3565,102.3559,space,1,0,6,6,22,1,W,space,0.2984,,,,,,,,,,,
,,,,,R_82R35ItJxL12AnJ,001,2025-09-10_13h16.33.255,continuous_performance_test,2024.2.4,Win32,59.52380952,49df378b-344f-429f-b4af-04ea5646092d,5,102.3565,103.9563,space,1,0,7,7,21,1,V,space,0.3511,,,,,,,,,,,
,,,,,R_82R35ItJxL12AnJ,001,2025-09-10_13h16.33.255,continuous_performance_test,2024.2.4,Win32,59.52380952,49df378b-344f-429f-b4af-04ea5646092d,5,103.9572,105.756,space,1,0,8,8,14,1,O,space,0.3247,,,,,,,,,,,
,,,,,R_82R35ItJxL12AnJ,001,2025-09-10_13h16.33.255,continuous_performance_test,2024.2.4,Win32,59.52380952,49df378b-344f-429f-b4af-04ea5646092d,5,105.7565,107.5559,space,1,0,9,9,8,1,I,space,0.3076,,,,,,,,,,,
,,,,,R_82R35ItJxL12AnJ,001,2025-09-10_13h16.33.255,continuous_performance_test,2024.2.4,Win32,59.52380952,49df378b-344f-429f-b4af-04ea5646092d,5,107.5565,109.2437,space,0,0,10,10,28,1,X,,0.3332,,,,,,,,,,,
,,,,,R_82R35ItJxL12AnJ,001,2025-09-10_13h16.33.255,continuous_performance_test,2024.2.4,Win32,59.52380952,49df378b-344f-429f-b4af-04ea5646092d,5,109.2443,110.8892,space,1,0,11,11,13,1,N,space,0.3047,,,,,,,,,,,
,,,,,R_82R35ItJxL12AnJ,001,2025-09-10_13h16.33.255,continuous_performance_test,2024.2.4,Win32,59.52380952,49df378b-344f-429f-b4af-04ea5646092d,5,110.8897,112.8447,space,1,0,12,12,7,1,H,space,0.3068,,,,,,,,,,,
,,,,,R_82R35ItJxL12AnJ,001,2025-09-10_13h16.33.255,continuous_performance_test,2024.2.4,Win32,59.52380952,49df378b-344f-429f-b4af-04ea5646092d,5,112.8454,114.6392,space,1,0,13,13,0,1,A,space,0.29,,,,,,,,,,,
,,,,,R_82R35ItJxL12AnJ,001,2025-09-10_13h16.33.255,continuous_performance_test,2024.2.4,Win32,59.52380952,49df378b-344f-429f-b4af-04ea5646092d,5,114.6397,116.1892,space,0,0,14,14,29,1,X,,0.2871,,,,,,,,,,,
,,,,,R_82R35ItJxL12AnJ,001,2025-09-10_13h16.33.255,continuous_performance_test,2024.2.4,Win32,59.52380952,49df378b-344f-429f-b4af-04ea5646092d,5,116.19,118.1392,space,1,0,15,15,18,1,S,space,0.3203,,,,,,,,,,,
,,,,,R_82R35ItJxL12AnJ,001,2025-09-10_13h16.33.255,continuous_performance_test,2024.2.4,Win32,59.52380952,49df378b-344f-429f-b4af-04ea5646092d,5,118.14,120.1394,space,1,0,16,16,12,1,M,space,0.3028,,,,,,,,,,,
,,,,,R_82R35ItJxL12AnJ,001,2025-09-10_13h16.33.255,continuous_performance_test,2024.2.4,Win32,59.52380952,49df378b-344f-429f-b4af-04ea5646092d,5,120.1403,122.1393,space,1,0,17,17,4,1,E,space,0.399,,,,,,,,,,,
,,,,,R_82R35ItJxL12AnJ,001,2025-09-10_13h16.33.255,continuous_performance_test,2024.2.4,Win32,59.52380952,49df378b-344f-429f-b4af-04ea5646092d,5,122.1398,123.6786,space,1,0,18,18,24,1,Z,space,0.3742,,,,,,,,,,,
,,,,,R_82R35ItJxL12AnJ,001,2025-09-10_13h16.33.255,continuous_performance_test,2024.2.4,Win32,59.52380952,49df378b-344f-429f-b4af-04ea5646092d,5,123.6791,125.4725,space,1,0,19,19,10,1,K,space,0.593,,,,,,,,,,,
,,,,,R_82R35ItJxL12AnJ,001,2025-09-10_13h16.33.255,continuous_performance_test,2024.2.4,Win32,59.52380952,49df378b-344f-429f-b4af-04ea5646092d,5,125.4731,127.3726,space,1,0,20,20,15,1,P,space,0.3585,,,,,,,,,,,
,,,,,R_82R35ItJxL12AnJ,001,2025-09-10_13h16.33.255,continuous_performance_test,2024.2.4,Win32,59.52380952,49df378b-344f-429f-b4af-04ea5646092d,5,127.3737,129.2729,space,1,0,21,21,19,1,T,space,0.3391,,,,,,,,,,,
,,,,,R_82R35ItJxL12AnJ,001,2025-09-10_13h16.33.255,continuous_performance_test,2024.2.4,Win32,59.52380952,49df378b-344f-429f-b4af-04ea5646092d,5,129.274,131.0727,space,1,0,22,22,2,1,C,space,0.5169,,,,,,,,,,,
,,,,,R_82R35ItJxL12AnJ,001,2025-09-10_13h16.33.255,continuous_performance_test,2024.2.4,Win32,59.52380952,49df378b-344f-429f-b4af-04ea5646092d,5,131.0733,132.8725,space,1,0,23,23,17,1,R,space,0.3359,,,,,,,,,,,
,,,,,R_82R35ItJxL12AnJ,001,2025-09-10_13h16.33.255,continuous_performance_test,2024.2.4,Win32,59.52380952,49df378b-344f-429f-b4af-04ea5646092d,5,132.8732,134.8782,space,1,0,24,24,16,1,Q,space,0.3683,,,,,,,,,,,
,,,,,R_82R35ItJxL12AnJ,001,2025-09-10_13h16.33.255,continuous_performance_test,2024.2.4,Win32,59.52380952,49df378b-344f-429f-b4af-04ea5646092d,5,134.8787,136.5724,space,1,0,25,25,3,1,D,space,0.3659,,,,,,,,,,,
,,,,,R_82R35ItJxL12AnJ,001,2025-09-10_13h16.33.255,continuous_performance_test,2024.2.4,Win32,59.52380952,49df378b-344f-429f-b4af-04ea5646092d,5,136.5729,138.4783,space,0,0,26,26,26,1,X,,0.3609,,,,,,,,,,,
,,,,,R_82R35ItJxL12AnJ,001,2025-09-10_13h16.33.255,continuous_performance_test,2024.2.4,Win32,59.52380952,49df378b-344f-429f-b4af-04ea5646092d,5,138.4789,140.373,space,1,0,27,27,6,1,G,space,0.2738,,,,,,,,,,,
,,,,,R_82R35ItJxL12AnJ,001,2025-09-10_13h16.33.255,continuous_performance_test,2024.2.4,Win32,59.52380952,49df378b-344f-429f-b4af-04ea5646092d,5,140.3746,142.3119,space,1,0,28,28,20,1,U,space,0.3,,,,,,,,,,,
,,,,,R_82R35ItJxL12AnJ,001,2025-09-10_13h16.33.255,continuous_performance_test,2024.2.4,Win32,59.52380952,49df378b-344f-429f-b4af-04ea5646092d,5,142.3125,144.1619,space,1,0,29,29,5,1,F,space,0.2925,,,,,,,,,,,
,,,,,R_82R35ItJxL12AnJ,001,2025-09-10_13h16.33.255,continuous_performance_test,2024.2.4,Win32,59.52380952,49df378b-344f-429f-b4af-04ea5646092d,5,158.4599,160.406,space,1,0,0,0,21,1,V,space,0.6492,,144.1624,158.4562,space,14.2649,,,,,,
,,,,,R_82R35ItJxL12AnJ,001,2025-09-10_13h16.33.255,continuous_performance_test,2024.2.4,Win32,59.52380952,49df378b-344f-429f-b4af-04ea5646092d,5,160.4069,162.1562,space,1,0,1,1,23,1,Y,space,0.367,,,,,,,,,,,
,,,,,R_82R35ItJxL12AnJ,001,2025-09-10_13h16.33.255,continuous_performance_test,2024.2.4,Win32,59.52380952,49df378b-344f-429f-b4af-04ea5646092d,5,162.1571,163.8558,space,1,0,2,2,12,1,M,space,0.3167,,,,,,,,,,,
,,,,,R_82R35ItJxL12AnJ,001,2025-09-10_13h16.33.255,continuous_performance_test,2024.2.4,Win32,59.52380952,49df378b-344f-429f-b4af-04ea5646092d,5,163.8564,165.4451,space,1,0,3,3,6,1,G,space,0.2721,,,,,,,,,,,
,,,,,R_82R35ItJxL12AnJ,001,2025-09-10_13h16.33.255,continuous_performance_test,2024.2.4,Win32,59.52380952,49df378b-344f-429f-b4af-04ea5646092d,5,165.4457,167.2451,space,1,0,4,4,22,1,W,space,0.2715,,,,,,,,,,,
,,,,,R_82R35ItJxL12AnJ,001,2025-09-10_13h16.33.255,continuous_performance_test,2024.2.4,Win32,59.52380952,49df378b-344f-429f-b4af-04ea5646092d,5,167.2457,168.9393,space,1,0,5,5,4,1,E,space,0.2827,,,,,,,,,,,
,,,,,R_82R35ItJxL12AnJ,001,2025-09-10_13h16.33.255,continuous_performance_test,2024.2.4,Win32,59.52380952,49df378b-344f-429f-b4af-04ea5646092d,5,168.9399,170.8781,space,1,0,6,6,20,1,U,space,0.2694,,,,,,,,,,,
,,,,,R_82R35ItJxL12AnJ,001,2025-09-10_13h16.33.255,continuous_performance_test,2024.2.4,Win32,59.52380952,49df378b-344f-429f-b4af-04ea5646092d,5,170.8785,172.8226,space,1,0,7,7,15,1,P,space,0.224,,,,,,,,,,,
,,,,,R_82R35ItJxL12AnJ,001,2025-09-10_13h16.33.255,continuous_performance_test,2024.2.4,Win32,59.52380952,49df378b-344f-429f-b4af-04ea5646092d,5,172.8234,174.373,space,1,0,8,8,7,1,H,space,0.4833,,,,,,,,,,,
,,,,,R_82R35ItJxL12AnJ,001,2025-09-10_13h16.33.255,continuous_performance_test,2024.2.4,Win32,59.52380952,49df378b-344f-429f-b4af-04ea5646092d,5,174.3738,176.1225,space,1,0,9,9,9,1,J,space,0.3219,,,,,,,,,,,
,,,,,R_82R35ItJxL12AnJ,001,2025-09-10_13h16.33.255,continuous_performance_test,2024.2.4,Win32,59.52380952,49df378b-344f-429f-b4af-04ea5646092d,5,176.1231,177.8115,space,1,0,10,10,2,1,C,space,0.3108,,,,,,,,,,,
,,,,,R_82R35ItJxL12AnJ,001,2025-09-10_13h16.33.255,continuous_performance_test,2024.2.4,Win32,59.52380952,49df378b-344f-429f-b4af-04ea5646092d,5,177.8122,179.4061,space,1,0,11,11,1,1,B,space,0.7325,,,,,,,,,,,
,,,,,R_82R35ItJxL12AnJ,001,2025-09-10_13h16.33.255,continuous_performance_test,2024.2.4,Win32,59.52380952,49df378b-344f-429f-b4af-04ea5646092d,5,179.4069,181.312,space,1,0,12,12,3,1,D,space,0.3336,,,,,,,,,,,
,,,,,R_82R35ItJxL12AnJ,001,2025-09-10_13h16.33.255,continuous_performance_test,2024.2.4,Win32,59.52380952,49df378b-344f-429f-b4af-04ea5646092d,5,181.3126,183.006,space,1,0,13,13,13,1,N,space,0.3489,,,,,,,,,,,
,,,,,R_82R35ItJxL12AnJ,001,2025-09-10_13h16.33.255,continuous_performance_test,2024.2.4,Win32,59.52380952,49df378b-344f-429f-b4af-04ea5646092d,5,183.0069,184.956,space,1,0,14,14,11,1,L,space,0.3251,,,,,,,,,,,
,,,,,R_82R35ItJxL12AnJ,001,2025-09-10_13h16.33.255,continuous_performance_test,2024.2.4,Win32,59.52380952,49df378b-344f-429f-b4af-04ea5646092d,5,184.9567,186.8589,space,1,0,15,15,16,1,Q,space,0.3406,,,,,,,,,,,
,,,,,R_82R35ItJxL12AnJ,001,2025-09-10_13h16.33.255,continuous_performance_test,2024.2.4,Win32,59.52380952,49df378b-344f-429f-b4af-04ea5646092d,5,186.8594,188.6113,space,1,0,16,16,10,1,K,space,0.3333,,,,,,,,,,,
,,,,,R_82R35ItJxL12AnJ,001,2025-09-10_13h16.33.255,continuous_performance_test,2024.2.4,Win32,59.52380952,49df378b-344f-429f-b4af-04ea5646092d,5,188.6118,190.202,space,1,0,17,17,19,1,T,space,0.3231,,,,,,,,,,,
,,,,,R_82R35ItJxL12AnJ,001,2025-09-10_13h16.33.255,continuous_performance_test,2024.2.4,Win32,59.52380952,49df378b-344f-429f-b4af-04ea5646092d,5,190.2025,191.7948,space,1,0,18,18,18,1,S,space,0.3371,,,,,,,,,,,
,,,,,R_82R35ItJxL12AnJ,001,2025-09-10_13h16.33.255,continuous_performance_test,2024.2.4,Win32,59.52380952,49df378b-344f-429f-b4af-04ea5646092d,5,191.7955,193.7392,space,1,0,19,19,24,1,Z,space,0.3223,,,,,,,,,,,
,,,,,R_82R35ItJxL12AnJ,001,2025-09-10_13h16.33.255,continuous_performance_test,2024.2.4,Win32,59.52380952,49df378b-344f-429f-b4af-04ea5646092d,5,193.7396,195.5396,space,0,0,20,20,25,1,X,,0.2707,,,,,,,,,,,
,,,,,R_82R35ItJxL12AnJ,001,2025-09-10_13h16.33.255,continuous_performance_test,2024.2.4,Win32,59.52380952,49df378b-344f-429f-b4af-04ea5646092d,5,195.5407,197.3896,space,1,0,21,21,0,1,A,space,0.273,,,,,,,,,,,
,,,,,R_82R35ItJxL12AnJ,001,2025-09-10_13h16.33.255,continuous_performance_test,2024.2.4,Win32,59.52380952,49df378b-344f-429f-b4af-04ea5646092d,5,197.3911,199.3894,space,0,0,22,22,27,1,X,,0.4671,,,,,,,,,,,
,,,,,R_82R35ItJxL12AnJ,001,2025-09-10_13h16.33.255,continuous_performance_test,2024.2.4,Win32,59.52380952,49df378b-344f-429f-b4af-04ea5646092d,5,199.39,200.995,,1,0,23,23,29,1,X,,,,,,,,,,,,,
,,,,,R_82R35ItJxL12AnJ,001,2025-09-10_13h16.33.255,continuous_performance_test,2024.2.4,Win32,59.52380952,49df378b-344f-429f-b4af-04ea5646092d,5,200.9955,202.6894,space,1,0,24,24,5,1,F,space,0.4502,,,,,,,,,,,
,,,,,R_82R35ItJxL12AnJ,001,2025-09-10_13h16.33.255,continuous_performance_test,2024.2.4,Win32,59.52380952,49df378b-344f-429f-b4af-04ea5646092d,5,202.6901,204.4894,space,0,0,25,25,28,1,X,,0.3433,,,,,,,,,,,
,,,,,R_82R35ItJxL12AnJ,001,2025-09-10_13h16.33.255,continuous_performance_test,2024.2.4,Win32,59.52380952,49df378b-344f-429f-b4af-04ea5646092d,5,204.4903,206.1953,space,1,0,26,26,14,1,O,space,0.3586,,,,,,,,,,,
,,,,,R_82R35ItJxL12AnJ,001,2025-09-10_13h16.33.255,continuous_performance_test,2024.2.4,Win32,59.52380952,49df378b-344f-429f-b4af-04ea5646092d,5,206.1959,207.7395,space,1,0,27,27,8,1,I,space,0.2938,,,,,,,,,,,
,,,,,R_82R35ItJxL12AnJ,001,2025-09-10_13h16.33.255,continuous_performance_test,2024.2.4,Win32,59.52380952,49df378b-344f-429f-b4af-04ea5646092d,5,207.7402,209.4938,space,0,0,28,28,26,1,X,,0.2773,,,,,,,,,,,
,,,,,R_82R35ItJxL12AnJ,001,2025-09-10_13h16.33.255,continuous_performance_test,2024.2.4,Win32,59.52380952,49df378b-344f-429f-b4af-04ea5646092d,5,209.4944,211.2892,space,1,0,29,29,17,1,R,space,0.3669,,,,,,,,,,,
,,,,,R_82R35ItJxL12AnJ,001,2025-09-10_13h16.33.255,continuous_performance_test,2024.2.4,Win32,59.52380952,49df378b-344f-429f-b4af-04ea5646092d,5,225.8821,227.5728,space,1,0,0,0,10,1,K,space,0.698,,211.2897,225.8791,space,14.5672,,,,,,
,,,,,R_82R35ItJxL12AnJ,001,2025-09-10_13h16.33.255,continuous_performance_test,2024.2.4,Win32,59.52380952,49df378b-344f-429f-b4af-04ea5646092d,5,227.5734,229.3728,space,1,0,1,1,0,1,A,space,0.3059,,,,,,,,,,,
,,,,,R_82R35ItJxL12AnJ,001,2025-09-10_13h16.33.255,continuous_performance_test,2024.2.4,Win32,59.52380952,49df378b-344f-429f-b4af-04ea5646092d,5,229.3734,231.228,space,0,0,2,2,29,1,X,,0.2829,,,,,,,,,,,
,,,,,R_82R35ItJxL12AnJ,001,2025-09-10_13h16.33.255,continuous_performance_test,2024.2.4,Win32,59.52380952,49df378b-344f-429f-b4af-04ea5646092d,5,231.2286,233.0231,space,1,0,3,3,23,1,Y,space,0.2977,,,,,,,,,,,
,,,,,R_82R35ItJxL12AnJ,001,2025-09-10_13h16.33.255,continuous_performance_test,2024.2.4,Win32,59.52380952,49df378b-344f-429f-b4af-04ea5646092d,5,233.0245,234.6616,space,1,0,4,4,16,1,Q,space,0.3314,,,,,,,,,,,
,,,,,R_82R35ItJxL12AnJ,001,2025-09-10_13h16.33.255,continuous_performance_test,2024.2.4,Win32,59.52380952,49df378b-344f-429f-b4af-04ea5646092d,5,234.6623,236.3063,space,1,0,5,5,24,1,Z,space,0.3493,,,,,,,,,,,
,,,,,R_82R35ItJxL12AnJ,001,2025-09-10_13h16.33.255,continuous_performance_test,2024.2.4,Win32,59.52380952,49df378b-344f-429f-b4af-04ea5646092d,5,236.307,238.1508,space,0,0,6,6,25,1,X,,0.3594,,,,,,,,,,,
,,,,,R_82R35ItJxL12AnJ,001,2025-09-10_13h16.33.255,continuous_performance_test,2024.2.4,Win32,59.52380952,49df378b-344f-429f-b4af-04ea5646092d,5,238.1513,240.0896,space,1,0,7,7,15,1,P,space,0.3668,,,,,,,,,,,
,,,,,R_82R35ItJxL12AnJ,001,2025-09-10_13h16.33.255,continuous_performance_test,2024.2.4,Win32,59.52380952,49df378b-344f-429f-b4af-04ea5646092d,5,240.0904,241.6285,space,1,0,8,8,9,1,J,space,0.3244,,,,,,,,,,,
,,,,,R_82R35ItJxL12AnJ,001,2025-09-10_13h16.33.255,continuous_performance_test,2024.2.4,Win32,59.52380952,49df378b-344f-429f-b4af-04ea5646092d,5,241.6291,243.6287,space,1,0,9,9,7,1,H,space,0.3989,,,,,,,,,,,
,,,,,R_82R35ItJxL12AnJ,001,2025-09-10_13h16.33.255,continuous_performance_test,2024.2.4,Win32,59.52380952,49df378b-344f-429f-b4af-04ea5646092d,5,243.6293,245.3794,space,1,0,10,10,20,1,U,space,0.3835,,,,,,,,,,,
,,,,,R_82R35ItJxL12AnJ,001,2025-09-10_13h16.33.255,continuous_performance_test,2024.2.4,Win32,59.52380952,49df378b-344f-429f-b4af-04ea5646092d,5,245.3799,246.9729,,1,0,11,11,28,1,X,,,,,,,,,,,,,
,,,,,R_82R35ItJxL12AnJ,001,2025-09-10_13h16.33.255,continuous_performance_test,2024.2.4,Win32,59.52380952,49df378b-344f-429f-b4af-04ea5646092d,5,246.9736,248.723,space,1,0,12,12,22,1,W,space,0.3379,,,,,,,,,,,
,,,,,R_82R35ItJxL12AnJ,001,2025-09-10_13h16.33.255,continuous_performance_test,2024.2.4,Win32,59.52380952,49df378b-344f-429f-b4af-04ea5646092d,5,248.7238,250.7115,space,1,0,13,13,19,1,T,space,0.2864,,,,,,,,,,,
,,,,,R_82R35ItJxL12AnJ,001,2025-09-10_13h16.33.255,continuous_performance_test,2024.2.4,Win32,59.52380952,49df378b-344f-429f-b4af-04ea5646092d,5,250.7121,252.6616,space,1,0,14,14,14,1,O,space,0.287,,,,,,,,,,,
,,,,,R_82R35ItJxL12AnJ,001,2025-09-10_13h16.33.255,continuous_performance_test,2024.2.4,Win32,59.52380952,49df378b-344f-429f-b4af-04ea5646092d,5,252.6622,254.4562,space,1,0,15,15,18,1,S,space,0.3668,,,,,,,,,,,
,,,,,R_82R35ItJxL12AnJ,001,2025-09-10_13h16.33.255,continuous_performance_test,2024.2.4,Win32,59.52380952,49df378b-344f-429f-b4af-04ea5646092d,5,254.4568,256.0061,space,1,0,16,16,6,1,G,space,0.3811,,,,,,,,,,,
,,,,,R_82R35ItJxL12AnJ,001,2025-09-10_13h16.33.255,continuous_performance_test,2024.2.4,Win32,59.52380952,49df378b-344f-429f-b4af-04ea5646092d,5,256.0068,257.845,space,1,0,17,17,21,1,V,space,0.3072,,,,,,,,,,,
,,,,,R_82R35ItJxL12AnJ,001,2025-09-10_13h16.33.255,continuous_performance_test,2024.2.4,Win32,59.52380952,49df378b-344f-429f-b4af-04ea5646092d,5,257.8457,259.3895,space,1,0,18,18,8,1,I,space,0.3491,,,,,,,,,,,
,,,,,R_82R35ItJxL12AnJ,001,2025-09-10_13h16.33.255,continuous_performance_test,2024.2.4,Win32,59.52380952,49df378b-344f-429f-b4af-04ea5646092d,5,259.3901,260.9893,space,0,0,19,19,27,1,X,,0.367,,,,,,,,,,,
,,,,,R_82R35ItJxL12AnJ,001,2025-09-10_13h16.33.255,continuous_performance_test,2024.2.4,Win32,59.52380952,49df378b-344f-429f-b4af-04ea5646092d,5,260.99,262.8894,space,1,0,20,20,5,1,F,space,0.29,,,,,,,,,,,
,,,,,R_82R35ItJxL12AnJ,001,2025-09-10_13h16.33.255,continuous_performance_test,2024.2.4,Win32,59.52380952,49df378b-344f-429f-b4af-04ea5646092d,5,262.8901,264.6896,space,1,0,21,21,12,1,M,space,0.3337,,,,,,,,,,,
,,,,,R_82R35ItJxL12AnJ,001,2025-09-10_13h16.33.255,continuous_performance_test,2024.2.4,Win32,59.52380952,49df378b-344f-429f-b4af-04ea5646092d,5,264.6906,266.3453,space,1,0,22,22,11,1,L,space,0.3766,,,,,,,,,,,
,,,,,R_82R35ItJxL12AnJ,001,2025-09-10_13h16.33.255,continuous_performance_test,2024.2.4,Win32,59.52380952,49df378b-344f-429f-b4af-04ea5646092d,5,266.3459,268.2396,space,1,0,23,23,4,1,E,space,0.3346,,,,,,,,,,,
,,,,,R_82R35ItJxL12AnJ,001,2025-09-10_13h16.33.255,continuous_performance_test,2024.2.4,Win32,59.52380952,49df378b-344f-429f-b4af-04ea5646092d,5,268.2411,269.8395,space,1,0,24,24,3,1,D,space,0.361,,,,,,,,,,,
,,,,,R_82R35ItJxL12AnJ,001,2025-09-10_13h16.33.255,continuous_performance_test,2024.2.4,Win32,59.52380952,49df378b-344f-429f-b4af-04ea5646092d,5,269.8406,271.5786,,1,0,25,25,26,1,X,,,,,,,,,,,,,
,,,,,R_82R35ItJxL12AnJ,001,2025-09-10_13h16.33.255,continuous_performance_test,2024.2.4,Win32,59.52380952,49df378b-344f-429f-b4af-04ea5646092d,5,271.5793,273.5732,space,1,0,26,26,1,1,B,space,0.4414,,,,,,,,,,,
,,,,,R_82R35ItJxL12AnJ,001,2025-09-10_13h16.33.255,continuous_performance_test,2024.2.4,Win32,59.52380952,49df378b-344f-429f-b4af-04ea5646092d,5,273.5743,275.3229,space,1,0,27,27,13,1,N,space,0.369,,,,,,,,,,,
,,,,,R_82R35ItJxL12AnJ,001,2025-09-10_13h16.33.255,continuous_performance_test,2024.2.4,Win32,59.52380952,49df378b-344f-429f-b4af-04ea5646092d,5,275.3235,277.2727,space,1,0,28,28,2,1,C,space,0.3822,,,,,,,,,,,
,,,,,R_82R35ItJxL12AnJ,001,2025-09-10_13h16.33.255,continuous_performance_test,2024.2.4,Win32,59.52380952,49df378b-344f-429f-b4af-04ea5646092d,5,277.2733,279.212,space,1,0,29,29,17,1,R,space,0.3999,,,,,,,,,,,
,,,,,R_82R35ItJxL12AnJ,001,2025-09-10_13h16.33.255,continuous_performance_test,2024.2.4,Win32,59.52380952,49df378b-344f-429f-b4af-04ea5646092d,5,294.2097,295.909,,1,0,0,0,28,1,X,,,,279.2124,294.2062,,,,,,,,
,,,,,R_82R35ItJxL12AnJ,001,2025-09-10_13h16.33.255,continuous_performance_test,2024.2.4,Win32,59.52380952,49df378b-344f-429f-b4af-04ea5646092d,5,295.9094,297.8062,space,1,0,1,1,14,1,O,space,0.4239,,,,,,,,,,,
,,,,,R_82R35ItJxL12AnJ,001,2025-09-10_13h16.33.255,continuous_performance_test,2024.2.4,Win32,59.52380952,49df378b-344f-429f-b4af-04ea5646092d,5,297.8069,299.4452,space,1,0,2,2,13,1,N,space,0.4905,,,,,,,,,,,
,,,,,R_82R35ItJxL12AnJ,001,2025-09-10_13h16.33.255,continuous_performance_test,2024.2.4,Win32,59.52380952,49df378b-344f-429f-b4af-04ea5646092d,5,299.4459,301.1896,space,1,0,3,3,24,1,Z,space,0.3264,,,,,,,,,,,
,,,,,R_82R35ItJxL12AnJ,001,2025-09-10_13h16.33.255,continuous_performance_test,2024.2.4,Win32,59.52380952,49df378b-344f-429f-b4af-04ea5646092d,5,301.1905,303.1396,space,1,0,4,4,22,1,W,space,0.3171,,,,,,,,,,,
,,,,,R_82R35ItJxL12AnJ,001,2025-09-10_13h16.33.255,continuous_performance_test,2024.2.4,Win32,59.52380952,49df378b-344f-429f-b4af-04ea5646092d,5,303.1402,304.7394,space,1,0,5,5,21,1,V,space,0.3101,,,,,,,,,,,
,,,,,R_82R35ItJxL12AnJ,001,2025-09-10_13h16.33.255,continuous_performance_test,2024.2.4,Win32,59.52380952,49df378b-344f-429f-b4af-04ea5646092d,5,304.74,306.4957,space,0,0,6,6,26,1,X,,0.2993,,,,,,,,,,,
,,,,,R_82R35ItJxL12AnJ,001,2025-09-10_13h16.33.255,continuous_performance_test,2024.2.4,Win32,59.52380952,49df378b-344f-429f-b4af-04ea5646092d,5,306.4962,308.0396,space,1,0,7,7,17,1,R,space,0.299,,,,,,,,,,,
,,,,,R_82R35ItJxL12AnJ,001,2025-09-10_13h16.33.255,continuous_performance_test,2024.2.4,Win32,59.52380952,49df378b-344f-429f-b4af-04ea5646092d,5,308.0402,309.8948,space,0,0,8,8,27,1,X,,0.3556,,,,,,,,,,,
,,,,,R_82R35ItJxL12AnJ,001,2025-09-10_13h16.33.255,continuous_performance_test,2024.2.4,Win32,59.52380952,49df378b-344f-429f-b4af-04ea5646092d,5,309.8952,311.6896,space,0,0,9,9,25,1,X,,0.3169,,,,,,,,,,,
,,,,,R_82R35ItJxL12AnJ,001,2025-09-10_13h16.33.255,continuous_performance_test,2024.2.4,Win32,59.52380952,49df378b-344f-429f-b4af-04ea5646092d,5,311.6907,313.6782,space,1,0,10,10,4,1,E,space,0.5613,,,,,,,,,,,
,,,,,R_82R35ItJxL12AnJ,001,2025-09-10_13h16.33.255,continuous_performance_test,2024.2.4,Win32,59.52380952,49df378b-344f-429f-b4af-04ea5646092d,5,313.6788,315.4728,space,1,0,11,11,1,1,B,space,0.3582,,,,,,,,,,,
,,,,,R_82R35ItJxL12AnJ,001,2025-09-10_13h16.33.255,continuous_performance_test,2024.2.4,Win32,59.52380952,49df378b-344f-429f-b4af-04ea5646092d,5,315.4733,317.3728,space,1,0,12,12,7,1,H,space,0.3261,,,,,,,,,,,
,,,,,R_82R35ItJxL12AnJ,001,2025-09-10_13h16.33.255,continuous_performance_test,2024.2.4,Win32,59.52380952,49df378b-344f-429f-b4af-04ea5646092d,5,317.3737,319.223,space,1,0,13,13,9,1,J,space,0.3146,,,,,,,,,,,
,,,,,R_82R35ItJxL12AnJ,001,2025-09-10_13h16.33.255,continuous_performance_test,2024.2.4,Win32,59.52380952,49df378b-344f-429f-b4af-04ea5646092d,5,319.2242,321.212,space,1,0,14,14,0,1,A,space,0.3677,,,,,,,,,,,
,,,,,R_82R35ItJxL12AnJ,001,2025-09-10_13h16.33.255,continuous_performance_test,2024.2.4,Win32,59.52380952,49df378b-344f-429f-b4af-04ea5646092d,5,321.2126,322.9561,space,1,0,15,15,16,1,Q,space,0.3822,,,,,,,,,,,
,,,,,R_82R35ItJxL12AnJ,001,2025-09-10_13h16.33.255,continuous_performance_test,2024.2.4,Win32,59.52380952,49df378b-344f-429f-b4af-04ea5646092d,5,322.9567,324.8563,space,1,0,16,16,8,1,I,space,0.5002,,,,,,,,,,,
,,,,,R_82R35ItJxL12AnJ,001,2025-09-10_13h16.33.255,continuous_performance_test,2024.2.4,Win32,59.52380952,49df378b-344f-429f-b4af-04ea5646092d,5,324.8569,326.4062,space,1,0,17,17,5,1,F,space,0.3944,,,,,,,,,,,
,,,,,R_82R35ItJxL12AnJ,001,2025-09-10_13h16.33.255,continuous_performance_test,2024.2.4,Win32,59.52380952,49df378b-344f-429f-b4af-04ea5646092d,5,326.4068,328.0607,space,1,0,18,18,15,1,P,space,0.3325,,,,,,,,,,,
,,,,,R_82R35ItJxL12AnJ,001,2025-09-10_13h16.33.255,continuous_performance_test,2024.2.4,Win32,59.52380952,49df378b-344f-429f-b4af-04ea5646092d,5,328.0613,329.8563,space,1,0,19,19,12,1,M,space,0.3166,,,,,,,,,,,
,,,,,R_82R35ItJxL12AnJ,001,2025-09-10_13h16.33.255,continuous_performance_test,2024.2.4,Win32,59.52380952,49df378b-344f-429f-b4af-04ea5646092d,5,329.857,331.5592,space,1,0,20,20,2,1,C,space,0.357,,,,,,,,,,,
,,,,,R_82R35ItJxL12AnJ,001,2025-09-10_13h16.33.255,continuous_performance_test,2024.2.4,Win32,59.52380952,49df378b-344f-429f-b4af-04ea5646092d,5,331.56,333.3064,space,1,0,21,21,19,1,T,space,0.3224,,,,,,,,,,,
,,,,,R_82R35ItJxL12AnJ,001,2025-09-10_13h16.33.255,continuous_performance_test,2024.2.4,Win32,59.52380952,49df378b-344f-429f-b4af-04ea5646092d,5,333.3072,335.1616,space,1,0,22,22,3,1,D,space,0.3007,,,,,,,,,,,
,,,,,R_82R35ItJxL12AnJ,001,2025-09-10_13h16.33.255,continuous_performance_test,2024.2.4,Win32,59.52380952,49df378b-344f-429f-b4af-04ea5646092d,5,335.1623,336.9618,space,1,0,23,23,23,1,Y,space,0.301,,,,,,,,,,,
,,,,,R_82R35ItJxL12AnJ,001,2025-09-10_13h16.33.255,continuous_performance_test,2024.2.4,Win32,59.52380952,49df378b-344f-429f-b4af-04ea5646092d,5,336.9624,338.9563,space,1,0,24,24,20,1,U,space,0.2999,,,,,,,,,,,
,,,,,R_82R35ItJxL12AnJ,001,2025-09-10_13h16.33.255,continuous_performance_test,2024.2.4,Win32,59.52380952,49df378b-344f-429f-b4af-04ea5646092d,5,338.9569,340.5564,space,1,0,25,25,11,1,L,space,0.3358,,,,,,,,,,,
,,,,,R_82R35ItJxL12AnJ,001,2025-09-10_13h16.33.255,continuous_performance_test,2024.2.4,Win32,59.52380952,49df378b-344f-429f-b4af-04ea5646092d,5,340.5571,342.5062,space,0,0,26,26,29,1,X,,0.3336,,,,,,,,,,,
,,,,,R_82R35ItJxL12AnJ,001,2025-09-10_13h16.33.255,continuous_performance_test,2024.2.4,Win32,59.52380952,49df378b-344f-429f-b4af-04ea5646092d,5,342.5073,344.2623,space,1,0,27,27,10,1,K,space,0.3158,,,,,,,,,,,
,,,,,R_82R35ItJxL12AnJ,001,2025-09-10_13h16.33.255,continuous_performance_test,2024.2.4,Win32,59.52380952,49df378b-344f-429f-b4af-04ea5646092d,5,344.263,346.0112,space,1,0,28,28,18,1,S,space,0.2661,,,,,,,,,,,
,,,,,R_82R35ItJxL12AnJ,001,2025-09-10_13h16.33.255,continuous_performance_test,2024.2.4,Win32,59.52380952,49df378b-344f-429f-b4af-04ea5646092d,5,346.0116,347.8063,space,1,0,29,29,6,1,G,space,0.2887,,,,,,,,,,,
,,,,,R_82R35ItJxL12AnJ,001,2025-09-10_13h16.33.255,continuous_performance_test,2024.2.4,Win32,59.52380952,49df378b-344f-429f-b4af-04ea5646092d,5,348.7461,350.4452,space,1,0,0,0,21,1,V,space,0.4168,,347.8068,348.7401,space,0.8984,,,,,,
,,,,,R_82R35ItJxL12AnJ,001,2025-09-10_13h16.33.255,continuous_performance_test,2024.2.4,Win32,59.52380952,49df378b-344f-429f-b4af-04ea5646092d,5,350.4458,352.3396,space,1,0,1,1,1,1,B,space,0.3231,,,,,,,,,,,
,,,,,R_82R35ItJxL12AnJ,001,2025-09-10_13h16.33.255,continuous_performance_test,2024.2.4,Win32,59.52380952,49df378b-344f-429f-b4af-04ea5646092d,5,352.3408,353.9952,space,1,0,2,2,7,1,H,space,0.2874,,,,,,,,,,,
,,,,,R_82R35ItJxL12AnJ,001,2025-09-10_13h16.33.255,continuous_performance_test,2024.2.4,Win32,59.52380952,49df378b-344f-429f-b4af-04ea5646092d,5,353.9958,355.7894,space,1,0,3,3,5,1,F,space,0.3159,,,,,,,,,,,
,,,,,R_82R35ItJxL12AnJ,001,2025-09-10_13h16.33.255,continuous_performance_test,2024.2.4,Win32,59.52380952,49df378b-344f-429f-b4af-04ea5646092d,5,355.7901,357.4451,space,1,0,4,4,13,1,N,space,0.3026,,,,,,,,,,,
,,,,,R_82R35ItJxL12AnJ,001,2025-09-10_13h16.33.255,continuous_performance_test,2024.2.4,Win32,59.52380952,49df378b-344f-429f-b4af-04ea5646092d,5,357.4458,359.4397,space,1,0,5,5,19,1,T,space,0.3109,,,,,,,,,,,
,,,,,R_82R35ItJxL12AnJ,001,2025-09-10_13h16.33.255,continuous_performance_test,2024.2.4,Win32,59.52380952,49df378b-344f-429f-b4af-04ea5646092d,5,359.4402,361.4286,space,0,0,6,6,27,1,X,,0.3098,,,,,,,,,,,
,,,,,R_82R35ItJxL12AnJ,001,2025-09-10_13h16.33.255,continuous_performance_test,2024.2.4,Win32,59.52380952,49df378b-344f-429f-b4af-04ea5646092d,5,361.4292,363.373,space,1,0,7,7,15,1,P,space,0.2921,,,,,,,,,,,
,,,,,R_82R35ItJxL12AnJ,001,2025-09-10_13h16.33.255,continuous_performance_test,2024.2.4,Win32,59.52380952,49df378b-344f-429f-b4af-04ea5646092d,5,363.3737,365.3766,space,1,0,8,8,6,1,G,space,0.3167,,,,,,,,,,,
,,,,,R_82R35ItJxL12AnJ,001,2025-09-10_13h16.33.255,continuous_performance_test,2024.2.4,Win32,59.52380952,49df378b-344f-429f-b4af-04ea5646092d,5,365.3772,367.373,space,1,0,9,9,3,1,D,space,0.3669,,,,,,,,,,,
,,,,,R_82R35ItJxL12AnJ,001,2025-09-10_13h16.33.255,continuous_performance_test,2024.2.4,Win32,59.52380952,49df378b-344f-429f-b4af-04ea5646092d,5,367.3736,369.2618,space,1,0,10,10,10,1,K,space,0.377,,,,,,,,,,,
,,,,,R_82R35ItJxL12AnJ,001,2025-09-10_13h16.33.255,continuous_performance_test,2024.2.4,Win32,59.52380952,49df378b-344f-429f-b4af-04ea5646092d,5,369.2623,370.8063,space,1,0,11,11,16,1,Q,space,0.3669,,,,,,,,,,,
,,,,,R_82R35ItJxL12AnJ,001,2025-09-10_13h16.33.255,continuous_performance_test,2024.2.4,Win32,59.52380952,49df378b-344f-429f-b4af-04ea5646092d,5,370.807,372.6949,space,1,0,12,12,11,1,L,space,0.35,,,,,,,,,,,
,,,,,R_82R35ItJxL12AnJ,001,2025-09-10_13h16.33.255,continuous_performance_test,2024.2.4,Win32,59.52380952,49df378b-344f-429f-b4af-04ea5646092d,5,372.6956,374.5457,space,1,0,13,13,23,1,Y,space,0.3328,,,,,,,,,,,
,,,,,R_82R35ItJxL12AnJ,001,2025-09-10_13h16.33.255,continuous_performance_test,2024.2.4,Win32,59.52380952,49df378b-344f-429f-b4af-04ea5646092d,5,374.5463,376.0897,,1,0,14,14,29,1,X,,,,,,,,,,,,,
,,,,,R_82R35ItJxL12AnJ,001,2025-09-10_13h16.33.255,continuous_performance_test,2024.2.4,Win32,59.52380952,49df378b-344f-429f-b4af-04ea5646092d,5,376.0904,377.8286,space,1,0,15,15,4,1,E,space,0.4002,,,,,,,,,,,
,,,,,R_82R35ItJxL12AnJ,001,2025-09-10_13h16.33.255,continuous_performance_test,2024.2.4,Win32,59.52380952,49df378b-344f-429f-b4af-04ea5646092d,5,377.8291,379.5733,space,1,0,16,16,0,1,A,space,0.3295,,,,,,,,,,,
,,,,,R_82R35ItJxL12AnJ,001,2025-09-10_13h16.33.255,continuous_performance_test,2024.2.4,Win32,59.52380952,49df378b-344f-429f-b4af-04ea5646092d,5,379.5751,381.3785,space,1,0,17,17,8,1,I,space,0.3328,,,,,,,,,,,
,,,,,R_82R35ItJxL12AnJ,001,2025-09-10_13h16.33.255,continuous_performance_test,2024.2.4,Win32,59.52380952,49df378b-344f-429f-b4af-04ea5646092d,5,381.3791,383.273,space,1,0,18,18,18,1,S,space,0.3668,,,,,,,,,,,
,,,,,R_82R35ItJxL12AnJ,001,2025-09-10_13h16.33.255,continuous_performance_test,2024.2.4,Win32,59.52380952,49df378b-344f-429f-b4af-04ea5646092d,5,383.2735,385.2229,space,1,0,19,19,14,1,O,space,0.3309,,,,,,,,,,,
,,,,,R_82R35ItJxL12AnJ,001,2025-09-10_13h16.33.255,continuous_performance_test,2024.2.4,Win32,59.52380952,49df378b-344f-429f-b4af-04ea5646092d,5,385.2235,387.1729,space,1,0,20,20,22,1,W,space,0.3361,,,,,,,,,,,
,,,,,R_82R35ItJxL12AnJ,001,2025-09-10_13h16.33.255,continuous_performance_test,2024.2.4,Win32,59.52380952,49df378b-344f-429f-b4af-04ea5646092d,5,387.174,389.1731,space,1,0,21,21,20,1,U,space,0.3488,,,,,,,,,,,
,,,,,R_82R35ItJxL12AnJ,001,2025-09-10_13h16.33.255,continuous_performance_test,2024.2.4,Win32,59.52380952,49df378b-344f-429f-b4af-04ea5646092d,5,389.1737,390.823,space,1,0,22,22,2,1,C,space,0.2921,,,,,,,,,,,
,,,,,R_82R35ItJxL12AnJ,001,2025-09-10_13h16.33.255,continuous_performance_test,2024.2.4,Win32,59.52380952,49df378b-344f-429f-b4af-04ea5646092d,5,390.8241,392.7283,space,1,0,23,23,17,1,R,space,0.2991,,,,,,,,,,,
,,,,,R_82R35ItJxL12AnJ,001,2025-09-10_13h16.33.255,continuous_performance_test,2024.2.4,Win32,59.52380952,49df378b-344f-429f-b4af-04ea5646092d,5,392.729,394.4275,,1,0,24,24,25,1,X,,,,,,,,,,,,,
,,,,,R_82R35ItJxL12AnJ,001,2025-09-10_13h16.33.255,continuous_performance_test,2024.2.4,Win32,59.52380952,49df378b-344f-429f-b4af-04ea5646092d,5,394.4281,396.076,space,1,0,25,25,24,1,Z,space,0.3839,,,,,,,,,,,
,,,,,R_82R35ItJxL12AnJ,001,2025-09-10_13h16.33.255,continuous_performance_test,2024.2.4,Win32,59.52380952,49df378b-344f-429f-b4af-04ea5646092d,5,396.0767,397.9785,space,0,0,26,26,28,1,X,,0.3145,,,,,,,,,,,
,,,,,R_82R35ItJxL12AnJ,001,2025-09-10_13h16.33.255,continuous_performance_test,2024.2.4,Win32,59.52380952,49df378b-344f-429f-b4af-04ea5646092d,5,397.9791,399.5731,space,1,0,27,27,12,1,M,space,0.5295,,,,,,,,,,,
,,,,,R_82R35ItJxL12AnJ,001,2025-09-10_13h16.33.255,continuous_performance_test,2024.2.4,Win32,59.52380952,49df378b-344f-429f-b4af-04ea5646092d,5,399.5736,401.1619,space,0,0,28,28,26,1,X,,0.3992,,,,,,,,,,,
,,,,,R_82R35ItJxL12AnJ,001,2025-09-10_13h16.33.255,continuous_performance_test,2024.2.4,Win32,59.52380952,49df378b-344f-429f-b4af-04ea5646092d,5,401.1627,402.7067,,0,0,29,29,9,1,J,space,,,,,,,,,,,,
,,,,,R_82R35ItJxL12AnJ,001,2025-09-10_13h16.33.255,continuous_performance_test,2024.2.4,Win32,59.52380952,49df378b-344f-429f-b4af-04ea5646092d,5,403.7323,405.4292,space,1,0,0,0,21,1,V,space,0.5859,,402.7078,403.7292,space,1.0002,,,,,,
,,,,,R_82R35ItJxL12AnJ,001,2025-09-10_13h16.33.255,continuous_performance_test,2024.2.4,Win32,59.52380952,49df378b-344f-429f-b4af-04ea5646092d,5,405.4299,407.3229,space,1,0,1,1,3,1,D,space,0.4259,,,,,,,,,,,
,,,,,R_82R35ItJxL12AnJ,001,2025-09-10_13h16.33.255,continuous_performance_test,2024.2.4,Win32,59.52380952,49df378b-344f-429f-b4af-04ea5646092d,5,407.3234,408.9229,space,0,0,2,2,25,1,X,,0.3826,,,,,,,,,,,
,,,,,R_82R35ItJxL12AnJ,001,2025-09-10_13h16.33.255,continuous_performance_test,2024.2.4,Win32,59.52380952,49df378b-344f-429f-b4af-04ea5646092d,5,408.9237,410.8117,space,1,0,3,3,9,1,J,space,0.6246,,,,,,,,,,,
,,,,,R_82R35ItJxL12AnJ,001,2025-09-10_13h16.33.255,continuous_performance_test,2024.2.4,Win32,59.52380952,49df378b-344f-429f-b4af-04ea5646092d,5,410.8122,412.7063,space,1,0,4,4,13,1,N,space,0.3658,,,,,,,,,,,
,,,,,R_82R35ItJxL12AnJ,001,2025-09-10_13h16.33.255,continuous_performance_test,2024.2.4,Win32,59.52380952,49df378b-344f-429f-b4af-04ea5646092d,5,412.7068,414.3564,space,1,0,5,5,4,1,E,space,0.3389,,,,,,,,,,,
,,,,,R_82R35ItJxL12AnJ,001,2025-09-10_13h16.33.255,continuous_performance_test,2024.2.4,Win32,59.52380952,49df378b-344f-429f-b4af-04ea5646092d,5,414.3573,416.1951,space,1,0,6,6,10,1,K,space,0.3666,,,,,,,,,,,
,,,,,R_82R35ItJxL12AnJ,001,2025-09-10_13h16.33.255,continuous_performance_test,2024.2.4,Win32,59.52380952,49df378b-344f-429f-b4af-04ea5646092d,5,416.1957,417.9897,,0,0,7,7,11,1,L,space,,,,,,,,,,,,
,,,,,R_82R35ItJxL12AnJ,001,2025-09-10_13h16.33.255,continuous_performance_test,2024.2.4,Win32,59.52380952,49df378b-344f-429f-b4af-04ea5646092d,5,417.9903,419.6287,space,1,0,8,8,2,1,C,space,0.4717,,,,,,,,,,,
,,,,,R_82R35ItJxL12AnJ,001,2025-09-10_13h16.33.255,continuous_performance_test,2024.2.4,Win32,59.52380952,49df378b-344f-429f-b4af-04ea5646092d,5,419.6292,421.173,space,1,0,9,9,8,1,I,space,0.4071,,,,,,,,,,,
,,,,,R_82R35ItJxL12AnJ,001,2025-09-10_13h16.33.255,continuous_performance_test,2024.2.4,Win32,59.52380952,49df378b-344f-429f-b4af-04ea5646092d,5,421.1737,422.7276,space,1,0,10,10,12,1,M,space,0.3492,,,,,,,,,,,
,,,,,R_82R35ItJxL12AnJ,001,2025-09-10_13h16.33.255,continuous_performance_test,2024.2.4,Win32,59.52380952,49df378b-344f-429f-b4af-04ea5646092d,5,422.7283,424.7292,,1,0,11,11,28,1,X,,,,,,,,,,,,,
,,,,,R_82R35ItJxL12AnJ,001,2025-09-10_13h16.33.255,continuous_performance_test,2024.2.4,Win32,59.52380952,49df378b-344f-429f-b4af-04ea5646092d,5,424.7298,426.5229,space,1,0,12,12,23,1,Y,space,0.3595,,,,,,,,,,,
,,,,,R_82R35ItJxL12AnJ,001,2025-09-10_13h16.33.255,continuous_performance_test,2024.2.4,Win32,59.52380952,49df378b-344f-429f-b4af-04ea5646092d,5,426.5236,428.0623,space,0,0,13,13,27,1,X,,0.3492,,,,,,,,,,,
,,,,,R_82R35ItJxL12AnJ,001,2025-09-10_13h16.33.255,continuous_performance_test,2024.2.4,Win32,59.52380952,49df378b-344f-429f-b4af-04ea5646092d,5,428.0628,429.8064,space,1,0,14,14,6,1,G,space,0.5255,,,,,,,,,,,
,,,,,R_82R35ItJxL12AnJ,001,2025-09-10_13h16.33.255,continuous_performance_test,2024.2.4,Win32,59.52380952,49df378b-344f-429f-b4af-04ea5646092d,5,429.807,431.6617,space,1,0,15,15,18,1,S,space,0.3578,,,,,,,,,,,
,,,,,R_82R35ItJxL12AnJ,001,2025-09-10_13h16.33.255,continuous_performance_test,2024.2.4,Win32,59.52380952,49df378b-344f-429f-b4af-04ea5646092d,5,431.6624,433.6063,space,1,0,16,16,0,1,A,space,0.3668,,,,,,,,,,,
,,,,,R_82R35ItJxL12AnJ,001,2025-09-10_13h16.33.255,continuous_performance_test,2024.2.4,Win32,59.52380952,49df378b-344f-429f-b4af-04ea5646092d,5,433.607,435.2564,space,1,0,17,17,20,1,U,space,0.3169,,,,,,,,,,,
,,,,,R_82R35ItJxL12AnJ,001,2025-09-10_13h16.33.255,continuous_performance_test,2024.2.4,Win32,59.52380952,49df378b-344f-429f-b4af-04ea5646092d,5,435.2572,436.8565,space,1,0,18,18,19,1,T,space,0.3167,,,,,,,,,,,
,,,,,R_82R35ItJxL12AnJ,001,2025-09-10_13h16.33.255,continuous_performance_test,2024.2.4,Win32,59.52380952,49df378b-344f-429f-b4af-04ea5646092d,5,436.8572,438.4452,space,1,0,19,19,24,1,Z,space,0.3325,,,,,,,,,,,
,,,,,R_82R35ItJxL12AnJ,001,2025-09-10_13h16.33.255,continuous_performance_test,2024.2.4,Win32,59.52380952,49df378b-344f-429f-b4af-04ea5646092d,5,438.4458,440.2897,space,1,0,20,20,17,1,R,space,0.416,,,,,,,,,,,
,,,,,R_82R35ItJxL12AnJ,001,2025-09-10_13h16.33.255,continuous_performance_test,2024.2.4,Win32,59.52380952,49df378b-344f-429f-b4af-04ea5646092d,5,440.2905,442.09,space,1,0,21,21,1,1,B,space,0.4102,,,,,,,,,,,
,,,,,R_82R35ItJxL12AnJ,001,2025-09-10_13h16.33.255,continuous_performance_test,2024.2.4,Win32,59.52380952,49df378b-344f-429f-b4af-04ea5646092d,5,442.0911,443.9944,space,1,0,22,22,15,1,P,space,0.3538,,,,,,,,,,,
,,,,,R_82R35ItJxL12AnJ,001,2025-09-10_13h16.33.255,continuous_performance_test,2024.2.4,Win32,59.52380952,49df378b-344f-429f-b4af-04ea5646092d,5,443.995,445.7898,space,1,0,23,23,14,1,O,space,0.3334,,,,,,,,,,,
,,,,,R_82R35ItJxL12AnJ,001,2025-09-10_13h16.33.255,continuous_performance_test,2024.2.4,Win32,59.52380952,49df378b-344f-429f-b4af-04ea5646092d,5,445.7904,447.3788,space,1,0,24,24,5,1,F,space,0.4182,,,,,,,,,,,
,,,,,R_82R35ItJxL12AnJ,001,2025-09-10_13h16.33.255,continuous_performance_test,2024.2.4,Win32,59.52380952,49df378b-344f-429f-b4af-04ea5646092d,5,447.3794,449.2232,space,0,0,25,25,26,1,X,,0.3689,,,,,,,,,,,
,,,,,R_82R35ItJxL12AnJ,001,2025-09-10_13h16.33.255,continuous_performance_test,2024.2.4,Win32,59.52380952,49df378b-344f-429f-b4af-04ea5646092d,5,449.2237,450.8231,,1,0,26,26,29,1,X,,,,,,,,,,,,,
,,,,,R_82R35ItJxL12AnJ,001,2025-09-10_13h16.33.255,continuous_performance_test,2024.2.4,Win32,59.52380952,49df378b-344f-429f-b4af-04ea5646092d,5,450.8239,452.5733,space,1,0,27,27,22,1,W,space,0.4336,,,,,,,,,,,
,,,,,R_82R35ItJxL12AnJ,001,2025-09-10_13h16.33.255,continuous_performance_test,2024.2.4,Win32,59.52380952,49df378b-344f-429f-b4af-04ea5646092d,5,452.5739,454.1687,space,1,0,28,28,16,1,Q,space,0.5037,,,,,,,,,,,
,,,,,R_82R35ItJxL12AnJ,001,2025-09-10_13h16.33.255,continuous_performance_test,2024.2.4,Win32,59.52380952,49df378b-344f-429f-b4af-04ea5646092d,5,454.1693,456.1118,space,1,0,29,29,7,1,H,space,0.3335,,,,,,,,,,,
,,,,,R_82R35ItJxL12AnJ,001,2025-09-10_13h16.33.255,continuous_performance_test,2024.2.4,Win32,59.52380952,49df378b-344f-429f-b4af-04ea5646092d,5,464.3325,465.8732,space,1,0,0,0,23,1,Y,space,0.6836,,456.1122,464.3296,space,8.2005,,,,,,
,,,,,R_82R35ItJxL12AnJ,001,2025-09-10_13h16.33.255,continuous_performance_test,2024.2.4,Win32,59.52380952,49df378b-344f-429f-b4af-04ea5646092d,5,465.8737,467.5234,space,1,0,1,1,2,1,C,space,0.3834,,,,,,,,,,,
,,,,,R_82R35ItJxL12AnJ,001,2025-09-10_13h16.33.255,continuous_performance_test,2024.2.4,Win32,59.52380952,49df378b-344f-429f-b4af-04ea5646092d,5,467.5255,469.1231,space,0,0,2,2,29,1,X,,0.2934,,,,,,,,,,,
,,,,,R_82R35ItJxL12AnJ,001,2025-09-10_13h16.33.255,continuous_performance_test,2024.2.4,Win32,59.52380952,49df378b-344f-429f-b4af-04ea5646092d,5,469.1236,470.9109,space,1,0,3,3,14,1,O,space,0.3002,,,,,,,,,,,
,,,,,R_82R35ItJxL12AnJ,001,2025-09-10_13h16.33.255,continuous_performance_test,2024.2.4,Win32,59.52380952,49df378b-344f-429f-b4af-04ea5646092d,5,470.9114,472.8564,space,1,0,4,4,12,1,M,space,0.0904,,,,,,,,,,,
,,,,,R_82R35ItJxL12AnJ,001,2025-09-10_13h16.33.255,continuous_performance_test,2024.2.4,Win32,59.52380952,49df378b-344f-429f-b4af-04ea5646092d,5,472.857,474.8065,,0,0,5,5,17,1,R,space,,,,,,,,,,,,
,,,,,R_82R35ItJxL12AnJ,001,2025-09-10_13h16.33.255,continuous_performance_test,2024.2.4,Win32,59.52380952,49df378b-344f-429f-b4af-04ea5646092d,5,474.8076,476.5564,space,1,0,6,6,9,1,J,space,0.059,,,,,,,,,,,
,,,,,R_82R35ItJxL12AnJ,001,2025-09-10_13h16.33.255,continuous_performance_test,2024.2.4,Win32,59.52380952,49df378b-344f-429f-b4af-04ea5646092d,5,476.5573,478.2953,space,1,0,7,7,3,1,D,space,0.2,,,,,,,,,,,
,,,,,R_82R35ItJxL12AnJ,001,2025-09-10_13h16.33.255,continuous_performance_test,2024.2.4,Win32,59.52380952,49df378b-344f-429f-b4af-04ea5646092d,5,478.296,480.2897,,0,0,8,8,7,1,H,space,,,,,,,,,,,,
,,,,,R_82R35ItJxL12AnJ,001,2025-09-10_13h16.33.255,continuous_performance_test,2024.2.4,Win32,59.52380952,49df378b-344f-429f-b4af-04ea5646092d,5,480.2905,482.1346,space,1,0,9,9,15,1,P,space,0.116,,,,,,,,,,,
,,,,,R_82R35ItJxL12AnJ,001,2025-09-10_13h16.33.255,continuous_performance_test,2024.2.4,Win32,59.52380952,49df378b-344f-429f-b4af-04ea5646092d,5,482.1352,483.8731,space,1,0,10,10,5,1,F,space,0.2834,,,,,,,,,,,
,,,,,R_82R35ItJxL12AnJ,001,2025-09-10_13h16.33.255,continuous_performance_test,2024.2.4,Win32,59.52380952,49df378b-344f-429f-b4af-04ea5646092d,5,483.8737,485.4792,space,1,0,11,11,4,1,E,space,0.2531,,,,,,,,,,,
,,,,,R_82R35ItJxL12AnJ,001,2025-09-10_13h16.33.255,continuous_performance_test,2024.2.4,Win32,59.52380952,49df378b-344f-429f-b4af-04ea5646092d,5,485.4798,487.4231,,0,0,12,12,11,1,L,space,,,,,,,,,,,,
,,,,,R_82R35ItJxL12AnJ,001,2025-09-10_13h16.33.255,continuous_performance_test,2024.2.4,Win32,59.52380952,49df378b-344f-429f-b4af-04ea5646092d,5,487.4238,489.129,space,1,0,13,13,8,1,I,space,0.3664,,,,,,,,,,,
,,,,,R_82R35ItJxL12AnJ,001,2025-09-10_13h16.33.255,continuous_performance_test,2024.2.4,Win32,59.52380952,49df378b-344f-429f-b4af-04ea5646092d,5,489.1296,491.0232,space,0,0,14,14,27,1,X,,0.1706,,,,,,,,,,,
,,,,,R_82R35ItJxL12AnJ,001,2025-09-10_13h16.33.255,continuous_performance_test,2024.2.4,Win32,59.52380952,49df378b-344f-429f-b4af-04ea5646092d,5,491.0241,492.7231,space,1,0,15,15,22,1,W,space,0.2501,,,,,,,,,,,
,,,,,R_82R35ItJxL12AnJ,001,2025-09-10_13h16.33.255,continuous_performance_test,2024.2.4,Win32,59.52380952,49df378b-344f-429f-b4af-04ea5646092d,5,492.7238,494.3785,space,0,0,16,16,26,1,X,,0.3026,,,,,,,,,,,
,,,,,R_82R35ItJxL12AnJ,001,2025-09-10_13h16.33.255,continuous_performance_test,2024.2.4,Win32,59.52380952,49df378b-344f-429f-b4af-04ea5646092d,5,494.3791,495.9731,space,1,0,17,17,19,1,T,space,0.2848,,,,,,,,,,,
,,,,,R_82R35ItJxL12AnJ,001,2025-09-10_13h16.33.255,continuous_performance_test,2024.2.4,Win32,59.52380952,49df378b-344f-429f-b4af-04ea5646092d,5,495.9736,497.5118,space,0,0,18,18,25,1,X,,0.325,,,,,,,,,,,
,,,,,R_82R35ItJxL12AnJ,001,2025-09-10_13h16.33.255,continuous_performance_test,2024.2.4,Win32,59.52380952,49df378b-344f-429f-b4af-04ea5646092d,5,497.5124,499.1064,space,1,0,19,19,18,1,S,space,0.3492,,,,,,,,,,,
,,,,,R_82R35ItJxL12AnJ,001,2025-09-10_13h16.33.255,continuous_performance_test,2024.2.4,Win32,59.52380952,49df378b-344f-429f-b4af-04ea5646092d,5,499.1069,501.1064,space,1,0,20,20,16,1,Q,space,0.3034,,,,,,,,,,,
,,,,,R_82R35ItJxL12AnJ,001,2025-09-10_13h16.33.255,continuous_performance_test,2024.2.4,Win32,59.52380952,49df378b-344f-429f-b4af-04ea5646092d,5,501.1071,502.868,space,1,0,21,21,13,1,N,space,0.3016,,,,,,,,,,,
,,,,,R_82R35ItJxL12AnJ,001,2025-09-10_13h16.33.255,continuous_performance_test,2024.2.4,Win32,59.52380952,49df378b-344f-429f-b4af-04ea5646092d,5,502.8686,504.4064,space,1,0,22,22,6,1,G,space,0.3502,,,,,,,,,,,
,,,,,R_82R35ItJxL12AnJ,001,2025-09-10_13h16.33.255,continuous_performance_test,2024.2.4,Win32,59.52380952,49df378b-344f-429f-b4af-04ea5646092d,5,504.4069,506.3564,space,1,0,23,23,0,1,A,space,0.1765,,,,,,,,,,,
,,,,,R_82R35ItJxL12AnJ,001,2025-09-10_13h16.33.255,continuous_performance_test,2024.2.4,Win32,59.52380952,49df378b-344f-429f-b4af-04ea5646092d,5,506.3572,507.9626,space,1,0,24,24,1,1,B,space,0.2771,,,,,,,,,,,
,,,,,R_82R35ItJxL12AnJ,001,2025-09-10_13h16.33.255,continuous_performance_test,2024.2.4,Win32,59.52380952,49df378b-344f-429f-b4af-04ea5646092d,5,507.9632,509.8124,space,1,0,25,25,24,1,Z,space,0.3002,,,,,,,,,,,
,,,,,R_82R35ItJxL12AnJ,001,2025-09-10_13h16.33.255,continuous_performance_test,2024.2.4,Win32,59.52380952,49df378b-344f-429f-b4af-04ea5646092d,5,509.8132,511.6619,space,1,0,26,26,10,1,K,space,0.3153,,,,,,,,,,,
,,,,,R_82R35ItJxL12AnJ,001,2025-09-10_13h16.33.255,continuous_performance_test,2024.2.4,Win32,59.52380952,49df378b-344f-429f-b4af-04ea5646092d,5,511.6625,513.5566,space,0,0,27,27,28,1,X,,0.3178,,,,,,,,,,,
,,,,,R_82R35ItJxL12AnJ,001,2025-09-10_13h16.33.255,continuous_performance_test,2024.2.4,Win32,59.52380952,49df378b-344f-429f-b4af-04ea5646092d,5,513.5572,515.2068,space,1,0,28,28,20,1,U,space,0.3497,,,,,,,,,,,
,,,,,R_82R35ItJxL12AnJ,001,2025-09-10_13h16.33.255,continuous_performance_test,2024.2.4,Win32,59.52380952,49df378b-344f-429f-b4af-04ea5646092d,5,515.2076,516.9452,,0,0,29,29,21,1,V,space,,,,,,,,,,,,
,,,,,R_82R35ItJxL12AnJ,001,2025-09-10_13h16.33.255,continuous_performance_test,2024.2.4,Win32,59.52380952,49df378b-344f-429f-b4af-04ea5646092d,5,517.9487,519.5399,space,1,0,0,0,5,1,F,space,0.7922,,516.9457,517.9455,space,0.983,,,,,,
,,,,,R_82R35ItJxL12AnJ,001,2025-09-10_13h16.33.255,continuous_performance_test,2024.2.4,Win32,59.52380952,49df378b-344f-429f-b4af-04ea5646092d,5,519.5405,521.0953,space,1,0,1,1,17,1,R,space,0.3219,,,,,,,,,,,
,,,,,R_82R35ItJxL12AnJ,001,2025-09-10_13h16.33.255,continuous_performance_test,2024.2.4,Win32,59.52380952,49df378b-344f-429f-b4af-04ea5646092d,5,521.0959,522.6955,space,0,0,2,2,29,1,X,,0.3443,,,,,,,,,,,
,,,,,R_82R35ItJxL12AnJ,001,2025-09-10_13h16.33.255,continuous_performance_test,2024.2.4,Win32,59.52380952,49df378b-344f-429f-b4af-04ea5646092d,5,522.6961,524.6899,space,1,0,3,3,0,1,A,space,0.2999,,,,,,,,,,,
,,,,,R_82R35ItJxL12AnJ,001,2025-09-10_13h16.33.255,continuous_performance_test,2024.2.4,Win32,59.52380952,49df378b-344f-429f-b4af-04ea5646092d,5,524.6907,526.64,space,1,0,4,4,14,1,O,space,0.2674,,,,,,,,,,,
,,,,,R_82R35ItJxL12AnJ,001,2025-09-10_13h16.33.255,continuous_performance_test,2024.2.4,Win32,59.52380952,49df378b-344f-429f-b4af-04ea5646092d,5,526.6405,528.1901,space,1,0,5,5,9,1,J,space,0.2858,,,,,,,,,,,
,,,,,R_82R35ItJxL12AnJ,001,2025-09-10_13h16.33.255,continuous_performance_test,2024.2.4,Win32,59.52380952,49df378b-344f-429f-b4af-04ea5646092d,5,528.1911,530.0399,space,1,0,6,6,8,1,I,space,0.3001,,,,,,,,,,,
,,,,,R_82R35ItJxL12AnJ,001,2025-09-10_13h16.33.255,continuous_performance_test,2024.2.4,Win32,59.52380952,49df378b-344f-429f-b4af-04ea5646092d,5,530.0407,532.0398,space,1,0,7,7,16,1,Q,space,0.2838,,,,,,,,,,,
,,,,,R_82R35ItJxL12AnJ,001,2025-09-10_13h16.33.255,continuous_performance_test,2024.2.4,Win32,59.52380952,49df378b-344f-429f-b4af-04ea5646092d,5,532.0405,533.59,space,1,0,8,8,10,1,K,space,0.3325,,,,,,,,,,,
,,,,,R_82R35ItJxL12AnJ,001,2025-09-10_13h16.33.255,continuous_performance_test,2024.2.4,Win32,59.52380952,49df378b-344f-429f-b4af-04ea5646092d,5,533.5906,535.14,space,1,0,9,9,22,1,W,space,0.2665,,,,,,,,,,,
,,,,,R_82R35ItJxL12AnJ,001,2025-09-10_13h16.33.255,continuous_performance_test,2024.2.4,Win32,59.52380952,49df378b-344f-429f-b4af-04ea5646092d,5,535.1413,537.0452,space,1,0,10,10,2,1,C,space,0.3239,,,,,,,,,,,
,,,,,R_82R35ItJxL12AnJ,001,2025-09-10_13h16.33.255,continuous_performance_test,2024.2.4,Win32,59.52380952,49df378b-344f-429f-b4af-04ea5646092d,5,537.0456,538.7454,space,1,0,11,11,19,1,T,space,0.367,,,,,,,,,,,
,,,,,R_82R35ItJxL12AnJ,001,2025-09-10_13h16.33.255,continuous_performance_test,2024.2.4,Win32,59.52380952,49df378b-344f-429f-b4af-04ea5646092d,5,538.7462,540.5953,space,1,0,12,12,21,1,V,space,0.3068,,,,,,,,,,,
,,,,,R_82R35ItJxL12AnJ,001,2025-09-10_13h16.33.255,continuous_performance_test,2024.2.4,Win32,59.52380952,49df378b-344f-429f-b4af-04ea5646092d,5,540.596,542.2898,space,1,0,13,13,11,1,L,space,0.3172,,,,,,,,,,,
,,,,,R_82R35ItJxL12AnJ,001,2025-09-10_13h16.33.255,continuous_performance_test,2024.2.4,Win32,59.52380952,49df378b-344f-429f-b4af-04ea5646092d,5,542.2903,544.029,space,1,0,14,14,12,1,M,space,0.3437,,,,,,,,,,,
,,,,,R_82R35ItJxL12AnJ,001,2025-09-10_13h16.33.255,continuous_performance_test,2024.2.4,Win32,59.52380952,49df378b-344f-429f-b4af-04ea5646092d,5,544.0295,546.0232,space,1,0,15,15,13,1,N,space,0.3343,,,,,,,,,,,
,,,,,R_82R35ItJxL12AnJ,001,2025-09-10_13h16.33.255,continuous_performance_test,2024.2.4,Win32,59.52380952,49df378b-344f-429f-b4af-04ea5646092d,5,546.0238,547.5791,space,1,0,16,16,7,1,H,space,0.4325,,,,,,,,,,,
,,,,,R_82R35ItJxL12AnJ,001,2025-09-10_13h16.33.255,continuous_performance_test,2024.2.4,Win32,59.52380952,49df378b-344f-429f-b4af-04ea5646092d,5,547.5797,549.2733,space,1,0,17,17,15,1,P,space,0.3525,,,,,,,,,,,
,,,,,R_82R35ItJxL12AnJ,001,2025-09-10_13h16.33.255,continuous_performance_test,2024.2.4,Win32,59.52380952,49df378b-344f-429f-b4af-04ea5646092d,5,549.2739,551.2288,space,1,0,18,18,3,1,D,space,0.3165,,,,,,,,,,,
,,,,,R_82R35ItJxL12AnJ,001,2025-09-10_13h16.33.255,continuous_performance_test,2024.2.4,Win32,59.52380952,49df378b-344f-429f-b4af-04ea5646092d,5,551.2296,553.2231,space,0,0,19,19,28,1,X,,0.3343,,,,,,,,,,,
,,,,,R_82R35ItJxL12AnJ,001,2025-09-10_13h16.33.255,continuous_performance_test,2024.2.4,Win32,59.52380952,49df378b-344f-429f-b4af-04ea5646092d,5,553.2236,555.2233,space,0,0,20,20,26,1,X,,0.3526,,,,,,,,,,,
,,,,,R_82R35ItJxL12AnJ,001,2025-09-10_13h16.33.255,continuous_performance_test,2024.2.4,Win32,59.52380952,49df378b-344f-429f-b4af-04ea5646092d,5,555.2242,557.1285,,0,0,21,21,23,1,Y,space,,,,,,,,,,,,
,,,,,R_82R35ItJxL12AnJ,001,2025-09-10_13h16.33.255,continuous_performance_test,2024.2.4,Win32,59.52380952,49df378b-344f-429f-b4af-04ea5646092d,5,557.1291,558.8231,space,1,0,22,22,18,1,S,space,0.4659,,,,,,,,,,,
,,,,,R_82R35ItJxL12AnJ,001,2025-09-10_13h16.33.255,continuous_performance_test,2024.2.4,Win32,59.52380952,49df378b-344f-429f-b4af-04ea5646092d,5,558.8237,560.3788,space,0,0,23,23,27,1,X,,0.4078,,,,,,,,,,,
,,,,,R_82R35ItJxL12AnJ,001,2025-09-10_13h16.33.255,continuous_performance_test,2024.2.4,Win32,59.52380952,49df378b-344f-429f-b4af-04ea5646092d,5,560.3794,562.1288,space,1,0,24,24,24,1,Z,space,0.3323,,,,,,,,,,,
,,,,,R_82R35ItJxL12AnJ,001,2025-09-10_13h16.33.255,continuous_performance_test,2024.2.4,Win32,59.52380952,49df378b-344f-429f-b4af-04ea5646092d,5,562.1293,564.0734,space,1,0,25,25,4,1,E,space,0.3892,,,,,,,,,,,
,,,,,R_82R35ItJxL12AnJ,001,2025-09-10_13h16.33.255,continuous_performance_test,2024.2.4,Win32,59.52380952,49df378b-344f-429f-b4af-04ea5646092d,5,564.0742,566.0232,space,1,0,26,26,1,1,B,space,0.3005,,,,,,,,,,,
,,,,,R_82R35ItJxL12AnJ,001,2025-09-10_13h16.33.255,continuous_performance_test,2024.2.4,Win32,59.52380952,49df378b-344f-429f-b4af-04ea5646092d,5,566.0239,567.5792,space,1,0,27,27,6,1,G,space,0.4003,,,,,,,,,,,
,,,,,R_82R35ItJxL12AnJ,001,2025-09-10_13h16.33.255,continuous_performance_test,2024.2.4,Win32,59.52380952,49df378b-344f-429f-b4af-04ea5646092d,5,567.5797,569.5792,space,1,0,28,28,20,1,U,space,0.4158,,,,,,,,,,,
,,,,,R_82R35ItJxL12AnJ,001,2025-09-10_13h16.33.255,continuous_performance_test,2024.2.4,Win32,59.52380952,49df378b-344f-429f-b4af-04ea5646092d,5,569.5799,571.5856,space,0,0,29,29,25,1,X,,0.3049,,,,,,,,,,,
,,,,,R_82R35ItJxL12AnJ,001,2025-09-10_13h16.33.255,continuous_performance_test,2024.2.4,Win32,59.52380952,49df378b-344f-429f-b4af-04ea5646092d,5,572.4936,574.2399,space,1,0,0,0,20,1,U,space,0.7442,,571.5861,572.4902,space,0.8848,,,,,,
,,,,,R_82R35ItJxL12AnJ,001,2025-09-10_13h16.33.255,continuous_performance_test,2024.2.4,Win32,59.52380952,49df378b-344f-429f-b4af-04ea5646092d,5,574.2404,575.9789,space,1,0,1,1,23,1,Y,space,0.3376,,,,,,,,,,,
,,,,,R_82R35ItJxL12AnJ,001,2025-09-10_13h16.33.255,continuous_performance_test,2024.2.4,Win32,59.52380952,49df378b-344f-429f-b4af-04ea5646092d,5,575.9796,577.6277,space,1,0,2,2,22,1,W,space,0.4199,,,,,,,,,,,
,,,,,R_82R35ItJxL12AnJ,001,2025-09-10_13h16.33.255,continuous_performance_test,2024.2.4,Win32,59.52380952,49df378b-344f-429f-b4af-04ea5646092d,5,577.6284,579.6234,space,1,0,3,3,7,1,H,space,0.3265,,,,,,,,,,,
,,,,,R_82R35ItJxL12AnJ,001,2025-09-10_13h16.33.255,continuous_performance_test,2024.2.4,Win32,59.52380952,49df378b-344f-429f-b4af-04ea5646092d,5,579.6239,581.629,space,1,0,4,4,4,1,E,space,0.3159,,,,,,,,,,,
,,,,,R_82R35ItJxL12AnJ,001,2025-09-10_13h16.33.255,continuous_performance_test,2024.2.4,Win32,59.52380952,49df378b-344f-429f-b4af-04ea5646092d,5,581.6296,583.2234,space,0,0,5,5,26,1,X,,0.3835,,,,,,,,,,,
,,,,,R_82R35ItJxL12AnJ,001,2025-09-10_13h16.33.255,continuous_performance_test,2024.2.4,Win32,59.52380952,49df378b-344f-429f-b4af-04ea5646092d,5,583.2242,585.0231,space,1,0,6,6,8,1,I,space,0.3106,,,,,,,,,,,
,,,,,R_82R35ItJxL12AnJ,001,2025-09-10_13h16.33.255,continuous_performance_test,2024.2.4,Win32,59.52380952,49df378b-344f-429f-b4af-04ea5646092d,5,585.0237,586.6794,space,0,0,7,7,27,1,X,,0.3247,,,,,,,,,,,
,,,,,R_82R35ItJxL12AnJ,001,2025-09-10_13h16.33.255,continuous_performance_test,2024.2.4,Win32,59.52380952,49df378b-344f-429f-b4af-04ea5646092d,5,586.6799,588.4292,space,1,0,8,8,1,1,B,space,0.3742,,,,,,,,,,,
,,,,,R_82R35ItJxL12AnJ,001,2025-09-10_13h16.33.255,continuous_performance_test,2024.2.4,Win32,59.52380952,49df378b-344f-429f-b4af-04ea5646092d,5,588.4298,590.2293,,1,0,9,9,29,1,X,,,,,,,,,,,,,
,,,,,R_82R35ItJxL12AnJ,001,2025-09-10_13h16.33.255,continuous_performance_test,2024.2.4,Win32,59.52380952,49df378b-344f-429f-b4af-04ea5646092d,5,590.2299,592.0732,space,1,0,10,10,16,1,Q,space,0.4089,,,,,,,,,,,
,,,,,R_82R35ItJxL12AnJ,001,2025-09-10_13h16.33.255,continuous_performance_test,2024.2.4,Win32,59.52380952,49df378b-344f-429f-b4af-04ea5646092d,5,592.0738,593.812,space,0,0,11,11,28,1,X,,0.3528,,,,,,,,,,,
,,,,,R_82R35ItJxL12AnJ,001,2025-09-10_13h16.33.255,continuous_performance_test,2024.2.4,Win32,59.52380952,49df378b-344f-429f-b4af-04ea5646092d,5,593.8125,595.6065,space,1,0,12,12,15,1,P,space,0.438,,,,,,,,,,,
,,,,,R_82R35ItJxL12AnJ,001,2025-09-10_13h16.33.255,continuous_performance_test,2024.2.4,Win32,59.52380952,49df378b-344f-429f-b4af-04ea5646092d,5,595.6071,597.1567,space,1,0,13,13,13,1,N,space,0.3834,,,,,,,,,,,
,,,,,R_82R35ItJxL12AnJ,001,2025-09-10_13h16.33.255,continuous_performance_test,2024.2.4,Win32,59.52380952,49df378b-344f-429f-b4af-04ea5646092d,5,597.1574,599.012,space,1,0,14,14,9,1,J,space,0.3438,,,,,,,,,,,
,,,,,R_82R35ItJxL12AnJ,001,2025-09-10_13h16.33.255,continuous_performance_test,2024.2.4,Win32,59.52380952,49df378b-344f-429f-b4af-04ea5646092d,5,599.0126,601.0065,space,1,0,15,15,24,1,Z,space,0.3491,,,,,,,,,,,
,,,,,R_82R35ItJxL12AnJ,001,2025-09-10_13h16.33.255,continuous_performance_test,2024.2.4,Win32,59.52380952,49df378b-344f-429f-b4af-04ea5646092d,5,601.007,602.8955,,0,0,16,16,18,1,S,space,,,,,,,,,,,,
,,,,,R_82R35ItJxL12AnJ,001,2025-09-10_13h16.33.255,continuous_performance_test,2024.2.4,Win32,59.52380952,49df378b-344f-429f-b4af-04ea5646092d,5,602.896,604.6957,space,1,0,17,17,6,1,G,space,0.4001,,,,,,,,,,,
,,,,,R_82R35ItJxL12AnJ,001,2025-09-10_13h16.33.255,continuous_performance_test,2024.2.4,Win32,59.52380952,49df378b-344f-429f-b4af-04ea5646092d,5,604.6965,606.2399,space,1,0,18,18,2,1,C,space,0.3003,,,,,,,,,,,
,,,,,R_82R35ItJxL12AnJ,001,2025-09-10_13h16.33.255,continuous_performance_test,2024.2.4,Win32,59.52380952,49df378b-344f-429f-b4af-04ea5646092d,5,606.2407,608.24,space,1,0,19,19,5,1,F,space,0.3502,,,,,,,,,,,
,,,,,R_82R35ItJxL12AnJ,001,2025-09-10_13h16.33.255,continuous_performance_test,2024.2.4,Win32,59.52380952,49df378b-344f-429f-b4af-04ea5646092d,5,608.2404,609.99,space,1,0,20,20,11,1,L,space,0.3169,,,,,,,,,,,
,,,,,R_82R35ItJxL12AnJ,001,2025-09-10_13h16.33.255,continuous_performance_test,2024.2.4,Win32,59.52380952,49df378b-344f-429f-b4af-04ea5646092d,5,609.9909,611.5902,space,1,0,21,21,0,1,A,space,0.3669,,,,,,,,,,,
,,,,,R_82R35ItJxL12AnJ,001,2025-09-10_13h16.33.255,continuous_performance_test,2024.2.4,Win32,59.52380952,49df378b-344f-429f-b4af-04ea5646092d,5,611.5913,613.14,space,1,0,22,22,17,1,R,space,0.45,,,,,,,,,,,
,,,,,R_82R35ItJxL12AnJ,001,2025-09-10_13h16.33.255,continuous_performance_test,2024.2.4,Win32,59.52380952,49df378b-344f-429f-b4af-04ea5646092d,5,613.1406,614.6902,space,1,0,23,23,14,1,O,space,0.337,,,,,,,,,,,
,,,,,R_82R35ItJxL12AnJ,001,2025-09-10_13h16.33.255,continuous_performance_test,2024.2.4,Win32,59.52380952,49df378b-344f-429f-b4af-04ea5646092d,5,614.6912,616.2955,space,0,0,24,24,25,1,X,,0.3179,,,,,,,,,,,
,,,,,R_82R35ItJxL12AnJ,001,2025-09-10_13h16.33.255,continuous_performance_test,2024.2.4,Win32,59.52380952,49df378b-344f-429f-b4af-04ea5646092d,5,616.2961,617.84,space,1,0,25,25,10,1,K,space,0.3039,,,,,,,,,,,
,,,,,R_82R35ItJxL12AnJ,001,2025-09-10_13h16.33.255,continuous_performance_test,2024.2.4,Win32,59.52380952,49df378b-344f-429f-b4af-04ea5646092d,5,617.8405,619.5788,space,1,0,26,26,3,1,D,space,0.2826,,,,,,,,,,,
,,,,,R_82R35ItJxL12AnJ,001,2025-09-10_13h16.33.255,continuous_performance_test,2024.2.4,Win32,59.52380952,49df378b-344f-429f-b4af-04ea5646092d,5,619.5793,621.2287,space,1,0,27,27,12,1,M,space,0.3264,,,,,,,,,,,
,,,,,R_82R35ItJxL12AnJ,001,2025-09-10_13h16.33.255,continuous_performance_test,2024.2.4,Win32,59.52380952,49df378b-344f-429f-b4af-04ea5646092d,5,621.2294,623.1734,space,1,0,28,28,21,1,V,space,0.3499,,,,,,,,,,,
,,,,,R_82R35ItJxL12AnJ,001,2025-09-10_13h16.33.255,continuous_performance_test,2024.2.4,Win32,59.52380952,49df378b-344f-429f-b4af-04ea5646092d,5,623.174,625.1292,space,1,0,29,29,19,1,T,space,0.5234,,,,,,,,,,,
,,,,,R_82R35ItJxL12AnJ,001,2025-09-10_13h16.33.255,continuous_performance_test,2024.2.4,Win32,59.52380952,49df378b-344f-429f-b4af-04ea5646092d,5,,,,,,,,,,,,,,625.1297,625.13,,,,625.1301,630.2285,space,5.082,
