Instructions.started,Instructions.stopped,key_resp.keys,key_resp.rt,key_resp.duration,participant,session,date,expName,psychopyVersion,OS,frameRate,realeye-tester-id,realeye-tester-quality_grade,Trial_noX.started,Trial_noX.stopped,response.keys,response.corr,response.rt,response.duration,trials_noX.thisRepN,trials_noX.thisTrialN,trials_noX.thisN,trials_noX.thisIndex,trials_noX.ran,letter,corrAns,BlockBreak.started,BlockBreak.stopped,key_instruct.keys,key_instruct.rt,key_instruct.duration,End_NoX.started,End_NoX.stopped,key_resp_end_noX.keys,key_resp_end_noX.rt,key_resp_end_noX.duration
0.001,6.324,space,6.246,,R_911KYZQxcxhJwRP,001,2025-08-13_13h09.31.883,continuous_performance_test,2024.2.4,MacIntel,58.82352941,4a6c4316-4033-4298-aaa0-c585d4002c59,1,,,,,,,,,,,,,,,,,,,,,,,
,,,,,R_911KYZQxcxhJwRP,001,2025-08-13_13h09.31.883,continuous_performance_test,2024.2.4,MacIntel,58.82352941,4a6c4316-4033-4298-aaa0-c585d4002c59,1,6.366,7.958,space,1,0.544,,0,0,0,12,1,M,space,,,,,,,,,,
,,,,,R_911KYZQxcxhJwRP,001,2025-08-13_13h09.31.883,continuous_performance_test,2024.2.4,MacIntel,58.82352941,4a6c4316-4033-4298-aaa0-c585d4002c59,1,7.96,9.756,space,1,0.469,,0,1,1,2,1,C,space,,,,,,,,,,
,,,,,R_911KYZQxcxhJwRP,001,2025-08-13_13h09.31.883,continuous_performance_test,2024.2.4,MacIntel,58.82352941,4a6c4316-4033-4298-aaa0-c585d4002c59,1,9.758,11.506,space,1,0.536,,0,2,2,13,1,N,space,,,,,,,,,,
,,,,,R_911KYZQxcxhJwRP,001,2025-08-13_13h09.31.883,continuous_performance_test,2024.2.4,MacIntel,58.82352941,4a6c4316-4033-4298-aaa0-c585d4002c59,1,11.507,13.312,space,1,0.57,,0,3,3,17,1,R,space,,,,,,,,,,
,,,,,R_911KYZQxcxhJwRP,001,2025-08-13_13h09.31.883,continuous_performance_test,2024.2.4,MacIntel,58.82352941,4a6c4316-4033-4298-aaa0-c585d4002c59,1,13.314,14.907,space,1,0.467,,0,4,4,8,1,I,space,,,,,,,,,,
,,,,,R_911KYZQxcxhJwRP,001,2025-08-13_13h09.31.883,continuous_performance_test,2024.2.4,MacIntel,58.82352941,4a6c4316-4033-4298-aaa0-c585d4002c59,1,14.908,16.592,space,1,0.544,,0,5,5,23,1,Y,space,,,,,,,,,,
,,,,,R_911KYZQxcxhJwRP,001,2025-08-13_13h09.31.883,continuous_performance_test,2024.2.4,MacIntel,58.82352941,4a6c4316-4033-4298-aaa0-c585d4002c59,1,16.593,18.591,space,1,0.419,,0,6,6,4,1,E,space,,,,,,,,,,
,,,,,R_911KYZQxcxhJwRP,001,2025-08-13_13h09.31.883,continuous_performance_test,2024.2.4,MacIntel,58.82352941,4a6c4316-4033-4298-aaa0-c585d4002c59,1,18.592,20.59,space,1,0.314,,0,7,7,21,1,V,space,,,,,,,,,,
,,,,,R_911KYZQxcxhJwRP,001,2025-08-13_13h09.31.883,continuous_performance_test,2024.2.4,MacIntel,58.82352941,4a6c4316-4033-4298-aaa0-c585d4002c59,1,20.59,22.289,space,1,0.365,,0,8,8,3,1,D,space,,,,,,,,,,
,,,,,R_911KYZQxcxhJwRP,001,2025-08-13_13h09.31.883,continuous_performance_test,2024.2.4,MacIntel,58.82352941,4a6c4316-4033-4298-aaa0-c585d4002c59,1,22.29,24.14,space,1,0.4,,0,9,9,16,1,Q,space,,,,,,,,,,
,,,,,R_911KYZQxcxhJwRP,001,2025-08-13_13h09.31.883,continuous_performance_test,2024.2.4,MacIntel,58.82352941,4a6c4316-4033-4298-aaa0-c585d4002c59,1,24.141,25.84,space,1,0.347,,0,10,10,15,1,P,space,,,,,,,,,,
,,,,,R_911KYZQxcxhJwRP,001,2025-08-13_13h09.31.883,continuous_performance_test,2024.2.4,MacIntel,58.82352941,4a6c4316-4033-4298-aaa0-c585d4002c59,1,25.841,27.739,space,1,0.452,,0,11,11,10,1,K,space,,,,,,,,,,
,,,,,R_911KYZQxcxhJwRP,001,2025-08-13_13h09.31.883,continuous_performance_test,2024.2.4,MacIntel,58.82352941,4a6c4316-4033-4298-aaa0-c585d4002c59,1,27.74,29.511,,1,,,0,12,12,25,1,X,,,,,,,,,,,
,,,,,R_911KYZQxcxhJwRP,001,2025-08-13_13h09.31.883,continuous_performance_test,2024.2.4,MacIntel,58.82352941,4a6c4316-4033-4298-aaa0-c585d4002c59,1,29.512,31.456,space,1,0.352,,0,13,13,24,1,Z,space,,,,,,,,,,
,,,,,R_911KYZQxcxhJwRP,001,2025-08-13_13h09.31.883,continuous_performance_test,2024.2.4,MacIntel,58.82352941,4a6c4316-4033-4298-aaa0-c585d4002c59,1,31.457,33.308,space,1,0.477,,0,14,14,11,1,L,space,,,,,,,,,,
,,,,,R_911KYZQxcxhJwRP,001,2025-08-13_13h09.31.883,continuous_performance_test,2024.2.4,MacIntel,58.82352941,4a6c4316-4033-4298-aaa0-c585d4002c59,1,33.309,34.906,space,1,0.387,,0,15,15,9,1,J,space,,,,,,,,,,
,,,,,R_911KYZQxcxhJwRP,001,2025-08-13_13h09.31.883,continuous_performance_test,2024.2.4,MacIntel,58.82352941,4a6c4316-4033-4298-aaa0-c585d4002c59,1,34.907,36.856,space,1,0.404,,0,16,16,20,1,U,space,,,,,,,,,,
,,,,,R_911KYZQxcxhJwRP,001,2025-08-13_13h09.31.883,continuous_performance_test,2024.2.4,MacIntel,58.82352941,4a6c4316-4033-4298-aaa0-c585d4002c59,1,36.857,38.656,,1,,,0,17,17,28,1,X,,,,,,,,,,,
,,,,,R_911KYZQxcxhJwRP,001,2025-08-13_13h09.31.883,continuous_performance_test,2024.2.4,MacIntel,58.82352941,4a6c4316-4033-4298-aaa0-c585d4002c59,1,38.657,40.607,space,1,0.414,,0,18,18,19,1,T,space,,,,,,,,,,
,,,,,R_911KYZQxcxhJwRP,001,2025-08-13_13h09.31.883,continuous_performance_test,2024.2.4,MacIntel,58.82352941,4a6c4316-4033-4298-aaa0-c585d4002c59,1,40.608,42.407,space,1,0.466,,0,19,19,22,1,W,space,,,,,,,,,,
,,,,,R_911KYZQxcxhJwRP,001,2025-08-13_13h09.31.883,continuous_performance_test,2024.2.4,MacIntel,58.82352941,4a6c4316-4033-4298-aaa0-c585d4002c59,1,42.408,44.306,space,1,0.42,,0,20,20,14,1,O,space,,,,,,,,,,
,,,,,R_911KYZQxcxhJwRP,001,2025-08-13_13h09.31.883,continuous_performance_test,2024.2.4,MacIntel,58.82352941,4a6c4316-4033-4298-aaa0-c585d4002c59,1,44.307,46.206,,1,,,0,21,21,27,1,X,,,,,,,,,,,
,,,,,R_911KYZQxcxhJwRP,001,2025-08-13_13h09.31.883,continuous_performance_test,2024.2.4,MacIntel,58.82352941,4a6c4316-4033-4298-aaa0-c585d4002c59,1,46.207,47.806,space,1,0.434,,0,22,22,18,1,S,space,,,,,,,,,,
,,,,,R_911KYZQxcxhJwRP,001,2025-08-13_13h09.31.883,continuous_performance_test,2024.2.4,MacIntel,58.82352941,4a6c4316-4033-4298-aaa0-c585d4002c59,1,47.807,49.608,space,1,0.354,,0,23,23,0,1,A,space,,,,,,,,,,
,,,,,R_911KYZQxcxhJwRP,001,2025-08-13_13h09.31.883,continuous_performance_test,2024.2.4,MacIntel,58.82352941,4a6c4316-4033-4298-aaa0-c585d4002c59,1,49.609,51.456,space,1,0.377,,0,24,24,5,1,F,space,,,,,,,,,,
,,,,,R_911KYZQxcxhJwRP,001,2025-08-13_13h09.31.883,continuous_performance_test,2024.2.4,MacIntel,58.82352941,4a6c4316-4033-4298-aaa0-c585d4002c59,1,51.457,53.157,space,1,0.447,,0,25,25,6,1,G,space,,,,,,,,,,
,,,,,R_911KYZQxcxhJwRP,001,2025-08-13_13h09.31.883,continuous_performance_test,2024.2.4,MacIntel,58.82352941,4a6c4316-4033-4298-aaa0-c585d4002c59,1,53.157,54.906,space,1,0.385,,0,26,26,7,1,H,space,,,,,,,,,,
,,,,,R_911KYZQxcxhJwRP,001,2025-08-13_13h09.31.883,continuous_performance_test,2024.2.4,MacIntel,58.82352941,4a6c4316-4033-4298-aaa0-c585d4002c59,1,54.908,56.807,,1,,,0,27,27,29,1,X,,,,,,,,,,,
,,,,,R_911KYZQxcxhJwRP,001,2025-08-13_13h09.31.883,continuous_performance_test,2024.2.4,MacIntel,58.82352941,4a6c4316-4033-4298-aaa0-c585d4002c59,1,56.808,58.357,space,1,0.402,,0,28,28,1,1,B,space,,,,,,,,,,
,,,,,R_911KYZQxcxhJwRP,001,2025-08-13_13h09.31.883,continuous_performance_test,2024.2.4,MacIntel,58.82352941,4a6c4316-4033-4298-aaa0-c585d4002c59,1,58.358,60.256,space,0,0.35,,0,29,29,26,1,X,,,,,,,,,,,
,,,,,R_911KYZQxcxhJwRP,001,2025-08-13_13h09.31.883,continuous_performance_test,2024.2.4,MacIntel,58.82352941,4a6c4316-4033-4298-aaa0-c585d4002c59,1,63.314,65.206,space,1,0.477,,0,0,0,7,1,H,space,60.259,63.298,space,2.997,,,,,,
,,,,,R_911KYZQxcxhJwRP,001,2025-08-13_13h09.31.883,continuous_performance_test,2024.2.4,MacIntel,58.82352941,4a6c4316-4033-4298-aaa0-c585d4002c59,1,65.207,67.206,space,1,0.4,,0,1,1,2,1,C,space,,,,,,,,,,
,,,,,R_911KYZQxcxhJwRP,001,2025-08-13_13h09.31.883,continuous_performance_test,2024.2.4,MacIntel,58.82352941,4a6c4316-4033-4298-aaa0-c585d4002c59,1,67.207,69.206,,1,,,0,2,2,27,1,X,,,,,,,,,,,
,,,,,R_911KYZQxcxhJwRP,001,2025-08-13_13h09.31.883,continuous_performance_test,2024.2.4,MacIntel,58.82352941,4a6c4316-4033-4298-aaa0-c585d4002c59,1,69.206,71.208,space,1,0.464,,0,3,3,17,1,R,space,,,,,,,,,,
,,,,,R_911KYZQxcxhJwRP,001,2025-08-13_13h09.31.883,continuous_performance_test,2024.2.4,MacIntel,58.82352941,4a6c4316-4033-4298-aaa0-c585d4002c59,1,71.209,72.806,,1,,,0,4,4,25,1,X,,,,,,,,,,,
,,,,,R_911KYZQxcxhJwRP,001,2025-08-13_13h09.31.883,continuous_performance_test,2024.2.4,MacIntel,58.82352941,4a6c4316-4033-4298-aaa0-c585d4002c59,1,72.807,74.756,space,1,0.548,,0,5,5,22,1,W,space,,,,,,,,,,
,,,,,R_911KYZQxcxhJwRP,001,2025-08-13_13h09.31.883,continuous_performance_test,2024.2.4,MacIntel,58.82352941,4a6c4316-4033-4298-aaa0-c585d4002c59,1,74.756,76.557,space,1,0.449,,0,6,6,23,1,Y,space,,,,,,,,,,
,,,,,R_911KYZQxcxhJwRP,001,2025-08-13_13h09.31.883,continuous_performance_test,2024.2.4,MacIntel,58.82352941,4a6c4316-4033-4298-aaa0-c585d4002c59,1,76.558,78.207,space,1,0.476,,0,7,7,6,1,G,space,,,,,,,,,,
,,,,,R_911KYZQxcxhJwRP,001,2025-08-13_13h09.31.883,continuous_performance_test,2024.2.4,MacIntel,58.82352941,4a6c4316-4033-4298-aaa0-c585d4002c59,1,78.208,80.156,,1,,,0,8,8,29,1,X,,,,,,,,,,,
,,,,,R_911KYZQxcxhJwRP,001,2025-08-13_13h09.31.883,continuous_performance_test,2024.2.4,MacIntel,58.82352941,4a6c4316-4033-4298-aaa0-c585d4002c59,1,80.158,81.929,space,1,0.445,,0,9,9,13,1,N,space,,,,,,,,,,
,,,,,R_911KYZQxcxhJwRP,001,2025-08-13_13h09.31.883,continuous_performance_test,2024.2.4,MacIntel,58.82352941,4a6c4316-4033-4298-aaa0-c585d4002c59,1,81.931,83.573,space,1,0.432,,0,10,10,5,1,F,space,,,,,,,,,,
,,,,,R_911KYZQxcxhJwRP,001,2025-08-13_13h09.31.883,continuous_performance_test,2024.2.4,MacIntel,58.82352941,4a6c4316-4033-4298-aaa0-c585d4002c59,1,83.574,85.123,space,1,0.391,,0,11,11,24,1,Z,space,,,,,,,,,,
,,,,,R_911KYZQxcxhJwRP,001,2025-08-13_13h09.31.883,continuous_performance_test,2024.2.4,MacIntel,58.82352941,4a6c4316-4033-4298-aaa0-c585d4002c59,1,85.123,86.723,space,1,0.495,,0,12,12,10,1,K,space,,,,,,,,,,
,,,,,R_911KYZQxcxhJwRP,001,2025-08-13_13h09.31.883,continuous_performance_test,2024.2.4,MacIntel,58.82352941,4a6c4316-4033-4298-aaa0-c585d4002c59,1,86.723,88.673,space,1,0.368,,0,13,13,3,1,D,space,,,,,,,,,,
,,,,,R_911KYZQxcxhJwRP,001,2025-08-13_13h09.31.883,continuous_performance_test,2024.2.4,MacIntel,58.82352941,4a6c4316-4033-4298-aaa0-c585d4002c59,1,88.673,90.223,space,1,0.403,,0,14,14,1,1,B,space,,,,,,,,,,
,,,,,R_911KYZQxcxhJwRP,001,2025-08-13_13h09.31.883,continuous_performance_test,2024.2.4,MacIntel,58.82352941,4a6c4316-4033-4298-aaa0-c585d4002c59,1,90.223,92.123,space,1,0.37,,0,15,15,20,1,U,space,,,,,,,,,,
,,,,,R_911KYZQxcxhJwRP,001,2025-08-13_13h09.31.883,continuous_performance_test,2024.2.4,MacIntel,58.82352941,4a6c4316-4033-4298-aaa0-c585d4002c59,1,92.124,94.073,space,1,0.346,,0,16,16,12,1,M,space,,,,,,,,,,
,,,,,R_911KYZQxcxhJwRP,001,2025-08-13_13h09.31.883,continuous_performance_test,2024.2.4,MacIntel,58.82352941,4a6c4316-4033-4298-aaa0-c585d4002c59,1,94.074,96.023,space,1,0.373,,0,17,17,14,1,O,space,,,,,,,,,,
,,,,,R_911KYZQxcxhJwRP,001,2025-08-13_13h09.31.883,continuous_performance_test,2024.2.4,MacIntel,58.82352941,4a6c4316-4033-4298-aaa0-c585d4002c59,1,96.023,97.83,,1,,,0,18,18,28,1,X,,,,,,,,,,,
,,,,,R_911KYZQxcxhJwRP,001,2025-08-13_13h09.31.883,continuous_performance_test,2024.2.4,MacIntel,58.82352941,4a6c4316-4033-4298-aaa0-c585d4002c59,1,97.831,99.772,space,1,0.38,,0,19,19,15,1,P,space,,,,,,,,,,
,,,,,R_911KYZQxcxhJwRP,001,2025-08-13_13h09.31.883,continuous_performance_test,2024.2.4,MacIntel,58.82352941,4a6c4316-4033-4298-aaa0-c585d4002c59,1,99.774,101.373,space,1,0.4,,0,20,20,21,1,V,space,,,,,,,,,,
,,,,,R_911KYZQxcxhJwRP,001,2025-08-13_13h09.31.883,continuous_performance_test,2024.2.4,MacIntel,58.82352941,4a6c4316-4033-4298-aaa0-c585d4002c59,1,101.373,103.022,space,1,0.401,,0,21,21,4,1,E,space,,,,,,,,,,
,,,,,R_911KYZQxcxhJwRP,001,2025-08-13_13h09.31.883,continuous_performance_test,2024.2.4,MacIntel,58.82352941,4a6c4316-4033-4298-aaa0-c585d4002c59,1,103.023,104.823,space,1,0.485,,0,22,22,8,1,I,space,,,,,,,,,,
,,,,,R_911KYZQxcxhJwRP,001,2025-08-13_13h09.31.883,continuous_performance_test,2024.2.4,MacIntel,58.82352941,4a6c4316-4033-4298-aaa0-c585d4002c59,1,104.824,106.573,space,1,0.372,,0,23,23,0,1,A,space,,,,,,,,,,
,,,,,R_911KYZQxcxhJwRP,001,2025-08-13_13h09.31.883,continuous_performance_test,2024.2.4,MacIntel,58.82352941,4a6c4316-4033-4298-aaa0-c585d4002c59,1,106.574,108.323,space,1,0.393,,0,24,24,18,1,S,space,,,,,,,,,,
,,,,,R_911KYZQxcxhJwRP,001,2025-08-13_13h09.31.883,continuous_performance_test,2024.2.4,MacIntel,58.82352941,4a6c4316-4033-4298-aaa0-c585d4002c59,1,108.324,109.973,space,1,0.38,,0,25,25,9,1,J,space,,,,,,,,,,
,,,,,R_911KYZQxcxhJwRP,001,2025-08-13_13h09.31.883,continuous_performance_test,2024.2.4,MacIntel,58.82352941,4a6c4316-4033-4298-aaa0-c585d4002c59,1,109.974,111.573,space,1,0.385,,0,26,26,11,1,L,space,,,,,,,,,,
,,,,,R_911KYZQxcxhJwRP,001,2025-08-13_13h09.31.883,continuous_performance_test,2024.2.4,MacIntel,58.82352941,4a6c4316-4033-4298-aaa0-c585d4002c59,1,111.574,113.322,space,1,0.389,,0,27,27,19,1,T,space,,,,,,,,,,
,,,,,R_911KYZQxcxhJwRP,001,2025-08-13_13h09.31.883,continuous_performance_test,2024.2.4,MacIntel,58.82352941,4a6c4316-4033-4298-aaa0-c585d4002c59,1,113.323,115.196,space,1,0.426,,0,28,28,16,1,Q,space,,,,,,,,,,
,,,,,R_911KYZQxcxhJwRP,001,2025-08-13_13h09.31.883,continuous_performance_test,2024.2.4,MacIntel,58.82352941,4a6c4316-4033-4298-aaa0-c585d4002c59,1,115.197,116.839,space,0,0.401,,0,29,29,26,1,X,,,,,,,,,,,
,,,,,R_911KYZQxcxhJwRP,001,2025-08-13_13h09.31.883,continuous_performance_test,2024.2.4,MacIntel,58.82352941,4a6c4316-4033-4298-aaa0-c585d4002c59,1,119.133,120.674,space,1,0.61,,0,0,0,16,1,Q,space,116.84,119.123,space,2.235,,,,,,
,,,,,R_911KYZQxcxhJwRP,001,2025-08-13_13h09.31.883,continuous_performance_test,2024.2.4,MacIntel,58.82352941,4a6c4316-4033-4298-aaa0-c585d4002c59,1,120.675,122.472,space,1,0.431,,0,1,1,18,1,S,space,,,,,,,,,,
,,,,,R_911KYZQxcxhJwRP,001,2025-08-13_13h09.31.883,continuous_performance_test,2024.2.4,MacIntel,58.82352941,4a6c4316-4033-4298-aaa0-c585d4002c59,1,122.473,124.422,space,1,0.446,,0,2,2,15,1,P,space,,,,,,,,,,
,,,,,R_911KYZQxcxhJwRP,001,2025-08-13_13h09.31.883,continuous_performance_test,2024.2.4,MacIntel,58.82352941,4a6c4316-4033-4298-aaa0-c585d4002c59,1,124.423,126.223,space,1,0.414,,0,3,3,22,1,W,space,,,,,,,,,,
,,,,,R_911KYZQxcxhJwRP,001,2025-08-13_13h09.31.883,continuous_performance_test,2024.2.4,MacIntel,58.82352941,4a6c4316-4033-4298-aaa0-c585d4002c59,1,126.224,127.974,,1,,,0,4,4,27,1,X,,,,,,,,,,,
,,,,,R_911KYZQxcxhJwRP,001,2025-08-13_13h09.31.883,continuous_performance_test,2024.2.4,MacIntel,58.82352941,4a6c4316-4033-4298-aaa0-c585d4002c59,1,127.974,129.672,space,1,0.432,,0,5,5,24,1,Z,space,,,,,,,,,,
,,,,,R_911KYZQxcxhJwRP,001,2025-08-13_13h09.31.883,continuous_performance_test,2024.2.4,MacIntel,58.82352941,4a6c4316-4033-4298-aaa0-c585d4002c59,1,129.673,131.223,space,1,0.377,,0,6,6,10,1,K,space,,,,,,,,,,
,,,,,R_911KYZQxcxhJwRP,001,2025-08-13_13h09.31.883,continuous_performance_test,2024.2.4,MacIntel,58.82352941,4a6c4316-4033-4298-aaa0-c585d4002c59,1,131.224,132.825,space,1,0.51,,0,7,7,3,1,D,space,,,,,,,,,,
,,,,,R_911KYZQxcxhJwRP,001,2025-08-13_13h09.31.883,continuous_performance_test,2024.2.4,MacIntel,58.82352941,4a6c4316-4033-4298-aaa0-c585d4002c59,1,132.826,134.473,,1,,,0,8,8,29,1,X,,,,,,,,,,,
,,,,,R_911KYZQxcxhJwRP,001,2025-08-13_13h09.31.883,continuous_performance_test,2024.2.4,MacIntel,58.82352941,4a6c4316-4033-4298-aaa0-c585d4002c59,1,134.474,136.073,space,1,0.388,,0,9,9,9,1,J,space,,,,,,,,,,
,,,,,R_911KYZQxcxhJwRP,001,2025-08-13_13h09.31.883,continuous_performance_test,2024.2.4,MacIntel,58.82352941,4a6c4316-4033-4298-aaa0-c585d4002c59,1,136.074,137.773,,1,,,0,10,10,28,1,X,,,,,,,,,,,
,,,,,R_911KYZQxcxhJwRP,001,2025-08-13_13h09.31.883,continuous_performance_test,2024.2.4,MacIntel,58.82352941,4a6c4316-4033-4298-aaa0-c585d4002c59,1,137.773,139.522,,1,,,0,11,11,25,1,X,,,,,,,,,,,
,,,,,R_911KYZQxcxhJwRP,001,2025-08-13_13h09.31.883,continuous_performance_test,2024.2.4,MacIntel,58.82352941,4a6c4316-4033-4298-aaa0-c585d4002c59,1,139.523,141.473,space,1,0.653,,0,12,12,11,1,L,space,,,,,,,,,,
,,,,,R_911KYZQxcxhJwRP,001,2025-08-13_13h09.31.883,continuous_performance_test,2024.2.4,MacIntel,58.82352941,4a6c4316-4033-4298-aaa0-c585d4002c59,1,141.474,143.173,space,1,0.468,,0,13,13,12,1,M,space,,,,,,,,,,
,,,,,R_911KYZQxcxhJwRP,001,2025-08-13_13h09.31.883,continuous_performance_test,2024.2.4,MacIntel,58.82352941,4a6c4316-4033-4298-aaa0-c585d4002c59,1,143.174,145.022,space,1,0.377,,0,14,14,5,1,F,space,,,,,,,,,,
,,,,,R_911KYZQxcxhJwRP,001,2025-08-13_13h09.31.883,continuous_performance_test,2024.2.4,MacIntel,58.82352941,4a6c4316-4033-4298-aaa0-c585d4002c59,1,145.023,146.873,space,1,0.489,,0,15,15,20,1,U,space,,,,,,,,,,
,,,,,R_911KYZQxcxhJwRP,001,2025-08-13_13h09.31.883,continuous_performance_test,2024.2.4,MacIntel,58.82352941,4a6c4316-4033-4298-aaa0-c585d4002c59,1,146.874,148.873,space,1,0.561,,0,16,16,23,1,Y,space,,,,,,,,,,
,,,,,R_911KYZQxcxhJwRP,001,2025-08-13_13h09.31.883,continuous_performance_test,2024.2.4,MacIntel,58.82352941,4a6c4316-4033-4298-aaa0-c585d4002c59,1,148.874,150.724,space,1,0.509,,0,17,17,2,1,C,space,,,,,,,,,,
,,,,,R_911KYZQxcxhJwRP,001,2025-08-13_13h09.31.883,continuous_performance_test,2024.2.4,MacIntel,58.82352941,4a6c4316-4033-4298-aaa0-c585d4002c59,1,150.725,152.423,space,1,0.397,,0,18,18,17,1,R,space,,,,,,,,,,
,,,,,R_911KYZQxcxhJwRP,001,2025-08-13_13h09.31.883,continuous_performance_test,2024.2.4,MacIntel,58.82352941,4a6c4316-4033-4298-aaa0-c585d4002c59,1,152.425,153.974,space,1,0.483,,0,19,19,13,1,N,space,,,,,,,,,,
,,,,,R_911KYZQxcxhJwRP,001,2025-08-13_13h09.31.883,continuous_performance_test,2024.2.4,MacIntel,58.82352941,4a6c4316-4033-4298-aaa0-c585d4002c59,1,153.975,155.874,space,1,0.346,,0,20,20,19,1,T,space,,,,,,,,,,
,,,,,R_911KYZQxcxhJwRP,001,2025-08-13_13h09.31.883,continuous_performance_test,2024.2.4,MacIntel,58.82352941,4a6c4316-4033-4298-aaa0-c585d4002c59,1,155.875,157.873,space,1,0.478,,0,21,21,14,1,O,space,,,,,,,,,,
,,,,,R_911KYZQxcxhJwRP,001,2025-08-13_13h09.31.883,continuous_performance_test,2024.2.4,MacIntel,58.82352941,4a6c4316-4033-4298-aaa0-c585d4002c59,1,157.874,159.522,space,1,0.396,,0,22,22,0,1,A,space,,,,,,,,,,
,,,,,R_911KYZQxcxhJwRP,001,2025-08-13_13h09.31.883,continuous_performance_test,2024.2.4,MacIntel,58.82352941,4a6c4316-4033-4298-aaa0-c585d4002c59,1,159.523,161.175,space,1,0.43,,0,23,23,21,1,V,space,,,,,,,,,,
,,,,,R_911KYZQxcxhJwRP,001,2025-08-13_13h09.31.883,continuous_performance_test,2024.2.4,MacIntel,58.82352941,4a6c4316-4033-4298-aaa0-c585d4002c59,1,161.176,162.873,space,1,0.403,,0,24,24,4,1,E,space,,,,,,,,,,
,,,,,R_911KYZQxcxhJwRP,001,2025-08-13_13h09.31.883,continuous_performance_test,2024.2.4,MacIntel,58.82352941,4a6c4316-4033-4298-aaa0-c585d4002c59,1,162.873,164.773,space,1,0.697,,0,25,25,7,1,H,space,,,,,,,,,,
,,,,,R_911KYZQxcxhJwRP,001,2025-08-13_13h09.31.883,continuous_performance_test,2024.2.4,MacIntel,58.82352941,4a6c4316-4033-4298-aaa0-c585d4002c59,1,164.773,166.772,space,1,0.528,,0,26,26,8,1,I,space,,,,,,,,,,
,,,,,R_911KYZQxcxhJwRP,001,2025-08-13_13h09.31.883,continuous_performance_test,2024.2.4,MacIntel,58.82352941,4a6c4316-4033-4298-aaa0-c585d4002c59,1,166.773,168.673,,1,,,0,27,27,26,1,X,,,,,,,,,,,
,,,,,R_911KYZQxcxhJwRP,001,2025-08-13_13h09.31.883,continuous_performance_test,2024.2.4,MacIntel,58.82352941,4a6c4316-4033-4298-aaa0-c585d4002c59,1,168.674,170.423,space,1,0.382,,0,28,28,6,1,G,space,,,,,,,,,,
,,,,,R_911KYZQxcxhJwRP,001,2025-08-13_13h09.31.883,continuous_performance_test,2024.2.4,MacIntel,58.82352941,4a6c4316-4033-4298-aaa0-c585d4002c59,1,170.424,172.372,space,1,0.416,,0,29,29,1,1,B,space,,,,,,,,,,
,,,,,R_911KYZQxcxhJwRP,001,2025-08-13_13h09.31.883,continuous_performance_test,2024.2.4,MacIntel,58.82352941,4a6c4316-4033-4298-aaa0-c585d4002c59,1,177.079,178.623,space,1,0.535,,0,0,0,23,1,Y,space,172.373,177.073,space,4.647,,,,,,
,,,,,R_911KYZQxcxhJwRP,001,2025-08-13_13h09.31.883,continuous_performance_test,2024.2.4,MacIntel,58.82352941,4a6c4316-4033-4298-aaa0-c585d4002c59,1,178.623,180.523,space,1,0.377,,0,1,1,17,1,R,space,,,,,,,,,,
,,,,,R_911KYZQxcxhJwRP,001,2025-08-13_13h09.31.883,continuous_performance_test,2024.2.4,MacIntel,58.82352941,4a6c4316-4033-4298-aaa0-c585d4002c59,1,180.523,182.473,space,1,0.42,,0,2,2,12,1,M,space,,,,,,,,,,
,,,,,R_911KYZQxcxhJwRP,001,2025-08-13_13h09.31.883,continuous_performance_test,2024.2.4,MacIntel,58.82352941,4a6c4316-4033-4298-aaa0-c585d4002c59,1,182.474,184.423,space,1,0.352,,0,3,3,3,1,D,space,,,,,,,,,,
,,,,,R_911KYZQxcxhJwRP,001,2025-08-13_13h09.31.883,continuous_performance_test,2024.2.4,MacIntel,58.82352941,4a6c4316-4033-4298-aaa0-c585d4002c59,1,184.424,186.323,space,1,0.381,,0,4,4,14,1,O,space,,,,,,,,,,
,,,,,R_911KYZQxcxhJwRP,001,2025-08-13_13h09.31.883,continuous_performance_test,2024.2.4,MacIntel,58.82352941,4a6c4316-4033-4298-aaa0-c585d4002c59,1,186.324,187.922,space,1,0.48,,0,5,5,21,1,V,space,,,,,,,,,,
,,,,,R_911KYZQxcxhJwRP,001,2025-08-13_13h09.31.883,continuous_performance_test,2024.2.4,MacIntel,58.82352941,4a6c4316-4033-4298-aaa0-c585d4002c59,1,187.923,189.873,space,1,0.432,,0,6,6,24,1,Z,space,,,,,,,,,,
,,,,,R_911KYZQxcxhJwRP,001,2025-08-13_13h09.31.883,continuous_performance_test,2024.2.4,MacIntel,58.82352941,4a6c4316-4033-4298-aaa0-c585d4002c59,1,189.874,191.574,space,1,0.471,,0,7,7,15,1,P,space,,,,,,,,,,
,,,,,R_911KYZQxcxhJwRP,001,2025-08-13_13h09.31.883,continuous_performance_test,2024.2.4,MacIntel,58.82352941,4a6c4316-4033-4298-aaa0-c585d4002c59,1,191.575,193.273,space,1,0.423,,0,8,8,1,1,B,space,,,,,,,,,,
,,,,,R_911KYZQxcxhJwRP,001,2025-08-13_13h09.31.883,continuous_performance_test,2024.2.4,MacIntel,58.82352941,4a6c4316-4033-4298-aaa0-c585d4002c59,1,193.274,194.873,space,1,0.382,,0,9,9,20,1,U,space,,,,,,,,,,
,,,,,R_911KYZQxcxhJwRP,001,2025-08-13_13h09.31.883,continuous_performance_test,2024.2.4,MacIntel,58.82352941,4a6c4316-4033-4298-aaa0-c585d4002c59,1,194.874,196.473,space,0,0.41,,0,10,10,27,1,X,,,,,,,,,,,
,,,,,R_911KYZQxcxhJwRP,001,2025-08-13_13h09.31.883,continuous_performance_test,2024.2.4,MacIntel,58.82352941,4a6c4316-4033-4298-aaa0-c585d4002c59,1,196.474,198.472,space,1,0.367,,0,11,11,10,1,K,space,,,,,,,,,,
,,,,,R_911KYZQxcxhJwRP,001,2025-08-13_13h09.31.883,continuous_performance_test,2024.2.4,MacIntel,58.82352941,4a6c4316-4033-4298-aaa0-c585d4002c59,1,198.473,200.372,space,1,0.447,,0,12,12,9,1,J,space,,,,,,,,,,
,,,,,R_911KYZQxcxhJwRP,001,2025-08-13_13h09.31.883,continuous_performance_test,2024.2.4,MacIntel,58.82352941,4a6c4316-4033-4298-aaa0-c585d4002c59,1,200.373,201.923,space,1,0.415,,0,13,13,18,1,S,space,,,,,,,,,,
,,,,,R_911KYZQxcxhJwRP,001,2025-08-13_13h09.31.883,continuous_performance_test,2024.2.4,MacIntel,58.82352941,4a6c4316-4033-4298-aaa0-c585d4002c59,1,201.923,203.873,,1,,,0,14,14,28,1,X,,,,,,,,,,,
,,,,,R_911KYZQxcxhJwRP,001,2025-08-13_13h09.31.883,continuous_performance_test,2024.2.4,MacIntel,58.82352941,4a6c4316-4033-4298-aaa0-c585d4002c59,1,203.874,205.673,,1,,,0,15,15,26,1,X,,,,,,,,,,,
,,,,,R_911KYZQxcxhJwRP,001,2025-08-13_13h09.31.883,continuous_performance_test,2024.2.4,MacIntel,58.82352941,4a6c4316-4033-4298-aaa0-c585d4002c59,1,205.674,207.473,space,1,0.463,,0,16,16,13,1,N,space,,,,,,,,,,
,,,,,R_911KYZQxcxhJwRP,001,2025-08-13_13h09.31.883,continuous_performance_test,2024.2.4,MacIntel,58.82352941,4a6c4316-4033-4298-aaa0-c585d4002c59,1,207.474,209.373,space,1,0.447,,0,17,17,16,1,Q,space,,,,,,,,,,
,,,,,R_911KYZQxcxhJwRP,001,2025-08-13_13h09.31.883,continuous_performance_test,2024.2.4,MacIntel,58.82352941,4a6c4316-4033-4298-aaa0-c585d4002c59,1,209.374,211.223,,1,,,0,18,18,25,1,X,,,,,,,,,,,
,,,,,R_911KYZQxcxhJwRP,001,2025-08-13_13h09.31.883,continuous_performance_test,2024.2.4,MacIntel,58.82352941,4a6c4316-4033-4298-aaa0-c585d4002c59,1,211.224,212.923,space,1,0.465,,0,19,19,11,1,L,space,,,,,,,,,,
,,,,,R_911KYZQxcxhJwRP,001,2025-08-13_13h09.31.883,continuous_performance_test,2024.2.4,MacIntel,58.82352941,4a6c4316-4033-4298-aaa0-c585d4002c59,1,212.923,214.473,,1,,,0,20,20,29,1,X,,,,,,,,,,,
,,,,,R_911KYZQxcxhJwRP,001,2025-08-13_13h09.31.883,continuous_performance_test,2024.2.4,MacIntel,58.82352941,4a6c4316-4033-4298-aaa0-c585d4002c59,1,214.474,216.222,space,1,0.398,,0,21,21,19,1,T,space,,,,,,,,,,
,,,,,R_911KYZQxcxhJwRP,001,2025-08-13_13h09.31.883,continuous_performance_test,2024.2.4,MacIntel,58.82352941,4a6c4316-4033-4298-aaa0-c585d4002c59,1,216.223,217.924,space,1,0.502,,0,22,22,2,1,C,space,,,,,,,,,,
,,,,,R_911KYZQxcxhJwRP,001,2025-08-13_13h09.31.883,continuous_performance_test,2024.2.4,MacIntel,58.82352941,4a6c4316-4033-4298-aaa0-c585d4002c59,1,217.925,219.924,space,1,0.709,,0,23,23,0,1,A,space,,,,,,,,,,
,,,,,R_911KYZQxcxhJwRP,001,2025-08-13_13h09.31.883,continuous_performance_test,2024.2.4,MacIntel,58.82352941,4a6c4316-4033-4298-aaa0-c585d4002c59,1,219.925,221.522,space,1,0.52,,0,24,24,4,1,E,space,,,,,,,,,,
,,,,,R_911KYZQxcxhJwRP,001,2025-08-13_13h09.31.883,continuous_performance_test,2024.2.4,MacIntel,58.82352941,4a6c4316-4033-4298-aaa0-c585d4002c59,1,221.523,223.373,space,1,0.458,,0,25,25,5,1,F,space,,,,,,,,,,
,,,,,R_911KYZQxcxhJwRP,001,2025-08-13_13h09.31.883,continuous_performance_test,2024.2.4,MacIntel,58.82352941,4a6c4316-4033-4298-aaa0-c585d4002c59,1,223.374,225.124,space,1,0.431,,0,26,26,8,1,I,space,,,,,,,,,,
,,,,,R_911KYZQxcxhJwRP,001,2025-08-13_13h09.31.883,continuous_performance_test,2024.2.4,MacIntel,58.82352941,4a6c4316-4033-4298-aaa0-c585d4002c59,1,225.125,226.773,space,1,0.381,,0,27,27,6,1,G,space,,,,,,,,,,
,,,,,R_911KYZQxcxhJwRP,001,2025-08-13_13h09.31.883,continuous_performance_test,2024.2.4,MacIntel,58.82352941,4a6c4316-4033-4298-aaa0-c585d4002c59,1,226.774,228.672,space,1,0.446,,0,28,28,7,1,H,space,,,,,,,,,,
,,,,,R_911KYZQxcxhJwRP,001,2025-08-13_13h09.31.883,continuous_performance_test,2024.2.4,MacIntel,58.82352941,4a6c4316-4033-4298-aaa0-c585d4002c59,1,228.673,230.273,space,1,0.535,,0,29,29,22,1,W,space,,,,,,,,,,
,,,,,R_911KYZQxcxhJwRP,001,2025-08-13_13h09.31.883,continuous_performance_test,2024.2.4,MacIntel,58.82352941,4a6c4316-4033-4298-aaa0-c585d4002c59,1,232.558,234.306,space,1,0.448,,0,0,0,0,1,A,space,230.274,232.55,space,2.234,,,,,,
,,,,,R_911KYZQxcxhJwRP,001,2025-08-13_13h09.31.883,continuous_performance_test,2024.2.4,MacIntel,58.82352941,4a6c4316-4033-4298-aaa0-c585d4002c59,1,234.307,236.206,space,1,0.563,,0,1,1,19,1,T,space,,,,,,,,,,
,,,,,R_911KYZQxcxhJwRP,001,2025-08-13_13h09.31.883,continuous_performance_test,2024.2.4,MacIntel,58.82352941,4a6c4316-4033-4298-aaa0-c585d4002c59,1,236.207,237.756,space,1,0.588,,0,2,2,9,1,J,space,,,,,,,,,,
,,,,,R_911KYZQxcxhJwRP,001,2025-08-13_13h09.31.883,continuous_performance_test,2024.2.4,MacIntel,58.82352941,4a6c4316-4033-4298-aaa0-c585d4002c59,1,237.757,239.507,space,1,0.44,,0,3,3,18,1,S,space,,,,,,,,,,
,,,,,R_911KYZQxcxhJwRP,001,2025-08-13_13h09.31.883,continuous_performance_test,2024.2.4,MacIntel,58.82352941,4a6c4316-4033-4298-aaa0-c585d4002c59,1,239.508,241.157,space,1,0.417,,0,4,4,17,1,R,space,,,,,,,,,,
,,,,,R_911KYZQxcxhJwRP,001,2025-08-13_13h09.31.883,continuous_performance_test,2024.2.4,MacIntel,58.82352941,4a6c4316-4033-4298-aaa0-c585d4002c59,1,241.158,242.758,space,1,0.522,,0,5,5,5,1,F,space,,,,,,,,,,
,,,,,R_911KYZQxcxhJwRP,001,2025-08-13_13h09.31.883,continuous_performance_test,2024.2.4,MacIntel,58.82352941,4a6c4316-4033-4298-aaa0-c585d4002c59,1,242.759,244.358,,1,,,0,6,6,25,1,X,,,,,,,,,,,
,,,,,R_911KYZQxcxhJwRP,001,2025-08-13_13h09.31.883,continuous_performance_test,2024.2.4,MacIntel,58.82352941,4a6c4316-4033-4298-aaa0-c585d4002c59,1,244.359,246.106,space,1,0.464,,0,7,7,10,1,K,space,,,,,,,,,,
,,,,,R_911KYZQxcxhJwRP,001,2025-08-13_13h09.31.883,continuous_performance_test,2024.2.4,MacIntel,58.82352941,4a6c4316-4033-4298-aaa0-c585d4002c59,1,246.106,247.906,space,1,0.537,,0,8,8,22,1,W,space,,,,,,,,,,
,,,,,R_911KYZQxcxhJwRP,001,2025-08-13_13h09.31.883,continuous_performance_test,2024.2.4,MacIntel,58.82352941,4a6c4316-4033-4298-aaa0-c585d4002c59,1,247.906,249.606,space,1,0.602,,0,9,9,21,1,V,space,,,,,,,,,,
,,,,,R_911KYZQxcxhJwRP,001,2025-08-13_13h09.31.883,continuous_performance_test,2024.2.4,MacIntel,58.82352941,4a6c4316-4033-4298-aaa0-c585d4002c59,1,249.606,251.256,,1,,,0,10,10,26,1,X,,,,,,,,,,,
,,,,,R_911KYZQxcxhJwRP,001,2025-08-13_13h09.31.883,continuous_performance_test,2024.2.4,MacIntel,58.82352941,4a6c4316-4033-4298-aaa0-c585d4002c59,1,251.257,253.106,space,1,0.42,,0,11,11,1,1,B,space,,,,,,,,,,
,,,,,R_911KYZQxcxhJwRP,001,2025-08-13_13h09.31.883,continuous_performance_test,2024.2.4,MacIntel,58.82352941,4a6c4316-4033-4298-aaa0-c585d4002c59,1,253.107,254.707,space,1,0.418,,0,12,12,8,1,I,space,,,,,,,,,,
,,,,,R_911KYZQxcxhJwRP,001,2025-08-13_13h09.31.883,continuous_performance_test,2024.2.4,MacIntel,58.82352941,4a6c4316-4033-4298-aaa0-c585d4002c59,1,254.708,256.256,space,1,0.45,,0,13,13,24,1,Z,space,,,,,,,,,,
,,,,,R_911KYZQxcxhJwRP,001,2025-08-13_13h09.31.883,continuous_performance_test,2024.2.4,MacIntel,58.82352941,4a6c4316-4033-4298-aaa0-c585d4002c59,1,256.257,257.806,space,1,0.399,,0,14,14,3,1,D,space,,,,,,,,,,
,,,,,R_911KYZQxcxhJwRP,001,2025-08-13_13h09.31.883,continuous_performance_test,2024.2.4,MacIntel,58.82352941,4a6c4316-4033-4298-aaa0-c585d4002c59,1,257.807,259.656,space,1,0.418,,0,15,15,23,1,Y,space,,,,,,,,,,
,,,,,R_911KYZQxcxhJwRP,001,2025-08-13_13h09.31.883,continuous_performance_test,2024.2.4,MacIntel,58.82352941,4a6c4316-4033-4298-aaa0-c585d4002c59,1,259.656,261.408,space,1,0.377,,0,16,16,16,1,Q,space,,,,,,,,,,
,,,,,R_911KYZQxcxhJwRP,001,2025-08-13_13h09.31.883,continuous_performance_test,2024.2.4,MacIntel,58.82352941,4a6c4316-4033-4298-aaa0-c585d4002c59,1,261.409,263.106,space,1,0.418,,0,17,17,15,1,P,space,,,,,,,,,,
,,,,,R_911KYZQxcxhJwRP,001,2025-08-13_13h09.31.883,continuous_performance_test,2024.2.4,MacIntel,58.82352941,4a6c4316-4033-4298-aaa0-c585d4002c59,1,263.107,264.906,space,1,0.413,,0,18,18,7,1,H,space,,,,,,,,,,
,,,,,R_911KYZQxcxhJwRP,001,2025-08-13_13h09.31.883,continuous_performance_test,2024.2.4,MacIntel,58.82352941,4a6c4316-4033-4298-aaa0-c585d4002c59,1,264.908,266.556,space,1,0.416,,0,19,19,11,1,L,space,,,,,,,,,,
,,,,,R_911KYZQxcxhJwRP,001,2025-08-13_13h09.31.883,continuous_performance_test,2024.2.4,MacIntel,58.82352941,4a6c4316-4033-4298-aaa0-c585d4002c59,1,266.557,268.459,space,1,0.376,,0,20,20,6,1,G,space,,,,,,,,,,
,,,,,R_911KYZQxcxhJwRP,001,2025-08-13_13h09.31.883,continuous_performance_test,2024.2.4,MacIntel,58.82352941,4a6c4316-4033-4298-aaa0-c585d4002c59,1,268.459,270.006,space,1,0.45,,0,21,21,20,1,U,space,,,,,,,,,,
,,,,,R_911KYZQxcxhJwRP,001,2025-08-13_13h09.31.883,continuous_performance_test,2024.2.4,MacIntel,58.82352941,4a6c4316-4033-4298-aaa0-c585d4002c59,1,270.006,271.757,space,1,0.418,,0,22,22,4,1,E,space,,,,,,,,,,
,,,,,R_911KYZQxcxhJwRP,001,2025-08-13_13h09.31.883,continuous_performance_test,2024.2.4,MacIntel,58.82352941,4a6c4316-4033-4298-aaa0-c585d4002c59,1,271.757,273.656,,1,,,0,23,23,29,1,X,,,,,,,,,,,
,,,,,R_911KYZQxcxhJwRP,001,2025-08-13_13h09.31.883,continuous_performance_test,2024.2.4,MacIntel,58.82352941,4a6c4316-4033-4298-aaa0-c585d4002c59,1,273.657,275.207,space,1,0.45,,0,24,24,13,1,N,space,,,,,,,,,,
,,,,,R_911KYZQxcxhJwRP,001,2025-08-13_13h09.31.883,continuous_performance_test,2024.2.4,MacIntel,58.82352941,4a6c4316-4033-4298-aaa0-c585d4002c59,1,275.208,276.907,space,1,0.439,,0,25,25,2,1,C,space,,,,,,,,,,
,,,,,R_911KYZQxcxhJwRP,001,2025-08-13_13h09.31.883,continuous_performance_test,2024.2.4,MacIntel,58.82352941,4a6c4316-4033-4298-aaa0-c585d4002c59,1,276.907,278.806,,1,,,0,26,26,27,1,X,,,,,,,,,,,
,,,,,R_911KYZQxcxhJwRP,001,2025-08-13_13h09.31.883,continuous_performance_test,2024.2.4,MacIntel,58.82352941,4a6c4316-4033-4298-aaa0-c585d4002c59,1,278.806,280.656,space,1,0.502,,0,27,27,14,1,O,space,,,,,,,,,,
,,,,,R_911KYZQxcxhJwRP,001,2025-08-13_13h09.31.883,continuous_performance_test,2024.2.4,MacIntel,58.82352941,4a6c4316-4033-4298-aaa0-c585d4002c59,1,280.657,282.356,,1,,,0,28,28,28,1,X,,,,,,,,,,,
,,,,,R_911KYZQxcxhJwRP,001,2025-08-13_13h09.31.883,continuous_performance_test,2024.2.4,MacIntel,58.82352941,4a6c4316-4033-4298-aaa0-c585d4002c59,1,282.357,284.306,space,1,0.594,,0,29,29,12,1,M,space,,,,,,,,,,
,,,,,R_911KYZQxcxhJwRP,001,2025-08-13_13h09.31.883,continuous_performance_test,2024.2.4,MacIntel,58.82352941,4a6c4316-4033-4298-aaa0-c585d4002c59,1,286.296,287.939,space,1,0.618,,0,0,0,6,1,G,space,284.307,286.289,space,1.931,,,,,,
,,,,,R_911KYZQxcxhJwRP,001,2025-08-13_13h09.31.883,continuous_performance_test,2024.2.4,MacIntel,58.82352941,4a6c4316-4033-4298-aaa0-c585d4002c59,1,287.94,289.739,space,1,0.536,,0,1,1,10,1,K,space,,,,,,,,,,
,,,,,R_911KYZQxcxhJwRP,001,2025-08-13_13h09.31.883,continuous_performance_test,2024.2.4,MacIntel,58.82352941,4a6c4316-4033-4298-aaa0-c585d4002c59,1,289.74,291.49,space,1,0.576,,0,2,2,23,1,Y,space,,,,,,,,,,
,,,,,R_911KYZQxcxhJwRP,001,2025-08-13_13h09.31.883,continuous_performance_test,2024.2.4,MacIntel,58.82352941,4a6c4316-4033-4298-aaa0-c585d4002c59,1,291.491,293.389,space,1,0.448,,0,3,3,4,1,E,space,,,,,,,,,,
,,,,,R_911KYZQxcxhJwRP,001,2025-08-13_13h09.31.883,continuous_performance_test,2024.2.4,MacIntel,58.82352941,4a6c4316-4033-4298-aaa0-c585d4002c59,1,293.39,295.106,space,1,0.436,,0,4,4,11,1,L,space,,,,,,,,,,
,,,,,R_911KYZQxcxhJwRP,001,2025-08-13_13h09.31.883,continuous_performance_test,2024.2.4,MacIntel,58.82352941,4a6c4316-4033-4298-aaa0-c585d4002c59,1,295.107,297.106,space,1,0.477,,0,5,5,20,1,U,space,,,,,,,,,,
,,,,,R_911KYZQxcxhJwRP,001,2025-08-13_13h09.31.883,continuous_performance_test,2024.2.4,MacIntel,58.82352941,4a6c4316-4033-4298-aaa0-c585d4002c59,1,297.107,298.957,space,0,0.381,,0,6,6,29,1,X,,,,,,,,,,,
,,,,,R_911KYZQxcxhJwRP,001,2025-08-13_13h09.31.883,continuous_performance_test,2024.2.4,MacIntel,58.82352941,4a6c4316-4033-4298-aaa0-c585d4002c59,1,298.958,300.806,space,1,0.414,,0,7,7,8,1,I,space,,,,,,,,,,
,,,,,R_911KYZQxcxhJwRP,001,2025-08-13_13h09.31.883,continuous_performance_test,2024.2.4,MacIntel,58.82352941,4a6c4316-4033-4298-aaa0-c585d4002c59,1,300.807,302.407,,1,,,0,8,8,25,1,X,,,,,,,,,,,
,,,,,R_911KYZQxcxhJwRP,001,2025-08-13_13h09.31.883,continuous_performance_test,2024.2.4,MacIntel,58.82352941,4a6c4316-4033-4298-aaa0-c585d4002c59,1,302.408,304.308,space,1,0.462,,0,9,9,0,1,A,space,,,,,,,,,,
,,,,,R_911KYZQxcxhJwRP,001,2025-08-13_13h09.31.883,continuous_performance_test,2024.2.4,MacIntel,58.82352941,4a6c4316-4033-4298-aaa0-c585d4002c59,1,304.309,306.306,,1,,,0,10,10,27,1,X,,,,,,,,,,,
,,,,,R_911KYZQxcxhJwRP,001,2025-08-13_13h09.31.883,continuous_performance_test,2024.2.4,MacIntel,58.82352941,4a6c4316-4033-4298-aaa0-c585d4002c59,1,306.307,308.208,space,1,0.649,,0,11,11,16,1,Q,space,,,,,,,,,,
,,,,,R_911KYZQxcxhJwRP,001,2025-08-13_13h09.31.883,continuous_performance_test,2024.2.4,MacIntel,58.82352941,4a6c4316-4033-4298-aaa0-c585d4002c59,1,308.209,310.21,space,1,0.547,,0,12,12,15,1,P,space,,,,,,,,,,
,,,,,R_911KYZQxcxhJwRP,001,2025-08-13_13h09.31.883,continuous_performance_test,2024.2.4,MacIntel,58.82352941,4a6c4316-4033-4298-aaa0-c585d4002c59,1,310.211,312.107,space,1,0.571,,0,13,13,3,1,D,space,,,,,,,,,,
,,,,,R_911KYZQxcxhJwRP,001,2025-08-13_13h09.31.883,continuous_performance_test,2024.2.4,MacIntel,58.82352941,4a6c4316-4033-4298-aaa0-c585d4002c59,1,312.107,313.806,space,1,0.534,,0,14,14,19,1,T,space,,,,,,,,,,
,,,,,R_911KYZQxcxhJwRP,001,2025-08-13_13h09.31.883,continuous_performance_test,2024.2.4,MacIntel,58.82352941,4a6c4316-4033-4298-aaa0-c585d4002c59,1,313.806,315.807,,1,,,0,15,15,28,1,X,,,,,,,,,,,
,,,,,R_911KYZQxcxhJwRP,001,2025-08-13_13h09.31.883,continuous_performance_test,2024.2.4,MacIntel,58.82352941,4a6c4316-4033-4298-aaa0-c585d4002c59,1,315.808,317.457,space,1,0.482,,0,16,16,17,1,R,space,,,,,,,,,,
,,,,,R_911KYZQxcxhJwRP,001,2025-08-13_13h09.31.883,continuous_performance_test,2024.2.4,MacIntel,58.82352941,4a6c4316-4033-4298-aaa0-c585d4002c59,1,317.457,319.456,space,1,0.531,,0,17,17,2,1,C,space,,,,,,,,,,
,,,,,R_911KYZQxcxhJwRP,001,2025-08-13_13h09.31.883,continuous_performance_test,2024.2.4,MacIntel,58.82352941,4a6c4316-4033-4298-aaa0-c585d4002c59,1,319.457,321.206,space,1,0.569,,0,18,18,7,1,H,space,,,,,,,,,,
,,,,,R_911KYZQxcxhJwRP,001,2025-08-13_13h09.31.883,continuous_performance_test,2024.2.4,MacIntel,58.82352941,4a6c4316-4033-4298-aaa0-c585d4002c59,1,321.207,322.906,space,1,0.497,,0,19,19,12,1,M,space,,,,,,,,,,
,,,,,R_911KYZQxcxhJwRP,001,2025-08-13_13h09.31.883,continuous_performance_test,2024.2.4,MacIntel,58.82352941,4a6c4316-4033-4298-aaa0-c585d4002c59,1,322.907,324.757,space,1,0.44,,0,20,20,9,1,J,space,,,,,,,,,,
,,,,,R_911KYZQxcxhJwRP,001,2025-08-13_13h09.31.883,continuous_performance_test,2024.2.4,MacIntel,58.82352941,4a6c4316-4033-4298-aaa0-c585d4002c59,1,324.758,326.706,space,1,0.5,,0,21,21,18,1,S,space,,,,,,,,,,
,,,,,R_911KYZQxcxhJwRP,001,2025-08-13_13h09.31.883,continuous_performance_test,2024.2.4,MacIntel,58.82352941,4a6c4316-4033-4298-aaa0-c585d4002c59,1,326.706,328.606,space,1,0.532,,0,22,22,24,1,Z,space,,,,,,,,,,
,,,,,R_911KYZQxcxhJwRP,001,2025-08-13_13h09.31.883,continuous_performance_test,2024.2.4,MacIntel,58.82352941,4a6c4316-4033-4298-aaa0-c585d4002c59,1,328.607,330.257,,1,,,0,23,23,26,1,X,,,,,,,,,,,
,,,,,R_911KYZQxcxhJwRP,001,2025-08-13_13h09.31.883,continuous_performance_test,2024.2.4,MacIntel,58.82352941,4a6c4316-4033-4298-aaa0-c585d4002c59,1,330.257,332.156,space,1,0.547,,0,24,24,5,1,F,space,,,,,,,,,,
,,,,,R_911KYZQxcxhJwRP,001,2025-08-13_13h09.31.883,continuous_performance_test,2024.2.4,MacIntel,58.82352941,4a6c4316-4033-4298-aaa0-c585d4002c59,1,332.156,333.956,space,1,0.431,,0,25,25,13,1,N,space,,,,,,,,,,
,,,,,R_911KYZQxcxhJwRP,001,2025-08-13_13h09.31.883,continuous_performance_test,2024.2.4,MacIntel,58.82352941,4a6c4316-4033-4298-aaa0-c585d4002c59,1,333.957,335.856,space,1,0.478,,0,26,26,1,1,B,space,,,,,,,,,,
,,,,,R_911KYZQxcxhJwRP,001,2025-08-13_13h09.31.883,continuous_performance_test,2024.2.4,MacIntel,58.82352941,4a6c4316-4033-4298-aaa0-c585d4002c59,1,335.857,337.456,space,1,0.384,,0,27,27,22,1,W,space,,,,,,,,,,
,,,,,R_911KYZQxcxhJwRP,001,2025-08-13_13h09.31.883,continuous_performance_test,2024.2.4,MacIntel,58.82352941,4a6c4316-4033-4298-aaa0-c585d4002c59,1,337.457,339.408,space,1,0.401,,0,28,28,14,1,O,space,,,,,,,,,,
,,,,,R_911KYZQxcxhJwRP,001,2025-08-13_13h09.31.883,continuous_performance_test,2024.2.4,MacIntel,58.82352941,4a6c4316-4033-4298-aaa0-c585d4002c59,1,339.409,341.006,space,1,0.433,,0,29,29,21,1,V,space,,,,,,,,,,
,,,,,R_911KYZQxcxhJwRP,001,2025-08-13_13h09.31.883,continuous_performance_test,2024.2.4,MacIntel,58.82352941,4a6c4316-4033-4298-aaa0-c585d4002c59,1,343.079,344.723,space,1,0.502,,0,0,0,8,1,I,space,341.007,343.073,space,2.022,,,,,,
,,,,,R_911KYZQxcxhJwRP,001,2025-08-13_13h09.31.883,continuous_performance_test,2024.2.4,MacIntel,58.82352941,4a6c4316-4033-4298-aaa0-c585d4002c59,1,344.724,346.472,space,1,0.365,,0,1,1,14,1,O,space,,,,,,,,,,
,,,,,R_911KYZQxcxhJwRP,001,2025-08-13_13h09.31.883,continuous_performance_test,2024.2.4,MacIntel,58.82352941,4a6c4316-4033-4298-aaa0-c585d4002c59,1,346.473,348.472,space,1,0.475,,0,2,2,12,1,M,space,,,,,,,,,,
,,,,,R_911KYZQxcxhJwRP,001,2025-08-13_13h09.31.883,continuous_performance_test,2024.2.4,MacIntel,58.82352941,4a6c4316-4033-4298-aaa0-c585d4002c59,1,348.473,350.023,space,1,0.432,,0,3,3,4,1,E,space,,,,,,,,,,
,,,,,R_911KYZQxcxhJwRP,001,2025-08-13_13h09.31.883,continuous_performance_test,2024.2.4,MacIntel,58.82352941,4a6c4316-4033-4298-aaa0-c585d4002c59,1,350.024,351.622,,1,,,0,4,4,26,1,X,,,,,,,,,,,
,,,,,R_911KYZQxcxhJwRP,001,2025-08-13_13h09.31.883,continuous_performance_test,2024.2.4,MacIntel,58.82352941,4a6c4316-4033-4298-aaa0-c585d4002c59,1,351.623,353.523,space,1,0.697,,0,5,5,6,1,G,space,,,,,,,,,,
,,,,,R_911KYZQxcxhJwRP,001,2025-08-13_13h09.31.883,continuous_performance_test,2024.2.4,MacIntel,58.82352941,4a6c4316-4033-4298-aaa0-c585d4002c59,1,353.524,355.423,space,1,0.451,,0,6,6,18,1,S,space,,,,,,,,,,
,,,,,R_911KYZQxcxhJwRP,001,2025-08-13_13h09.31.883,continuous_performance_test,2024.2.4,MacIntel,58.82352941,4a6c4316-4033-4298-aaa0-c585d4002c59,1,355.424,357.123,space,1,0.405,,0,7,7,13,1,N,space,,,,,,,,,,
,,,,,R_911KYZQxcxhJwRP,001,2025-08-13_13h09.31.883,continuous_performance_test,2024.2.4,MacIntel,58.82352941,4a6c4316-4033-4298-aaa0-c585d4002c59,1,357.124,359.124,space,1,0.485,,0,8,8,22,1,W,space,,,,,,,,,,
,,,,,R_911KYZQxcxhJwRP,001,2025-08-13_13h09.31.883,continuous_performance_test,2024.2.4,MacIntel,58.82352941,4a6c4316-4033-4298-aaa0-c585d4002c59,1,359.125,360.723,space,1,0.416,,0,9,9,17,1,R,space,,,,,,,,,,
,,,,,R_911KYZQxcxhJwRP,001,2025-08-13_13h09.31.883,continuous_performance_test,2024.2.4,MacIntel,58.82352941,4a6c4316-4033-4298-aaa0-c585d4002c59,1,360.724,362.373,space,1,0.42,,0,10,10,23,1,Y,space,,,,,,,,,,
,,,,,R_911KYZQxcxhJwRP,001,2025-08-13_13h09.31.883,continuous_performance_test,2024.2.4,MacIntel,58.82352941,4a6c4316-4033-4298-aaa0-c585d4002c59,1,362.373,364.223,space,1,0.581,,0,11,11,16,1,Q,space,,,,,,,,,,
,,,,,R_911KYZQxcxhJwRP,001,2025-08-13_13h09.31.883,continuous_performance_test,2024.2.4,MacIntel,58.82352941,4a6c4316-4033-4298-aaa0-c585d4002c59,1,364.224,366.173,space,1,0.53,,0,12,12,24,1,Z,space,,,,,,,,,,
,,,,,R_911KYZQxcxhJwRP,001,2025-08-13_13h09.31.883,continuous_performance_test,2024.2.4,MacIntel,58.82352941,4a6c4316-4033-4298-aaa0-c585d4002c59,1,366.173,368.074,,1,,,0,13,13,25,1,X,,,,,,,,,,,
,,,,,R_911KYZQxcxhJwRP,001,2025-08-13_13h09.31.883,continuous_performance_test,2024.2.4,MacIntel,58.82352941,4a6c4316-4033-4298-aaa0-c585d4002c59,1,368.074,369.723,space,1,0.464,,0,14,14,3,1,D,space,,,,,,,,,,
,,,,,R_911KYZQxcxhJwRP,001,2025-08-13_13h09.31.883,continuous_performance_test,2024.2.4,MacIntel,58.82352941,4a6c4316-4033-4298-aaa0-c585d4002c59,1,369.724,371.423,space,1,0.515,,0,15,15,9,1,J,space,,,,,,,,,,
,,,,,R_911KYZQxcxhJwRP,001,2025-08-13_13h09.31.883,continuous_performance_test,2024.2.4,MacIntel,58.82352941,4a6c4316-4033-4298-aaa0-c585d4002c59,1,371.424,373.323,,1,,,0,16,16,27,1,X,,,,,,,,,,,
,,,,,R_911KYZQxcxhJwRP,001,2025-08-13_13h09.31.883,continuous_performance_test,2024.2.4,MacIntel,58.82352941,4a6c4316-4033-4298-aaa0-c585d4002c59,1,373.324,374.911,space,1,0.563,,0,17,17,11,1,L,space,,,,,,,,,,
,,,,,R_911KYZQxcxhJwRP,001,2025-08-13_13h09.31.883,continuous_performance_test,2024.2.4,MacIntel,58.82352941,4a6c4316-4033-4298-aaa0-c585d4002c59,1,374.911,376.806,space,1,0.475,,0,18,18,1,1,B,space,,,,,,,,,,
,,,,,R_911KYZQxcxhJwRP,001,2025-08-13_13h09.31.883,continuous_performance_test,2024.2.4,MacIntel,58.82352941,4a6c4316-4033-4298-aaa0-c585d4002c59,1,376.807,378.657,space,1,0.403,,0,19,19,21,1,V,space,,,,,,,,,,
,,,,,R_911KYZQxcxhJwRP,001,2025-08-13_13h09.31.883,continuous_performance_test,2024.2.4,MacIntel,58.82352941,4a6c4316-4033-4298-aaa0-c585d4002c59,1,378.658,380.607,space,1,0.395,,0,20,20,5,1,F,space,,,,,,,,,,
,,,,,R_911KYZQxcxhJwRP,001,2025-08-13_13h09.31.883,continuous_performance_test,2024.2.4,MacIntel,58.82352941,4a6c4316-4033-4298-aaa0-c585d4002c59,1,380.607,382.507,space,1,0.487,,0,21,21,0,1,A,space,,,,,,,,,,
,,,,,R_911KYZQxcxhJwRP,001,2025-08-13_13h09.31.883,continuous_performance_test,2024.2.4,MacIntel,58.82352941,4a6c4316-4033-4298-aaa0-c585d4002c59,1,382.508,384.106,space,1,0.469,,0,22,22,15,1,P,space,,,,,,,,,,
,,,,,R_911KYZQxcxhJwRP,001,2025-08-13_13h09.31.883,continuous_performance_test,2024.2.4,MacIntel,58.82352941,4a6c4316-4033-4298-aaa0-c585d4002c59,1,384.107,386.107,,1,,,0,23,23,29,1,X,,,,,,,,,,,
,,,,,R_911KYZQxcxhJwRP,001,2025-08-13_13h09.31.883,continuous_performance_test,2024.2.4,MacIntel,58.82352941,4a6c4316-4033-4298-aaa0-c585d4002c59,1,386.107,387.807,space,1,0.471,,0,24,24,20,1,U,space,,,,,,,,,,
,,,,,R_911KYZQxcxhJwRP,001,2025-08-13_13h09.31.883,continuous_performance_test,2024.2.4,MacIntel,58.82352941,4a6c4316-4033-4298-aaa0-c585d4002c59,1,387.807,389.457,space,1,0.654,,0,25,25,2,1,C,space,,,,,,,,,,
,,,,,R_911KYZQxcxhJwRP,001,2025-08-13_13h09.31.883,continuous_performance_test,2024.2.4,MacIntel,58.82352941,4a6c4316-4033-4298-aaa0-c585d4002c59,1,389.458,391.406,space,1,0.67,,0,26,26,10,1,K,space,,,,,,,,,,
,,,,,R_911KYZQxcxhJwRP,001,2025-08-13_13h09.31.883,continuous_performance_test,2024.2.4,MacIntel,58.82352941,4a6c4316-4033-4298-aaa0-c585d4002c59,1,391.407,393.106,space,1,0.552,,0,27,27,19,1,T,space,,,,,,,,,,
,,,,,R_911KYZQxcxhJwRP,001,2025-08-13_13h09.31.883,continuous_performance_test,2024.2.4,MacIntel,58.82352941,4a6c4316-4033-4298-aaa0-c585d4002c59,1,393.107,394.657,,1,,,0,28,28,28,1,X,,,,,,,,,,,
,,,,,R_911KYZQxcxhJwRP,001,2025-08-13_13h09.31.883,continuous_performance_test,2024.2.4,MacIntel,58.82352941,4a6c4316-4033-4298-aaa0-c585d4002c59,1,394.657,396.256,space,1,0.556,,0,29,29,7,1,H,space,,,,,,,,,,
,,,,,R_911KYZQxcxhJwRP,001,2025-08-13_13h09.31.883,continuous_performance_test,2024.2.4,MacIntel,58.82352941,4a6c4316-4033-4298-aaa0-c585d4002c59,1,398.163,399.958,,1,,,0,0,0,27,1,X,,396.256,398.157,space,1.86,,,,,,
,,,,,R_911KYZQxcxhJwRP,001,2025-08-13_13h09.31.883,continuous_performance_test,2024.2.4,MacIntel,58.82352941,4a6c4316-4033-4298-aaa0-c585d4002c59,1,399.959,401.708,space,1,0.57,,0,1,1,11,1,L,space,,,,,,,,,,
,,,,,R_911KYZQxcxhJwRP,001,2025-08-13_13h09.31.883,continuous_performance_test,2024.2.4,MacIntel,58.82352941,4a6c4316-4033-4298-aaa0-c585d4002c59,1,401.709,403.707,space,1,0.398,,0,2,2,4,1,E,space,,,,,,,,,,
,,,,,R_911KYZQxcxhJwRP,001,2025-08-13_13h09.31.883,continuous_performance_test,2024.2.4,MacIntel,58.82352941,4a6c4316-4033-4298-aaa0-c585d4002c59,1,403.708,405.507,space,1,0.373,,0,3,3,17,1,R,space,,,,,,,,,,
,,,,,R_911KYZQxcxhJwRP,001,2025-08-13_13h09.31.883,continuous_performance_test,2024.2.4,MacIntel,58.82352941,4a6c4316-4033-4298-aaa0-c585d4002c59,1,405.508,407.307,space,1,0.351,,0,4,4,0,1,A,space,,,,,,,,,,
,,,,,R_911KYZQxcxhJwRP,001,2025-08-13_13h09.31.883,continuous_performance_test,2024.2.4,MacIntel,58.82352941,4a6c4316-4033-4298-aaa0-c585d4002c59,1,407.308,409.106,space,1,0.374,,0,5,5,10,1,K,space,,,,,,,,,,
,,,,,R_911KYZQxcxhJwRP,001,2025-08-13_13h09.31.883,continuous_performance_test,2024.2.4,MacIntel,58.82352941,4a6c4316-4033-4298-aaa0-c585d4002c59,1,409.107,410.806,space,1,0.388,,0,6,6,2,1,C,space,,,,,,,,,,
,,,,,R_911KYZQxcxhJwRP,001,2025-08-13_13h09.31.883,continuous_performance_test,2024.2.4,MacIntel,58.82352941,4a6c4316-4033-4298-aaa0-c585d4002c59,1,410.807,412.656,space,1,0.426,,0,7,7,14,1,O,space,,,,,,,,,,
,,,,,R_911KYZQxcxhJwRP,001,2025-08-13_13h09.31.883,continuous_performance_test,2024.2.4,MacIntel,58.82352941,4a6c4316-4033-4298-aaa0-c585d4002c59,1,412.656,414.557,space,1,0.382,,0,8,8,21,1,V,space,,,,,,,,,,
,,,,,R_911KYZQxcxhJwRP,001,2025-08-13_13h09.31.883,continuous_performance_test,2024.2.4,MacIntel,58.82352941,4a6c4316-4033-4298-aaa0-c585d4002c59,1,414.557,416.407,space,1,0.399,,0,9,9,13,1,N,space,,,,,,,,,,
,,,,,R_911KYZQxcxhJwRP,001,2025-08-13_13h09.31.883,continuous_performance_test,2024.2.4,MacIntel,58.82352941,4a6c4316-4033-4298-aaa0-c585d4002c59,1,416.407,417.958,space,1,0.416,,0,10,10,8,1,I,space,,,,,,,,,,
,,,,,R_911KYZQxcxhJwRP,001,2025-08-13_13h09.31.883,continuous_performance_test,2024.2.4,MacIntel,58.82352941,4a6c4316-4033-4298-aaa0-c585d4002c59,1,417.959,419.639,space,1,0.45,,0,11,11,16,1,Q,space,,,,,,,,,,
,,,,,R_911KYZQxcxhJwRP,001,2025-08-13_13h09.31.883,continuous_performance_test,2024.2.4,MacIntel,58.82352941,4a6c4316-4033-4298-aaa0-c585d4002c59,1,419.64,421.539,space,1,0.387,,0,12,12,7,1,H,space,,,,,,,,,,
,,,,,R_911KYZQxcxhJwRP,001,2025-08-13_13h09.31.883,continuous_performance_test,2024.2.4,MacIntel,58.82352941,4a6c4316-4033-4298-aaa0-c585d4002c59,1,421.54,423.24,space,1,0.372,,0,13,13,22,1,W,space,,,,,,,,,,
,,,,,R_911KYZQxcxhJwRP,001,2025-08-13_13h09.31.883,continuous_performance_test,2024.2.4,MacIntel,58.82352941,4a6c4316-4033-4298-aaa0-c585d4002c59,1,423.241,424.989,space,1,0.366,,0,14,14,12,1,M,space,,,,,,,,,,
,,,,,R_911KYZQxcxhJwRP,001,2025-08-13_13h09.31.883,continuous_performance_test,2024.2.4,MacIntel,58.82352941,4a6c4316-4033-4298-aaa0-c585d4002c59,1,424.99,426.74,space,1,0.419,,0,15,15,3,1,D,space,,,,,,,,,,
,,,,,R_911KYZQxcxhJwRP,001,2025-08-13_13h09.31.883,continuous_performance_test,2024.2.4,MacIntel,58.82352941,4a6c4316-4033-4298-aaa0-c585d4002c59,1,426.741,428.69,,1,,,0,16,16,26,1,X,,,,,,,,,,,
,,,,,R_911KYZQxcxhJwRP,001,2025-08-13_13h09.31.883,continuous_performance_test,2024.2.4,MacIntel,58.82352941,4a6c4316-4033-4298-aaa0-c585d4002c59,1,428.691,430.64,space,1,0.391,,0,17,17,9,1,J,space,,,,,,,,,,
,,,,,R_911KYZQxcxhJwRP,001,2025-08-13_13h09.31.883,continuous_performance_test,2024.2.4,MacIntel,58.82352941,4a6c4316-4033-4298-aaa0-c585d4002c59,1,430.641,432.639,space,1,0.57,,0,18,18,5,1,F,space,,,,,,,,,,
,,,,,R_911KYZQxcxhJwRP,001,2025-08-13_13h09.31.883,continuous_performance_test,2024.2.4,MacIntel,58.82352941,4a6c4316-4033-4298-aaa0-c585d4002c59,1,432.64,434.24,,1,,,0,19,19,29,1,X,,,,,,,,,,,
,,,,,R_911KYZQxcxhJwRP,001,2025-08-13_13h09.31.883,continuous_performance_test,2024.2.4,MacIntel,58.82352941,4a6c4316-4033-4298-aaa0-c585d4002c59,1,434.241,436.239,,1,,,0,20,20,25,1,X,,,,,,,,,,,
,,,,,R_911KYZQxcxhJwRP,001,2025-08-13_13h09.31.883,continuous_performance_test,2024.2.4,MacIntel,58.82352941,4a6c4316-4033-4298-aaa0-c585d4002c59,1,436.24,438.239,space,1,0.406,,0,21,21,23,1,Y,space,,,,,,,,,,
,,,,,R_911KYZQxcxhJwRP,001,2025-08-13_13h09.31.883,continuous_performance_test,2024.2.4,MacIntel,58.82352941,4a6c4316-4033-4298-aaa0-c585d4002c59,1,438.24,439.939,space,1,0.413,,0,22,22,19,1,T,space,,,,,,,,,,
,,,,,R_911KYZQxcxhJwRP,001,2025-08-13_13h09.31.883,continuous_performance_test,2024.2.4,MacIntel,58.82352941,4a6c4316-4033-4298-aaa0-c585d4002c59,1,439.94,441.589,,1,,,0,23,23,28,1,X,,,,,,,,,,,
,,,,,R_911KYZQxcxhJwRP,001,2025-08-13_13h09.31.883,continuous_performance_test,2024.2.4,MacIntel,58.82352941,4a6c4316-4033-4298-aaa0-c585d4002c59,1,441.59,443.14,space,1,0.417,,0,24,24,24,1,Z,space,,,,,,,,,,
,,,,,R_911KYZQxcxhJwRP,001,2025-08-13_13h09.31.883,continuous_performance_test,2024.2.4,MacIntel,58.82352941,4a6c4316-4033-4298-aaa0-c585d4002c59,1,443.14,444.89,space,1,0.49,,0,25,25,1,1,B,space,,,,,,,,,,
,,,,,R_911KYZQxcxhJwRP,001,2025-08-13_13h09.31.883,continuous_performance_test,2024.2.4,MacIntel,58.82352941,4a6c4316-4033-4298-aaa0-c585d4002c59,1,444.89,446.69,space,1,0.502,,0,26,26,18,1,S,space,,,,,,,,,,
,,,,,R_911KYZQxcxhJwRP,001,2025-08-13_13h09.31.883,continuous_performance_test,2024.2.4,MacIntel,58.82352941,4a6c4316-4033-4298-aaa0-c585d4002c59,1,446.69,448.239,space,1,0.453,,0,27,27,15,1,P,space,,,,,,,,,,
,,,,,R_911KYZQxcxhJwRP,001,2025-08-13_13h09.31.883,continuous_performance_test,2024.2.4,MacIntel,58.82352941,4a6c4316-4033-4298-aaa0-c585d4002c59,1,448.24,450.039,space,1,0.438,,0,28,28,20,1,U,space,,,,,,,,,,
,,,,,R_911KYZQxcxhJwRP,001,2025-08-13_13h09.31.883,continuous_performance_test,2024.2.4,MacIntel,58.82352941,4a6c4316-4033-4298-aaa0-c585d4002c59,1,450.04,452.039,space,1,0.548,,0,29,29,6,1,G,space,,,,,,,,,,
,,,,,R_911KYZQxcxhJwRP,001,2025-08-13_13h09.31.883,continuous_performance_test,2024.2.4,MacIntel,58.82352941,4a6c4316-4033-4298-aaa0-c585d4002c59,1,453.949,455.49,,1,,,0,0,0,26,1,X,,452.04,453.94,space,1.864,,,,,,
,,,,,R_911KYZQxcxhJwRP,001,2025-08-13_13h09.31.883,continuous_performance_test,2024.2.4,MacIntel,58.82352941,4a6c4316-4033-4298-aaa0-c585d4002c59,1,455.49,457.14,space,1,0.344,,0,1,1,5,1,F,space,,,,,,,,,,
,,,,,R_911KYZQxcxhJwRP,001,2025-08-13_13h09.31.883,continuous_performance_test,2024.2.4,MacIntel,58.82352941,4a6c4316-4033-4298-aaa0-c585d4002c59,1,457.141,459.14,space,1,0.454,,0,2,2,1,1,B,space,,,,,,,,,,
,,,,,R_911KYZQxcxhJwRP,001,2025-08-13_13h09.31.883,continuous_performance_test,2024.2.4,MacIntel,58.82352941,4a6c4316-4033-4298-aaa0-c585d4002c59,1,459.141,460.939,space,1,0.384,,0,3,3,12,1,M,space,,,,,,,,,,
,,,,,R_911KYZQxcxhJwRP,001,2025-08-13_13h09.31.883,continuous_performance_test,2024.2.4,MacIntel,58.82352941,4a6c4316-4033-4298-aaa0-c585d4002c59,1,460.94,462.739,space,1,0.371,,0,4,4,20,1,U,space,,,,,,,,,,
,,,,,R_911KYZQxcxhJwRP,001,2025-08-13_13h09.31.883,continuous_performance_test,2024.2.4,MacIntel,58.82352941,4a6c4316-4033-4298-aaa0-c585d4002c59,1,462.74,464.739,,1,,,0,5,5,25,1,X,,,,,,,,,,,
,,,,,R_911KYZQxcxhJwRP,001,2025-08-13_13h09.31.883,continuous_performance_test,2024.2.4,MacIntel,58.82352941,4a6c4316-4033-4298-aaa0-c585d4002c59,1,464.74,466.389,space,1,0.38,,0,6,6,21,1,V,space,,,,,,,,,,
,,,,,R_911KYZQxcxhJwRP,001,2025-08-13_13h09.31.883,continuous_performance_test,2024.2.4,MacIntel,58.82352941,4a6c4316-4033-4298-aaa0-c585d4002c59,1,466.39,468.339,space,1,0.404,,0,7,7,22,1,W,space,,,,,,,,,,
,,,,,R_911KYZQxcxhJwRP,001,2025-08-13_13h09.31.883,continuous_performance_test,2024.2.4,MacIntel,58.82352941,4a6c4316-4033-4298-aaa0-c585d4002c59,1,468.34,470.24,space,1,0.41,,0,8,8,17,1,R,space,,,,,,,,,,
,,,,,R_911KYZQxcxhJwRP,001,2025-08-13_13h09.31.883,continuous_performance_test,2024.2.4,MacIntel,58.82352941,4a6c4316-4033-4298-aaa0-c585d4002c59,1,470.24,471.989,space,1,0.414,,0,9,9,16,1,Q,space,,,,,,,,,,
,,,,,R_911KYZQxcxhJwRP,001,2025-08-13_13h09.31.883,continuous_performance_test,2024.2.4,MacIntel,58.82352941,4a6c4316-4033-4298-aaa0-c585d4002c59,1,471.99,473.539,space,1,0.446,,0,10,10,18,1,S,space,,,,,,,,,,
,,,,,R_911KYZQxcxhJwRP,001,2025-08-13_13h09.31.883,continuous_performance_test,2024.2.4,MacIntel,58.82352941,4a6c4316-4033-4298-aaa0-c585d4002c59,1,473.54,475.29,space,1,0.394,,0,11,11,23,1,Y,space,,,,,,,,,,
,,,,,R_911KYZQxcxhJwRP,001,2025-08-13_13h09.31.883,continuous_performance_test,2024.2.4,MacIntel,58.82352941,4a6c4316-4033-4298-aaa0-c585d4002c59,1,475.291,477.09,space,1,0.383,,0,12,12,19,1,T,space,,,,,,,,,,
,,,,,R_911KYZQxcxhJwRP,001,2025-08-13_13h09.31.883,continuous_performance_test,2024.2.4,MacIntel,58.82352941,4a6c4316-4033-4298-aaa0-c585d4002c59,1,477.091,478.991,space,1,0.449,,0,13,13,10,1,K,space,,,,,,,,,,
,,,,,R_911KYZQxcxhJwRP,001,2025-08-13_13h09.31.883,continuous_performance_test,2024.2.4,MacIntel,58.82352941,4a6c4316-4033-4298-aaa0-c585d4002c59,1,478.991,480.939,space,1,0.301,,0,14,14,14,1,O,space,,,,,,,,,,
,,,,,R_911KYZQxcxhJwRP,001,2025-08-13_13h09.31.883,continuous_performance_test,2024.2.4,MacIntel,58.82352941,4a6c4316-4033-4298-aaa0-c585d4002c59,1,480.94,482.582,space,1,0.378,,0,15,15,4,1,E,space,,,,,,,,,,
,,,,,R_911KYZQxcxhJwRP,001,2025-08-13_13h09.31.883,continuous_performance_test,2024.2.4,MacIntel,58.82352941,4a6c4316-4033-4298-aaa0-c585d4002c59,1,482.583,484.524,space,1,0.509,,0,16,16,24,1,Z,space,,,,,,,,,,
,,,,,R_911KYZQxcxhJwRP,001,2025-08-13_13h09.31.883,continuous_performance_test,2024.2.4,MacIntel,58.82352941,4a6c4316-4033-4298-aaa0-c585d4002c59,1,484.525,486.173,space,1,0.408,,0,17,17,7,1,H,space,,,,,,,,,,
,,,,,R_911KYZQxcxhJwRP,001,2025-08-13_13h09.31.883,continuous_performance_test,2024.2.4,MacIntel,58.82352941,4a6c4316-4033-4298-aaa0-c585d4002c59,1,486.173,487.772,space,1,0.402,,0,18,18,13,1,N,space,,,,,,,,,,
,,,,,R_911KYZQxcxhJwRP,001,2025-08-13_13h09.31.883,continuous_performance_test,2024.2.4,MacIntel,58.82352941,4a6c4316-4033-4298-aaa0-c585d4002c59,1,487.773,489.473,space,1,0.397,,0,19,19,8,1,I,space,,,,,,,,,,
,,,,,R_911KYZQxcxhJwRP,001,2025-08-13_13h09.31.883,continuous_performance_test,2024.2.4,MacIntel,58.82352941,4a6c4316-4033-4298-aaa0-c585d4002c59,1,489.474,491.422,space,1,0.403,,0,20,20,0,1,A,space,,,,,,,,,,
,,,,,R_911KYZQxcxhJwRP,001,2025-08-13_13h09.31.883,continuous_performance_test,2024.2.4,MacIntel,58.82352941,4a6c4316-4033-4298-aaa0-c585d4002c59,1,491.423,493.123,space,1,0.404,,0,21,21,3,1,D,space,,,,,,,,,,
,,,,,R_911KYZQxcxhJwRP,001,2025-08-13_13h09.31.883,continuous_performance_test,2024.2.4,MacIntel,58.82352941,4a6c4316-4033-4298-aaa0-c585d4002c59,1,493.124,495.073,,1,,,0,22,22,28,1,X,,,,,,,,,,,
,,,,,R_911KYZQxcxhJwRP,001,2025-08-13_13h09.31.883,continuous_performance_test,2024.2.4,MacIntel,58.82352941,4a6c4316-4033-4298-aaa0-c585d4002c59,1,495.073,497.073,,1,,,0,23,23,27,1,X,,,,,,,,,,,
,,,,,R_911KYZQxcxhJwRP,001,2025-08-13_13h09.31.883,continuous_performance_test,2024.2.4,MacIntel,58.82352941,4a6c4316-4033-4298-aaa0-c585d4002c59,1,497.074,499.072,,1,,,0,24,24,29,1,X,,,,,,,,,,,
,,,,,R_911KYZQxcxhJwRP,001,2025-08-13_13h09.31.883,continuous_performance_test,2024.2.4,MacIntel,58.82352941,4a6c4316-4033-4298-aaa0-c585d4002c59,1,499.073,500.773,space,1,0.554,,0,25,25,11,1,L,space,,,,,,,,,,
,,,,,R_911KYZQxcxhJwRP,001,2025-08-13_13h09.31.883,continuous_performance_test,2024.2.4,MacIntel,58.82352941,4a6c4316-4033-4298-aaa0-c585d4002c59,1,500.774,502.723,space,1,0.361,,0,26,26,15,1,P,space,,,,,,,,,,
,,,,,R_911KYZQxcxhJwRP,001,2025-08-13_13h09.31.883,continuous_performance_test,2024.2.4,MacIntel,58.82352941,4a6c4316-4033-4298-aaa0-c585d4002c59,1,502.724,504.273,space,1,0.485,,0,27,27,2,1,C,space,,,,,,,,,,
,,,,,R_911KYZQxcxhJwRP,001,2025-08-13_13h09.31.883,continuous_performance_test,2024.2.4,MacIntel,58.82352941,4a6c4316-4033-4298-aaa0-c585d4002c59,1,504.274,505.972,space,1,0.403,,0,28,28,6,1,G,space,,,,,,,,,,
,,,,,R_911KYZQxcxhJwRP,001,2025-08-13_13h09.31.883,continuous_performance_test,2024.2.4,MacIntel,58.82352941,4a6c4316-4033-4298-aaa0-c585d4002c59,1,505.973,507.873,space,1,0.405,,0,29,29,9,1,J,space,,,,,,,,,,
,,,,,R_911KYZQxcxhJwRP,001,2025-08-13_13h09.31.883,continuous_performance_test,2024.2.4,MacIntel,58.82352941,4a6c4316-4033-4298-aaa0-c585d4002c59,1,509.003,510.94,space,1,0.567,,0,0,0,17,1,R,space,507.874,508.991,space,1.072,,,,,,
,,,,,R_911KYZQxcxhJwRP,001,2025-08-13_13h09.31.883,continuous_performance_test,2024.2.4,MacIntel,58.82352941,4a6c4316-4033-4298-aaa0-c585d4002c59,1,510.941,512.69,space,1,0.411,,0,1,1,0,1,A,space,,,,,,,,,,
,,,,,R_911KYZQxcxhJwRP,001,2025-08-13_13h09.31.883,continuous_performance_test,2024.2.4,MacIntel,58.82352941,4a6c4316-4033-4298-aaa0-c585d4002c59,1,512.691,514.44,space,1,0.401,,0,2,2,7,1,H,space,,,,,,,,,,
,,,,,R_911KYZQxcxhJwRP,001,2025-08-13_13h09.31.883,continuous_performance_test,2024.2.4,MacIntel,58.82352941,4a6c4316-4033-4298-aaa0-c585d4002c59,1,514.441,516.091,space,1,0.415,,0,3,3,21,1,V,space,,,,,,,,,,
,,,,,R_911KYZQxcxhJwRP,001,2025-08-13_13h09.31.883,continuous_performance_test,2024.2.4,MacIntel,58.82352941,4a6c4316-4033-4298-aaa0-c585d4002c59,1,516.092,518.04,space,1,0.432,,0,4,4,24,1,Z,space,,,,,,,,,,
,,,,,R_911KYZQxcxhJwRP,001,2025-08-13_13h09.31.883,continuous_performance_test,2024.2.4,MacIntel,58.82352941,4a6c4316-4033-4298-aaa0-c585d4002c59,1,518.041,519.639,space,1,0.497,,0,5,5,22,1,W,space,,,,,,,,,,
,,,,,R_911KYZQxcxhJwRP,001,2025-08-13_13h09.31.883,continuous_performance_test,2024.2.4,MacIntel,58.82352941,4a6c4316-4033-4298-aaa0-c585d4002c59,1,519.64,521.29,space,1,0.463,,0,6,6,23,1,Y,space,,,,,,,,,,
,,,,,R_911KYZQxcxhJwRP,001,2025-08-13_13h09.31.883,continuous_performance_test,2024.2.4,MacIntel,58.82352941,4a6c4316-4033-4298-aaa0-c585d4002c59,1,521.291,522.939,space,1,0.387,,0,7,7,2,1,C,space,,,,,,,,,,
,,,,,R_911KYZQxcxhJwRP,001,2025-08-13_13h09.31.883,continuous_performance_test,2024.2.4,MacIntel,58.82352941,4a6c4316-4033-4298-aaa0-c585d4002c59,1,522.94,524.59,space,1,0.45,,0,8,8,16,1,Q,space,,,,,,,,,,
,,,,,R_911KYZQxcxhJwRP,001,2025-08-13_13h09.31.883,continuous_performance_test,2024.2.4,MacIntel,58.82352941,4a6c4316-4033-4298-aaa0-c585d4002c59,1,524.591,526.19,space,1,0.447,,0,9,9,19,1,T,space,,,,,,,,,,
,,,,,R_911KYZQxcxhJwRP,001,2025-08-13_13h09.31.883,continuous_performance_test,2024.2.4,MacIntel,58.82352941,4a6c4316-4033-4298-aaa0-c585d4002c59,1,526.191,527.89,space,1,0.402,,0,10,10,14,1,O,space,,,,,,,,,,
,,,,,R_911KYZQxcxhJwRP,001,2025-08-13_13h09.31.883,continuous_performance_test,2024.2.4,MacIntel,58.82352941,4a6c4316-4033-4298-aaa0-c585d4002c59,1,527.891,529.689,space,1,0.382,,0,11,11,18,1,S,space,,,,,,,,,,
,,,,,R_911KYZQxcxhJwRP,001,2025-08-13_13h09.31.883,continuous_performance_test,2024.2.4,MacIntel,58.82352941,4a6c4316-4033-4298-aaa0-c585d4002c59,1,529.69,531.64,space,1,0.404,,0,12,12,12,1,M,space,,,,,,,,,,
,,,,,R_911KYZQxcxhJwRP,001,2025-08-13_13h09.31.883,continuous_performance_test,2024.2.4,MacIntel,58.82352941,4a6c4316-4033-4298-aaa0-c585d4002c59,1,531.641,533.489,space,1,0.387,,0,13,13,9,1,J,space,,,,,,,,,,
,,,,,R_911KYZQxcxhJwRP,001,2025-08-13_13h09.31.883,continuous_performance_test,2024.2.4,MacIntel,58.82352941,4a6c4316-4033-4298-aaa0-c585d4002c59,1,533.49,535.14,space,1,0.436,,0,14,14,10,1,K,space,,,,,,,,,,
,,,,,R_911KYZQxcxhJwRP,001,2025-08-13_13h09.31.883,continuous_performance_test,2024.2.4,MacIntel,58.82352941,4a6c4316-4033-4298-aaa0-c585d4002c59,1,535.141,536.939,space,1,0.401,,0,15,15,8,1,I,space,,,,,,,,,,
,,,,,R_911KYZQxcxhJwRP,001,2025-08-13_13h09.31.883,continuous_performance_test,2024.2.4,MacIntel,58.82352941,4a6c4316-4033-4298-aaa0-c585d4002c59,1,536.94,538.64,space,1,0.432,,0,16,16,4,1,E,space,,,,,,,,,,
,,,,,R_911KYZQxcxhJwRP,001,2025-08-13_13h09.31.883,continuous_performance_test,2024.2.4,MacIntel,58.82352941,4a6c4316-4033-4298-aaa0-c585d4002c59,1,538.641,540.34,space,1,0.383,,0,17,17,5,1,F,space,,,,,,,,,,
,,,,,R_911KYZQxcxhJwRP,001,2025-08-13_13h09.31.883,continuous_performance_test,2024.2.4,MacIntel,58.82352941,4a6c4316-4033-4298-aaa0-c585d4002c59,1,540.34,542.039,space,1,0.401,,0,18,18,11,1,L,space,,,,,,,,,,
,,,,,R_911KYZQxcxhJwRP,001,2025-08-13_13h09.31.883,continuous_performance_test,2024.2.4,MacIntel,58.82352941,4a6c4316-4033-4298-aaa0-c585d4002c59,1,542.041,543.64,space,1,0.367,,0,19,19,6,1,G,space,,,,,,,,,,
,,,,,R_911KYZQxcxhJwRP,001,2025-08-13_13h09.31.883,continuous_performance_test,2024.2.4,MacIntel,58.82352941,4a6c4316-4033-4298-aaa0-c585d4002c59,1,543.641,545.589,space,1,0.41,,0,20,20,15,1,P,space,,,,,,,,,,
,,,,,R_911KYZQxcxhJwRP,001,2025-08-13_13h09.31.883,continuous_performance_test,2024.2.4,MacIntel,58.82352941,4a6c4316-4033-4298-aaa0-c585d4002c59,1,545.59,547.14,,1,,,0,21,21,28,1,X,,,,,,,,,,,
,,,,,R_911KYZQxcxhJwRP,001,2025-08-13_13h09.31.883,continuous_performance_test,2024.2.4,MacIntel,58.82352941,4a6c4316-4033-4298-aaa0-c585d4002c59,1,547.141,548.889,space,1,0.37,,0,22,22,1,1,B,space,,,,,,,,,,
,,,,,R_911KYZQxcxhJwRP,001,2025-08-13_13h09.31.883,continuous_performance_test,2024.2.4,MacIntel,58.82352941,4a6c4316-4033-4298-aaa0-c585d4002c59,1,548.89,550.789,,1,,,0,23,23,29,1,X,,,,,,,,,,,
,,,,,R_911KYZQxcxhJwRP,001,2025-08-13_13h09.31.883,continuous_performance_test,2024.2.4,MacIntel,58.82352941,4a6c4316-4033-4298-aaa0-c585d4002c59,1,550.79,552.74,space,1,0.367,,0,24,24,13,1,N,space,,,,,,,,,,
,,,,,R_911KYZQxcxhJwRP,001,2025-08-13_13h09.31.883,continuous_performance_test,2024.2.4,MacIntel,58.82352941,4a6c4316-4033-4298-aaa0-c585d4002c59,1,552.741,554.59,,1,,,0,25,25,27,1,X,,,,,,,,,,,
,,,,,R_911KYZQxcxhJwRP,001,2025-08-13_13h09.31.883,continuous_performance_test,2024.2.4,MacIntel,58.82352941,4a6c4316-4033-4298-aaa0-c585d4002c59,1,554.591,556.14,space,1,0.4,,0,26,26,20,1,U,space,,,,,,,,,,
,,,,,R_911KYZQxcxhJwRP,001,2025-08-13_13h09.31.883,continuous_performance_test,2024.2.4,MacIntel,58.82352941,4a6c4316-4033-4298-aaa0-c585d4002c59,1,556.141,557.839,space,1,0.38,,0,27,27,3,1,D,space,,,,,,,,,,
,,,,,R_911KYZQxcxhJwRP,001,2025-08-13_13h09.31.883,continuous_performance_test,2024.2.4,MacIntel,58.82352941,4a6c4316-4033-4298-aaa0-c585d4002c59,1,557.84,559.489,,1,,,0,28,28,26,1,X,,,,,,,,,,,
,,,,,R_911KYZQxcxhJwRP,001,2025-08-13_13h09.31.883,continuous_performance_test,2024.2.4,MacIntel,58.82352941,4a6c4316-4033-4298-aaa0-c585d4002c59,1,559.49,561.191,,1,,,0,29,29,25,1,X,,,,,,,,,,,
,,,,,R_911KYZQxcxhJwRP,001,2025-08-13_13h09.31.883,continuous_performance_test,2024.2.4,MacIntel,58.82352941,4a6c4316-4033-4298-aaa0-c585d4002c59,1,,,,,,,,,,,,,,561.192,561.197,,,,561.197,564.273,space,3.042,
