Instructions.started,Instructions.stopped,key_resp.keys,key_resp.rt,key_resp.duration,participant,session,date,expName,psychopyVersion,OS,frameRate,Trial_noX.started,Trial_noX.stopped,response.keys,response.corr,trials_noX.thisRepN,trials_noX.thisTrialN,trials_noX.thisN,trials_noX.thisIndex,trials_noX.ran,letter,corrAns,response.rt,response.duration,BlockBreak.started,BlockBreak.stopped,key_instruct.keys,key_instruct.rt,key_instruct.duration,End_NoX.started,End_NoX.stopped,key_resp_end_noX.keys,key_resp_end_noX.rt,key_resp_end_noX.duration
0.0005,39.2489,space,39.1969,,R_91j0bldsWQng2xN,001,2025-09-10_13h20.47.900,continuous_performance_test,2024.2.4,Win32,61.72839506,,,,,,,,,,,,,,,,,,,,,,,
,,,,,R_91j0bldsWQng2xN,001,2025-09-10_13h20.47.900,continuous_performance_test,2024.2.4,Win32,61.72839506,39.2831,41.083,,1,0,0,0,25,1,X,,,,,,,,,,,,,
,,,,,R_91j0bldsWQng2xN,001,2025-09-10_13h20.47.900,continuous_performance_test,2024.2.4,Win32,61.72839506,41.0867,42.6228,,0,0,1,1,7,1,H,space,,,,,,,,,,,,
,,,,,R_91j0bldsWQng2xN,001,2025-09-10_13h20.47.900,continuous_performance_test,2024.2.4,Win32,61.72839506,42.6242,44.1684,space,1,0,2,2,0,1,A,space,0.451,,,,,,,,,,,
,,,,,R_91j0bldsWQng2xN,001,2025-09-10_13h20.47.900,continuous_performance_test,2024.2.4,Win32,61.72839506,44.1714,45.7197,space,1,0,3,3,8,1,I,space,0.2735,,,,,,,,,,,
,,,,,R_91j0bldsWQng2xN,001,2025-09-10_13h20.47.900,continuous_performance_test,2024.2.4,Win32,61.72839506,45.7227,47.2711,space,1,0,4,4,12,1,M,space,0.3013,,,,,,,,,,,
,,,,,R_91j0bldsWQng2xN,001,2025-09-10_13h20.47.900,continuous_performance_test,2024.2.4,Win32,61.72839506,47.2743,48.8226,space,1,0,5,5,5,1,F,space,0.3015,,,,,,,,,,,
,,,,,R_91j0bldsWQng2xN,001,2025-09-10_13h20.47.900,continuous_performance_test,2024.2.4,Win32,61.72839506,48.8258,50.7245,space,1,0,6,6,17,1,R,space,0.3854,,,,,,,,,,,
,,,,,R_91j0bldsWQng2xN,001,2025-09-10_13h20.47.900,continuous_performance_test,2024.2.4,Win32,61.72839506,50.7285,52.4755,space,1,0,7,7,22,1,W,space,0.2507,,,,,,,,,,,
,,,,,R_91j0bldsWQng2xN,001,2025-09-10_13h20.47.900,continuous_performance_test,2024.2.4,Win32,61.72839506,52.4788,54.1269,space,1,0,8,8,9,1,J,space,0.2389,,,,,,,,,,,
,,,,,R_91j0bldsWQng2xN,001,2025-09-10_13h20.47.900,continuous_performance_test,2024.2.4,Win32,61.72839506,54.1299,55.9789,space,1,0,9,9,3,1,D,space,0.3176,,,,,,,,,,,
,,,,,R_91j0bldsWQng2xN,001,2025-09-10_13h20.47.900,continuous_performance_test,2024.2.4,Win32,61.72839506,55.9815,57.7299,space,1,0,10,10,11,1,L,space,0.3335,,,,,,,,,,,
,,,,,R_91j0bldsWQng2xN,001,2025-09-10_13h20.47.900,continuous_performance_test,2024.2.4,Win32,61.72839506,57.7328,59.4812,space,1,0,11,11,1,1,B,space,0.3018,,,,,,,,,,,
,,,,,R_91j0bldsWQng2xN,001,2025-09-10_13h20.47.900,continuous_performance_test,2024.2.4,Win32,61.72839506,59.4838,61.0825,space,1,0,12,12,20,1,U,space,0.3173,,,,,,,,,,,
,,,,,R_91j0bldsWQng2xN,001,2025-09-10_13h20.47.900,continuous_performance_test,2024.2.4,Win32,61.72839506,61.0848,63.0344,space,0,0,13,13,29,1,X,,0.3778,,,,,,,,,,,
,,,,,R_91j0bldsWQng2xN,001,2025-09-10_13h20.47.900,continuous_performance_test,2024.2.4,Win32,61.72839506,63.0372,64.7361,space,1,0,14,14,24,1,Z,space,0.3529,,,,,,,,,,,
,,,,,R_91j0bldsWQng2xN,001,2025-09-10_13h20.47.900,continuous_performance_test,2024.2.4,Win32,61.72839506,64.739,66.2871,,0,0,15,15,16,1,Q,space,,,,,,,,,,,,
,,,,,R_91j0bldsWQng2xN,001,2025-09-10_13h20.47.900,continuous_performance_test,2024.2.4,Win32,61.72839506,66.2892,68.2381,space,0,0,16,16,27,1,X,,0.2518,,,,,,,,,,,
,,,,,R_91j0bldsWQng2xN,001,2025-09-10_13h20.47.900,continuous_performance_test,2024.2.4,Win32,61.72839506,68.2401,70.2289,,1,0,17,17,26,1,X,,,,,,,,,,,,,
,,,,,R_91j0bldsWQng2xN,001,2025-09-10_13h20.47.900,continuous_performance_test,2024.2.4,Win32,61.72839506,70.2312,71.7748,space,1,0,18,18,15,1,P,space,0.4405,,,,,,,,,,,
,,,,,R_91j0bldsWQng2xN,001,2025-09-10_13h20.47.900,continuous_performance_test,2024.2.4,Win32,61.72839506,71.7783,73.5761,space,1,0,19,19,23,1,Y,space,0.5395,,,,,,,,,,,
,,,,,R_91j0bldsWQng2xN,001,2025-09-10_13h20.47.900,continuous_performance_test,2024.2.4,Win32,61.72839506,73.5788,75.2284,space,1,0,20,20,10,1,K,space,0.3669,,,,,,,,,,,
,,,,,R_91j0bldsWQng2xN,001,2025-09-10_13h20.47.900,continuous_performance_test,2024.2.4,Win32,61.72839506,75.231,77.1283,space,1,0,21,21,13,1,N,space,0.5044,,,,,,,,,,,
,,,,,R_91j0bldsWQng2xN,001,2025-09-10_13h20.47.900,continuous_performance_test,2024.2.4,Win32,61.72839506,77.1305,78.8297,space,1,0,22,22,18,1,S,space,0.3844,,,,,,,,,,,
,,,,,R_91j0bldsWQng2xN,001,2025-09-10_13h20.47.900,continuous_performance_test,2024.2.4,Win32,61.72839506,78.8316,80.8318,space,1,0,23,23,21,1,V,space,0.3846,,,,,,,,,,,
,,,,,R_91j0bldsWQng2xN,001,2025-09-10_13h20.47.900,continuous_performance_test,2024.2.4,Win32,61.72839506,80.8345,82.7331,space,1,0,24,24,4,1,E,space,0.4037,,,,,,,,,,,
,,,,,R_91j0bldsWQng2xN,001,2025-09-10_13h20.47.900,continuous_performance_test,2024.2.4,Win32,61.72839506,82.7353,84.6849,space,1,0,25,25,2,1,C,space,0.4508,,,,,,,,,,,
,,,,,R_91j0bldsWQng2xN,001,2025-09-10_13h20.47.900,continuous_performance_test,2024.2.4,Win32,61.72839506,84.6876,86.6867,space,1,0,26,26,19,1,T,space,0.3933,,,,,,,,,,,
,,,,,R_91j0bldsWQng2xN,001,2025-09-10_13h20.47.900,continuous_performance_test,2024.2.4,Win32,61.72839506,86.6904,88.3884,space,1,0,27,27,14,1,O,space,0.5676,,,,,,,,,,,
,,,,,R_91j0bldsWQng2xN,001,2025-09-10_13h20.47.900,continuous_performance_test,2024.2.4,Win32,61.72839506,88.3904,89.9897,,1,0,28,28,28,1,X,,,,,,,,,,,,,
,,,,,R_91j0bldsWQng2xN,001,2025-09-10_13h20.47.900,continuous_performance_test,2024.2.4,Win32,61.72839506,89.9928,91.891,space,1,0,29,29,6,1,G,space,0.5688,,,,,,,,,,,
,,,,,R_91j0bldsWQng2xN,001,2025-09-10_13h20.47.900,continuous_performance_test,2024.2.4,Win32,61.72839506,99.0303,100.932,space,1,0,0,0,1,1,B,space,0.5009,,91.892,99.0139,space,7.089,,,,,,
,,,,,R_91j0bldsWQng2xN,001,2025-09-10_13h20.47.900,continuous_performance_test,2024.2.4,Win32,61.72839506,100.934,102.9336,space,1,0,1,1,15,1,P,space,0.3243,,,,,,,,,,,
,,,,,R_91j0bldsWQng2xN,001,2025-09-10_13h20.47.900,continuous_performance_test,2024.2.4,Win32,61.72839506,102.9358,104.735,space,1,0,2,2,18,1,S,space,0.4243,,,,,,,,,,,
,,,,,R_91j0bldsWQng2xN,001,2025-09-10_13h20.47.900,continuous_performance_test,2024.2.4,Win32,61.72839506,104.7371,106.3365,space,1,0,3,3,23,1,Y,space,0.3502,,,,,,,,,,,
,,,,,R_91j0bldsWQng2xN,001,2025-09-10_13h20.47.900,continuous_performance_test,2024.2.4,Win32,61.72839506,106.3387,108.138,space,1,0,4,4,12,1,M,space,0.3415,,,,,,,,,,,
,,,,,R_91j0bldsWQng2xN,001,2025-09-10_13h20.47.900,continuous_performance_test,2024.2.4,Win32,61.72839506,108.1399,109.9391,space,1,0,5,5,3,1,D,space,0.3553,,,,,,,,,,,
,,,,,R_91j0bldsWQng2xN,001,2025-09-10_13h20.47.900,continuous_performance_test,2024.2.4,Win32,61.72839506,109.9411,111.7409,,1,0,6,6,29,1,X,,,,,,,,,,,,,
,,,,,R_91j0bldsWQng2xN,001,2025-09-10_13h20.47.900,continuous_performance_test,2024.2.4,Win32,61.72839506,111.7428,113.6927,space,1,0,7,7,24,1,Z,space,0.343,,,,,,,,,,,
,,,,,R_91j0bldsWQng2xN,001,2025-09-10_13h20.47.900,continuous_performance_test,2024.2.4,Win32,61.72839506,113.6948,115.5439,space,1,0,8,8,8,1,I,space,0.4907,,,,,,,,,,,
,,,,,R_91j0bldsWQng2xN,001,2025-09-10_13h20.47.900,continuous_performance_test,2024.2.4,Win32,61.72839506,115.5462,117.2951,space,1,0,9,9,13,1,N,space,0.3091,,,,,,,,,,,
,,,,,R_91j0bldsWQng2xN,001,2025-09-10_13h20.47.900,continuous_performance_test,2024.2.4,Win32,61.72839506,117.298,119.1468,space,0,0,10,10,28,1,X,,0.335,,,,,,,,,,,
,,,,,R_91j0bldsWQng2xN,001,2025-09-10_13h20.47.900,continuous_performance_test,2024.2.4,Win32,61.72839506,119.149,121.099,space,1,0,11,11,7,1,H,space,0.4509,,,,,,,,,,,
,,,,,R_91j0bldsWQng2xN,001,2025-09-10_13h20.47.900,continuous_performance_test,2024.2.4,Win32,61.72839506,121.1011,122.9501,space,1,0,12,12,4,1,E,space,0.3601,,,,,,,,,,,
,,,,,R_91j0bldsWQng2xN,001,2025-09-10_13h20.47.900,continuous_performance_test,2024.2.4,Win32,61.72839506,122.9521,124.7519,space,1,0,13,13,0,1,A,space,0.4841,,,,,,,,,,,
,,,,,R_91j0bldsWQng2xN,001,2025-09-10_13h20.47.900,continuous_performance_test,2024.2.4,Win32,61.72839506,124.7539,126.4527,space,1,0,14,14,22,1,W,space,0.3549,,,,,,,,,,,
,,,,,R_91j0bldsWQng2xN,001,2025-09-10_13h20.47.900,continuous_performance_test,2024.2.4,Win32,61.72839506,126.4551,128.0539,space,1,0,15,15,20,1,U,space,0.3592,,,,,,,,,,,
,,,,,R_91j0bldsWQng2xN,001,2025-09-10_13h20.47.900,continuous_performance_test,2024.2.4,Win32,61.72839506,128.0562,129.7557,space,1,0,16,16,6,1,G,space,0.3868,,,,,,,,,,,
,,,,,R_91j0bldsWQng2xN,001,2025-09-10_13h20.47.900,continuous_performance_test,2024.2.4,Win32,61.72839506,129.7581,131.407,space,1,0,17,17,11,1,L,space,0.3711,,,,,,,,,,,
,,,,,R_91j0bldsWQng2xN,001,2025-09-10_13h20.47.900,continuous_performance_test,2024.2.4,Win32,61.72839506,131.4092,133.1591,space,1,0,18,18,16,1,Q,space,0.4008,,,,,,,,,,,
,,,,,R_91j0bldsWQng2xN,001,2025-09-10_13h20.47.900,continuous_performance_test,2024.2.4,Win32,61.72839506,133.1612,134.7597,,1,0,19,19,26,1,X,,,,,,,,,,,,,
,,,,,R_91j0bldsWQng2xN,001,2025-09-10_13h20.47.900,continuous_performance_test,2024.2.4,Win32,61.72839506,134.7621,136.7613,space,1,0,20,20,2,1,C,space,0.435,,,,,,,,,,,
,,,,,R_91j0bldsWQng2xN,001,2025-09-10_13h20.47.900,continuous_performance_test,2024.2.4,Win32,61.72839506,136.7636,138.5127,space,1,0,21,21,17,1,R,space,0.4574,,,,,,,,,,,
,,,,,R_91j0bldsWQng2xN,001,2025-09-10_13h20.47.900,continuous_performance_test,2024.2.4,Win32,61.72839506,138.5147,140.2642,space,1,0,22,22,19,1,T,space,0.3409,,,,,,,,,,,
,,,,,R_91j0bldsWQng2xN,001,2025-09-10_13h20.47.900,continuous_performance_test,2024.2.4,Win32,61.72839506,140.2665,141.8655,,1,0,23,23,25,1,X,,,,,,,,,,,,,
,,,,,R_91j0bldsWQng2xN,001,2025-09-10_13h20.47.900,continuous_performance_test,2024.2.4,Win32,61.72839506,141.8677,143.6674,space,1,0,24,24,9,1,J,space,0.371,,,,,,,,,,,
,,,,,R_91j0bldsWQng2xN,001,2025-09-10_13h20.47.900,continuous_performance_test,2024.2.4,Win32,61.72839506,143.6701,145.469,,1,0,25,25,27,1,X,,,,,,,,,,,,,
,,,,,R_91j0bldsWQng2xN,001,2025-09-10_13h20.47.900,continuous_performance_test,2024.2.4,Win32,61.72839506,145.471,147.3193,space,1,0,26,26,5,1,F,space,0.4172,,,,,,,,,,,
,,,,,R_91j0bldsWQng2xN,001,2025-09-10_13h20.47.900,continuous_performance_test,2024.2.4,Win32,61.72839506,147.3209,148.9215,space,1,0,27,27,10,1,K,space,0.5078,,,,,,,,,,,
,,,,,R_91j0bldsWQng2xN,001,2025-09-10_13h20.47.900,continuous_performance_test,2024.2.4,Win32,61.72839506,148.9237,150.8729,space,1,0,28,28,21,1,V,space,0.4192,,,,,,,,,,,
,,,,,R_91j0bldsWQng2xN,001,2025-09-10_13h20.47.900,continuous_performance_test,2024.2.4,Win32,61.72839506,150.8751,152.7246,space,1,0,29,29,14,1,O,space,0.3674,,,,,,,,,,,
,,,,,R_91j0bldsWQng2xN,001,2025-09-10_13h20.47.900,continuous_performance_test,2024.2.4,Win32,61.72839506,157.3719,159.0625,,1,0,0,0,29,1,X,,,,152.7264,157.3611,space,4.6072,,,,,,
,,,,,R_91j0bldsWQng2xN,001,2025-09-10_13h20.47.900,continuous_performance_test,2024.2.4,Win32,61.72839506,159.0657,160.6639,space,1,0,1,1,16,1,Q,space,0.3528,,,,,,,,,,,
,,,,,R_91j0bldsWQng2xN,001,2025-09-10_13h20.47.900,continuous_performance_test,2024.2.4,Win32,61.72839506,160.6661,162.4656,space,1,0,2,2,8,1,I,space,0.4107,,,,,,,,,,,
,,,,,R_91j0bldsWQng2xN,001,2025-09-10_13h20.47.900,continuous_performance_test,2024.2.4,Win32,61.72839506,162.4675,164.0166,,1,0,3,3,27,1,X,,,,,,,,,,,,,
,,,,,R_91j0bldsWQng2xN,001,2025-09-10_13h20.47.900,continuous_performance_test,2024.2.4,Win32,61.72839506,164.0195,165.8685,,1,0,4,4,26,1,X,,,,,,,,,,,,,
,,,,,R_91j0bldsWQng2xN,001,2025-09-10_13h20.47.900,continuous_performance_test,2024.2.4,Win32,61.72839506,165.8704,167.6199,space,1,0,5,5,21,1,V,space,0.4177,,,,,,,,,,,
,,,,,R_91j0bldsWQng2xN,001,2025-09-10_13h20.47.900,continuous_performance_test,2024.2.4,Win32,61.72839506,167.6224,169.5216,space,1,0,6,6,6,1,G,space,0.442,,,,,,,,,,,
,,,,,R_91j0bldsWQng2xN,001,2025-09-10_13h20.47.900,continuous_performance_test,2024.2.4,Win32,61.72839506,169.5237,171.1729,space,1,0,7,7,18,1,S,space,0.3853,,,,,,,,,,,
,,,,,R_91j0bldsWQng2xN,001,2025-09-10_13h20.47.900,continuous_performance_test,2024.2.4,Win32,61.72839506,171.1753,172.7251,space,1,0,8,8,1,1,B,space,0.3509,,,,,,,,,,,
,,,,,R_91j0bldsWQng2xN,001,2025-09-10_13h20.47.900,continuous_performance_test,2024.2.4,Win32,61.72839506,172.7269,174.3254,space,1,0,9,9,3,1,D,space,0.4011,,,,,,,,,,,
,,,,,R_91j0bldsWQng2xN,001,2025-09-10_13h20.47.900,continuous_performance_test,2024.2.4,Win32,61.72839506,174.3273,176.2772,space,1,0,10,10,15,1,P,space,0.3943,,,,,,,,,,,
,,,,,R_91j0bldsWQng2xN,001,2025-09-10_13h20.47.900,continuous_performance_test,2024.2.4,Win32,61.72839506,176.2793,178.2285,space,1,0,11,11,14,1,O,space,0.4007,,,,,,,,,,,
,,,,,R_91j0bldsWQng2xN,001,2025-09-10_13h20.47.900,continuous_performance_test,2024.2.4,Win32,61.72839506,178.2305,180.1801,,1,0,12,12,28,1,X,,,,,,,,,,,,,
,,,,,R_91j0bldsWQng2xN,001,2025-09-10_13h20.47.900,continuous_performance_test,2024.2.4,Win32,61.72839506,180.1818,181.7322,space,1,0,13,13,11,1,L,space,0.3736,,,,,,,,,,,
,,,,,R_91j0bldsWQng2xN,001,2025-09-10_13h20.47.900,continuous_performance_test,2024.2.4,Win32,61.72839506,181.7342,183.2829,space,1,0,14,14,5,1,F,space,0.3335,,,,,,,,,,,
,,,,,R_91j0bldsWQng2xN,001,2025-09-10_13h20.47.900,continuous_performance_test,2024.2.4,Win32,61.72839506,183.2848,184.9337,space,1,0,15,15,20,1,U,space,0.6539,,,,,,,,,,,
,,,,,R_91j0bldsWQng2xN,001,2025-09-10_13h20.47.900,continuous_performance_test,2024.2.4,Win32,61.72839506,184.9356,186.8856,space,1,0,16,16,10,1,K,space,0.5007,,,,,,,,,,,
,,,,,R_91j0bldsWQng2xN,001,2025-09-10_13h20.47.900,continuous_performance_test,2024.2.4,Win32,61.72839506,186.8876,188.7381,space,1,0,17,17,17,1,R,space,0.3389,,,,,,,,,,,
,,,,,R_91j0bldsWQng2xN,001,2025-09-10_13h20.47.900,continuous_performance_test,2024.2.4,Win32,61.72839506,188.7401,190.6887,space,1,0,18,18,0,1,A,space,0.3838,,,,,,,,,,,
,,,,,R_91j0bldsWQng2xN,001,2025-09-10_13h20.47.900,continuous_performance_test,2024.2.4,Win32,61.72839506,190.6911,192.4906,space,1,0,19,19,2,1,C,space,0.3849,,,,,,,,,,,
,,,,,R_91j0bldsWQng2xN,001,2025-09-10_13h20.47.900,continuous_performance_test,2024.2.4,Win32,61.72839506,192.4928,194.3421,space,1,0,20,20,4,1,E,space,0.2182,,,,,,,,,,,
,,,,,R_91j0bldsWQng2xN,001,2025-09-10_13h20.47.900,continuous_performance_test,2024.2.4,Win32,61.72839506,194.3438,196.2943,space,1,0,21,21,24,1,Z,space,0.3535,,,,,,,,,,,
,,,,,R_91j0bldsWQng2xN,001,2025-09-10_13h20.47.900,continuous_performance_test,2024.2.4,Win32,61.72839506,196.296,198.2453,space,1,0,22,22,13,1,N,space,0.4364,,,,,,,,,,,
,,,,,R_91j0bldsWQng2xN,001,2025-09-10_13h20.47.900,continuous_performance_test,2024.2.4,Win32,61.72839506,198.2483,200.2473,space,1,0,23,23,22,1,W,space,0.3667,,,,,,,,,,,
,,,,,R_91j0bldsWQng2xN,001,2025-09-10_13h20.47.900,continuous_performance_test,2024.2.4,Win32,61.72839506,200.2496,202.198,space,1,0,24,24,19,1,T,space,0.4513,,,,,,,,,,,
,,,,,R_91j0bldsWQng2xN,001,2025-09-10_13h20.47.900,continuous_performance_test,2024.2.4,Win32,61.72839506,202.2,204.0997,space,1,0,25,25,7,1,H,space,0.4712,,,,,,,,,,,
,,,,,R_91j0bldsWQng2xN,001,2025-09-10_13h20.47.900,continuous_performance_test,2024.2.4,Win32,61.72839506,204.1017,205.8513,space,1,0,26,26,9,1,J,space,0.4558,,,,,,,,,,,
,,,,,R_91j0bldsWQng2xN,001,2025-09-10_13h20.47.900,continuous_performance_test,2024.2.4,Win32,61.72839506,205.8532,207.4028,space,1,0,27,27,23,1,Y,space,0.5504,,,,,,,,,,,
,,,,,R_91j0bldsWQng2xN,001,2025-09-10_13h20.47.900,continuous_performance_test,2024.2.4,Win32,61.72839506,207.4048,209.054,,1,0,28,28,25,1,X,,,,,,,,,,,,,
,,,,,R_91j0bldsWQng2xN,001,2025-09-10_13h20.47.900,continuous_performance_test,2024.2.4,Win32,61.72839506,209.056,210.756,space,1,0,29,29,12,1,M,space,0.375,,,,,,,,,,,
,,,,,R_91j0bldsWQng2xN,001,2025-09-10_13h20.47.900,continuous_performance_test,2024.2.4,Win32,61.72839506,218.4044,220.3967,space,1,0,0,0,3,1,D,space,0.4399,,210.7572,218.3957,space,7.6074,,,,,,
,,,,,R_91j0bldsWQng2xN,001,2025-09-10_13h20.47.900,continuous_performance_test,2024.2.4,Win32,61.72839506,220.3985,222.3982,space,1,0,1,1,11,1,L,space,0.6008,,,,,,,,,,,
,,,,,R_91j0bldsWQng2xN,001,2025-09-10_13h20.47.900,continuous_performance_test,2024.2.4,Win32,61.72839506,222.4001,224.1494,space,1,0,2,2,22,1,W,space,0.4222,,,,,,,,,,,
,,,,,R_91j0bldsWQng2xN,001,2025-09-10_13h20.47.900,continuous_performance_test,2024.2.4,Win32,61.72839506,224.1514,225.8012,space,1,0,3,3,4,1,E,space,0.4506,,,,,,,,,,,
,,,,,R_91j0bldsWQng2xN,001,2025-09-10_13h20.47.900,continuous_performance_test,2024.2.4,Win32,61.72839506,225.8031,227.8022,space,1,0,4,4,23,1,Y,space,0.5533,,,,,,,,,,,
,,,,,R_91j0bldsWQng2xN,001,2025-09-10_13h20.47.900,continuous_performance_test,2024.2.4,Win32,61.72839506,227.8037,229.3538,space,1,0,5,5,9,1,J,space,0.3679,,,,,,,,,,,
,,,,,R_91j0bldsWQng2xN,001,2025-09-10_13h20.47.900,continuous_performance_test,2024.2.4,Win32,61.72839506,229.3555,231.305,space,1,0,6,6,0,1,A,space,0.3379,,,,,,,,,,,
,,,,,R_91j0bldsWQng2xN,001,2025-09-10_13h20.47.900,continuous_performance_test,2024.2.4,Win32,61.72839506,231.3069,232.8563,space,0,0,7,7,25,1,X,,0.3506,,,,,,,,,,,
,,,,,R_91j0bldsWQng2xN,001,2025-09-10_13h20.47.900,continuous_performance_test,2024.2.4,Win32,61.72839506,232.8585,234.708,space,1,0,8,8,5,1,F,space,0.4841,,,,,,,,,,,
,,,,,R_91j0bldsWQng2xN,001,2025-09-10_13h20.47.900,continuous_performance_test,2024.2.4,Win32,61.72839506,234.7099,236.5595,space,1,0,9,9,10,1,K,space,0.3005,,,,,,,,,,,
,,,,,R_91j0bldsWQng2xN,001,2025-09-10_13h20.47.900,continuous_performance_test,2024.2.4,Win32,61.72839506,236.5618,238.2609,space,1,0,10,10,7,1,H,space,0.3381,,,,,,,,,,,
,,,,,R_91j0bldsWQng2xN,001,2025-09-10_13h20.47.900,continuous_performance_test,2024.2.4,Win32,61.72839506,238.2628,240.0625,space,1,0,11,11,16,1,Q,space,0.3764,,,,,,,,,,,
,,,,,R_91j0bldsWQng2xN,001,2025-09-10_13h20.47.900,continuous_performance_test,2024.2.4,Win32,61.72839506,240.065,242.0138,space,0,0,12,12,29,1,X,,0.3186,,,,,,,,,,,
,,,,,R_91j0bldsWQng2xN,001,2025-09-10_13h20.47.900,continuous_performance_test,2024.2.4,Win32,61.72839506,242.0152,244.016,,0,0,13,13,14,1,O,space,,,,,,,,,,,,
,,,,,R_91j0bldsWQng2xN,001,2025-09-10_13h20.47.900,continuous_performance_test,2024.2.4,Win32,61.72839506,244.018,245.6172,,0,0,14,14,24,1,Z,space,,,,,,,,,,,,
,,,,,R_91j0bldsWQng2xN,001,2025-09-10_13h20.47.900,continuous_performance_test,2024.2.4,Win32,61.72839506,245.6195,247.6182,,0,0,15,15,8,1,I,space,,,,,,,,,,,,
,,,,,R_91j0bldsWQng2xN,001,2025-09-10_13h20.47.900,continuous_performance_test,2024.2.4,Win32,61.72839506,247.6202,249.52,space,1,0,16,16,6,1,G,space,0.7434,,,,,,,,,,,
,,,,,R_91j0bldsWQng2xN,001,2025-09-10_13h20.47.900,continuous_performance_test,2024.2.4,Win32,61.72839506,249.5225,251.4221,space,1,0,17,17,15,1,P,space,0.3617,,,,,,,,,,,
,,,,,R_91j0bldsWQng2xN,001,2025-09-10_13h20.47.900,continuous_performance_test,2024.2.4,Win32,61.72839506,251.4239,253.2735,space,1,0,18,18,19,1,T,space,0.5237,,,,,,,,,,,
,,,,,R_91j0bldsWQng2xN,001,2025-09-10_13h20.47.900,continuous_performance_test,2024.2.4,Win32,61.72839506,253.2758,255.2755,space,0,0,19,19,27,1,X,,0.302,,,,,,,,,,,
,,,,,R_91j0bldsWQng2xN,001,2025-09-10_13h20.47.900,continuous_performance_test,2024.2.4,Win32,61.72839506,255.2776,257.1274,space,1,0,20,20,12,1,M,space,0.3844,,,,,,,,,,,
,,,,,R_91j0bldsWQng2xN,001,2025-09-10_13h20.47.900,continuous_performance_test,2024.2.4,Win32,61.72839506,257.1304,258.9286,space,1,0,21,21,2,1,C,space,0.3765,,,,,,,,,,,
,,,,,R_91j0bldsWQng2xN,001,2025-09-10_13h20.47.900,continuous_performance_test,2024.2.4,Win32,61.72839506,258.9305,260.4795,space,1,0,22,22,1,1,B,space,0.508,,,,,,,,,,,
,,,,,R_91j0bldsWQng2xN,001,2025-09-10_13h20.47.900,continuous_performance_test,2024.2.4,Win32,61.72839506,260.4813,262.2808,space,1,0,23,23,18,1,S,space,0.3675,,,,,,,,,,,
,,,,,R_91j0bldsWQng2xN,001,2025-09-10_13h20.47.900,continuous_performance_test,2024.2.4,Win32,61.72839506,262.2828,263.8327,space,1,0,24,24,13,1,N,space,0.4042,,,,,,,,,,,
,,,,,R_91j0bldsWQng2xN,001,2025-09-10_13h20.47.900,continuous_performance_test,2024.2.4,Win32,61.72839506,263.8345,265.6836,space,1,0,25,25,21,1,V,space,0.4173,,,,,,,,,,,
,,,,,R_91j0bldsWQng2xN,001,2025-09-10_13h20.47.900,continuous_performance_test,2024.2.4,Win32,61.72839506,265.6856,267.4853,space,1,0,26,26,17,1,R,space,0.6381,,,,,,,,,,,
,,,,,R_91j0bldsWQng2xN,001,2025-09-10_13h20.47.900,continuous_performance_test,2024.2.4,Win32,61.72839506,267.4871,269.4876,,1,0,27,27,28,1,X,,,,,,,,,,,,,
,,,,,R_91j0bldsWQng2xN,001,2025-09-10_13h20.47.900,continuous_performance_test,2024.2.4,Win32,61.72839506,269.4898,271.4387,space,1,0,28,28,20,1,U,space,0.3571,,,,,,,,,,,
,,,,,R_91j0bldsWQng2xN,001,2025-09-10_13h20.47.900,continuous_performance_test,2024.2.4,Win32,61.72839506,271.4407,273.0898,,1,0,29,29,26,1,X,,,,,,,,,,,,,
,,,,,R_91j0bldsWQng2xN,001,2025-09-10_13h20.47.900,continuous_performance_test,2024.2.4,Win32,61.72839506,288.0954,290.0873,,0,0,0,0,20,1,U,space,,,273.0914,288.0857,,,,,,,,
,,,,,R_91j0bldsWQng2xN,001,2025-09-10_13h20.47.900,continuous_performance_test,2024.2.4,Win32,61.72839506,290.0894,291.9387,,0,0,1,1,16,1,Q,space,,,,,,,,,,,,
,,,,,R_91j0bldsWQng2xN,001,2025-09-10_13h20.47.900,continuous_performance_test,2024.2.4,Win32,61.72839506,291.9409,293.4899,,0,0,2,2,17,1,R,space,,,,,,,,,,,,
,,,,,R_91j0bldsWQng2xN,001,2025-09-10_13h20.47.900,continuous_performance_test,2024.2.4,Win32,61.72839506,293.4919,295.1413,,0,0,3,3,1,1,B,space,,,,,,,,,,,,
,,,,,R_91j0bldsWQng2xN,001,2025-09-10_13h20.47.900,continuous_performance_test,2024.2.4,Win32,61.72839506,295.1432,297.0931,,0,0,4,4,3,1,D,space,,,,,,,,,,,,
,,,,,R_91j0bldsWQng2xN,001,2025-09-10_13h20.47.900,continuous_performance_test,2024.2.4,Win32,61.72839506,297.0949,298.8444,,1,0,5,5,26,1,X,,,,,,,,,,,,,
,,,,,R_91j0bldsWQng2xN,001,2025-09-10_13h20.47.900,continuous_performance_test,2024.2.4,Win32,61.72839506,298.8464,300.6959,,0,0,6,6,10,1,K,space,,,,,,,,,,,,
,,,,,R_91j0bldsWQng2xN,001,2025-09-10_13h20.47.900,continuous_performance_test,2024.2.4,Win32,61.72839506,300.6979,302.6474,,0,0,7,7,18,1,S,space,,,,,,,,,,,,
,,,,,R_91j0bldsWQng2xN,001,2025-09-10_13h20.47.900,continuous_performance_test,2024.2.4,Win32,61.72839506,302.6491,304.4988,,0,0,8,8,2,1,C,space,,,,,,,,,,,,
,,,,,R_91j0bldsWQng2xN,001,2025-09-10_13h20.47.900,continuous_performance_test,2024.2.4,Win32,61.72839506,304.5007,306.3007,,0,0,9,9,4,1,E,space,,,,,,,,,,,,
,,,,,R_91j0bldsWQng2xN,001,2025-09-10_13h20.47.900,continuous_performance_test,2024.2.4,Win32,61.72839506,306.3026,308.3021,,0,0,10,10,24,1,Z,space,,,,,,,,,,,,
,,,,,R_91j0bldsWQng2xN,001,2025-09-10_13h20.47.900,continuous_performance_test,2024.2.4,Win32,61.72839506,308.3042,310.3038,,0,0,11,11,15,1,P,space,,,,,,,,,,,,
,,,,,R_91j0bldsWQng2xN,001,2025-09-10_13h20.47.900,continuous_performance_test,2024.2.4,Win32,61.72839506,310.3057,312.256,,0,0,12,12,23,1,Y,space,,,,,,,,,,,,
,,,,,R_91j0bldsWQng2xN,001,2025-09-10_13h20.47.900,continuous_performance_test,2024.2.4,Win32,61.72839506,312.2579,313.9572,,0,0,13,13,8,1,I,space,,,,,,,,,,,,
,,,,,R_91j0bldsWQng2xN,001,2025-09-10_13h20.47.900,continuous_performance_test,2024.2.4,Win32,61.72839506,313.9591,315.7088,,0,0,14,14,5,1,F,space,,,,,,,,,,,,
,,,,,R_91j0bldsWQng2xN,001,2025-09-10_13h20.47.900,continuous_performance_test,2024.2.4,Win32,61.72839506,315.7107,317.3594,,0,0,15,15,19,1,T,space,,,,,,,,,,,,
,,,,,R_91j0bldsWQng2xN,001,2025-09-10_13h20.47.900,continuous_performance_test,2024.2.4,Win32,61.72839506,317.3612,318.9606,,0,0,16,16,14,1,O,space,,,,,,,,,,,,
,,,,,R_91j0bldsWQng2xN,001,2025-09-10_13h20.47.900,continuous_performance_test,2024.2.4,Win32,61.72839506,318.963,320.6121,,0,0,17,17,11,1,L,space,,,,,,,,,,,,
,,,,,R_91j0bldsWQng2xN,001,2025-09-10_13h20.47.900,continuous_performance_test,2024.2.4,Win32,61.72839506,320.6139,322.2137,,0,0,18,18,13,1,N,space,,,,,,,,,,,,
,,,,,R_91j0bldsWQng2xN,001,2025-09-10_13h20.47.900,continuous_performance_test,2024.2.4,Win32,61.72839506,322.2157,323.9152,,1,0,19,19,27,1,X,,,,,,,,,,,,,
,,,,,R_91j0bldsWQng2xN,001,2025-09-10_13h20.47.900,continuous_performance_test,2024.2.4,Win32,61.72839506,323.9171,325.8664,,0,0,20,20,22,1,W,space,,,,,,,,,,,,
,,,,,R_91j0bldsWQng2xN,001,2025-09-10_13h20.47.900,continuous_performance_test,2024.2.4,Win32,61.72839506,325.8684,327.768,,1,0,21,21,25,1,X,,,,,,,,,,,,,
,,,,,R_91j0bldsWQng2xN,001,2025-09-10_13h20.47.900,continuous_performance_test,2024.2.4,Win32,61.72839506,327.77,329.3192,,0,0,22,22,7,1,H,space,,,,,,,,,,,,
,,,,,R_91j0bldsWQng2xN,001,2025-09-10_13h20.47.900,continuous_performance_test,2024.2.4,Win32,61.72839506,329.3207,331.2212,,0,0,23,23,9,1,J,space,,,,,,,,,,,,
,,,,,R_91j0bldsWQng2xN,001,2025-09-10_13h20.47.900,continuous_performance_test,2024.2.4,Win32,61.72839506,331.2233,332.9223,,0,0,24,24,21,1,V,space,,,,,,,,,,,,
,,,,,R_91j0bldsWQng2xN,001,2025-09-10_13h20.47.900,continuous_performance_test,2024.2.4,Win32,61.72839506,332.9243,334.9239,,0,0,25,25,6,1,G,space,,,,,,,,,,,,
,,,,,R_91j0bldsWQng2xN,001,2025-09-10_13h20.47.900,continuous_performance_test,2024.2.4,Win32,61.72839506,334.926,336.5261,,1,0,26,26,29,1,X,,,,,,,,,,,,,
,,,,,R_91j0bldsWQng2xN,001,2025-09-10_13h20.47.900,continuous_performance_test,2024.2.4,Win32,61.72839506,336.5279,338.427,,0,0,27,27,12,1,M,space,,,,,,,,,,,,
,,,,,R_91j0bldsWQng2xN,001,2025-09-10_13h20.47.900,continuous_performance_test,2024.2.4,Win32,61.72839506,338.4291,340.0281,,0,0,28,28,0,1,A,space,,,,,,,,,,,,
,,,,,R_91j0bldsWQng2xN,001,2025-09-10_13h20.47.900,continuous_performance_test,2024.2.4,Win32,61.72839506,340.03,341.779,space,0,0,29,29,28,1,X,,0.3028,,,,,,,,,,,
,,,,,R_91j0bldsWQng2xN,001,2025-09-10_13h20.47.900,continuous_performance_test,2024.2.4,Win32,61.72839506,344.8719,346.7172,,0,0,0,0,22,1,W,space,,,341.7805,344.8648,space,3.0622,,,,,,
,,,,,R_91j0bldsWQng2xN,001,2025-09-10_13h20.47.900,continuous_performance_test,2024.2.4,Win32,61.72839506,346.7191,348.3688,space,1,0,1,1,3,1,D,space,0.0338,,,,,,,,,,,
,,,,,R_91j0bldsWQng2xN,001,2025-09-10_13h20.47.900,continuous_performance_test,2024.2.4,Win32,61.72839506,348.3704,349.9696,space,1,0,2,2,17,1,R,space,0.3169,,,,,,,,,,,
,,,,,R_91j0bldsWQng2xN,001,2025-09-10_13h20.47.900,continuous_performance_test,2024.2.4,Win32,61.72839506,349.9715,351.7711,space,1,0,3,3,8,1,I,space,0.3181,,,,,,,,,,,
,,,,,R_91j0bldsWQng2xN,001,2025-09-10_13h20.47.900,continuous_performance_test,2024.2.4,Win32,61.72839506,351.7731,353.423,space,1,0,4,4,6,1,G,space,0.285,,,,,,,,,,,
,,,,,R_91j0bldsWQng2xN,001,2025-09-10_13h20.47.900,continuous_performance_test,2024.2.4,Win32,61.72839506,353.425,355.2247,space,1,0,5,5,20,1,U,space,0.3528,,,,,,,,,,,
,,,,,R_91j0bldsWQng2xN,001,2025-09-10_13h20.47.900,continuous_performance_test,2024.2.4,Win32,61.72839506,355.2265,356.9752,space,1,0,6,6,13,1,N,space,0.3771,,,,,,,,,,,
,,,,,R_91j0bldsWQng2xN,001,2025-09-10_13h20.47.900,continuous_performance_test,2024.2.4,Win32,61.72839506,356.9772,358.7271,space,1,0,7,7,0,1,A,space,0.5005,,,,,,,,,,,
,,,,,R_91j0bldsWQng2xN,001,2025-09-10_13h20.47.900,continuous_performance_test,2024.2.4,Win32,61.72839506,358.7292,360.4284,space,1,0,8,8,4,1,E,space,0.3507,,,,,,,,,,,
,,,,,R_91j0bldsWQng2xN,001,2025-09-10_13h20.47.900,continuous_performance_test,2024.2.4,Win32,61.72839506,360.4302,361.9797,space,1,0,9,9,5,1,F,space,0.5027,,,,,,,,,,,
,,,,,R_91j0bldsWQng2xN,001,2025-09-10_13h20.47.900,continuous_performance_test,2024.2.4,Win32,61.72839506,361.9816,363.8315,space,1,0,10,10,9,1,J,space,0.3552,,,,,,,,,,,
,,,,,R_91j0bldsWQng2xN,001,2025-09-10_13h20.47.900,continuous_performance_test,2024.2.4,Win32,61.72839506,363.8334,365.6326,space,1,0,11,11,18,1,S,space,0.2836,,,,,,,,,,,
,,,,,R_91j0bldsWQng2xN,001,2025-09-10_13h20.47.900,continuous_performance_test,2024.2.4,Win32,61.72839506,365.6345,367.4867,,1,0,12,12,28,1,X,,,,,,,,,,,,,
,,,,,R_91j0bldsWQng2xN,001,2025-09-10_13h20.47.900,continuous_performance_test,2024.2.4,Win32,61.72839506,367.4892,369.2354,space,1,0,13,13,16,1,Q,space,0.4513,,,,,,,,,,,
,,,,,R_91j0bldsWQng2xN,001,2025-09-10_13h20.47.900,continuous_performance_test,2024.2.4,Win32,61.72839506,369.2372,371.1371,space,1,0,14,14,10,1,K,space,0.3184,,,,,,,,,,,
,,,,,R_91j0bldsWQng2xN,001,2025-09-10_13h20.47.900,continuous_performance_test,2024.2.4,Win32,61.72839506,371.1391,372.7378,,1,0,15,15,26,1,X,,,,,,,,,,,,,
,,,,,R_91j0bldsWQng2xN,001,2025-09-10_13h20.47.900,continuous_performance_test,2024.2.4,Win32,61.72839506,372.7391,374.4402,,0,0,16,16,7,1,H,space,,,,,,,,,,,,
,,,,,R_91j0bldsWQng2xN,001,2025-09-10_13h20.47.900,continuous_performance_test,2024.2.4,Win32,61.72839506,374.442,376.2412,,1,0,17,17,25,1,X,,,,,,,,,,,,,
,,,,,R_91j0bldsWQng2xN,001,2025-09-10_13h20.47.900,continuous_performance_test,2024.2.4,Win32,61.72839506,376.2433,377.9427,space,1,0,18,18,21,1,V,space,0.3856,,,,,,,,,,,
,,,,,R_91j0bldsWQng2xN,001,2025-09-10_13h20.47.900,continuous_performance_test,2024.2.4,Win32,61.72839506,377.9445,379.8447,space,1,0,19,19,1,1,B,space,0.3417,,,,,,,,,,,
,,,,,R_91j0bldsWQng2xN,001,2025-09-10_13h20.47.900,continuous_performance_test,2024.2.4,Win32,61.72839506,379.8466,381.7956,space,1,0,20,20,14,1,O,space,0.3328,,,,,,,,,,,
,,,,,R_91j0bldsWQng2xN,001,2025-09-10_13h20.47.900,continuous_performance_test,2024.2.4,Win32,61.72839506,381.7978,383.4973,,1,0,21,21,27,1,X,,,,,,,,,,,,,
,,,,,R_91j0bldsWQng2xN,001,2025-09-10_13h20.47.900,continuous_performance_test,2024.2.4,Win32,61.72839506,383.4994,385.099,space,1,0,22,22,2,1,C,space,0.3594,,,,,,,,,,,
,,,,,R_91j0bldsWQng2xN,001,2025-09-10_13h20.47.900,continuous_performance_test,2024.2.4,Win32,61.72839506,385.1007,386.9502,space,1,0,23,23,19,1,T,space,0.4067,,,,,,,,,,,
,,,,,R_91j0bldsWQng2xN,001,2025-09-10_13h20.47.900,continuous_performance_test,2024.2.4,Win32,61.72839506,386.9521,388.8516,space,1,0,24,24,23,1,Y,space,0.3334,,,,,,,,,,,
,,,,,R_91j0bldsWQng2xN,001,2025-09-10_13h20.47.900,continuous_performance_test,2024.2.4,Win32,61.72839506,388.8538,390.703,space,1,0,25,25,24,1,Z,space,0.3596,,,,,,,,,,,
,,,,,R_91j0bldsWQng2xN,001,2025-09-10_13h20.47.900,continuous_performance_test,2024.2.4,Win32,61.72839506,390.7049,392.3548,,1,0,26,26,29,1,X,,,,,,,,,,,,,
,,,,,R_91j0bldsWQng2xN,001,2025-09-10_13h20.47.900,continuous_performance_test,2024.2.4,Win32,61.72839506,392.3569,394.0064,space,1,0,27,27,11,1,L,space,0.3846,,,,,,,,,,,
,,,,,R_91j0bldsWQng2xN,001,2025-09-10_13h20.47.900,continuous_performance_test,2024.2.4,Win32,61.72839506,394.0082,395.5572,space,1,0,28,28,12,1,M,space,0.2691,,,,,,,,,,,
,,,,,R_91j0bldsWQng2xN,001,2025-09-10_13h20.47.900,continuous_performance_test,2024.2.4,Win32,61.72839506,395.5591,397.2588,space,1,0,29,29,15,1,P,space,0.3002,,,,,,,,,,,
,,,,,R_91j0bldsWQng2xN,001,2025-09-10_13h20.47.900,continuous_performance_test,2024.2.4,Win32,61.72839506,403.0524,404.5979,space,1,0,0,0,5,1,F,space,0.4668,,397.2599,403.0464,space,5.7545,,,,,,
,,,,,R_91j0bldsWQng2xN,001,2025-09-10_13h20.47.900,continuous_performance_test,2024.2.4,Win32,61.72839506,404.5999,406.4491,space,1,0,1,1,16,1,Q,space,0.4357,,,,,,,,,,,
,,,,,R_91j0bldsWQng2xN,001,2025-09-10_13h20.47.900,continuous_performance_test,2024.2.4,Win32,61.72839506,406.4509,408.101,space,0,0,2,2,27,1,X,,0.3207,,,,,,,,,,,
,,,,,R_91j0bldsWQng2xN,001,2025-09-10_13h20.47.900,continuous_performance_test,2024.2.4,Win32,61.72839506,408.1029,410.0521,space,1,0,3,3,11,1,L,space,0.3849,,,,,,,,,,,
,,,,,R_91j0bldsWQng2xN,001,2025-09-10_13h20.47.900,continuous_performance_test,2024.2.4,Win32,61.72839506,410.0539,411.8042,space,1,0,4,4,9,1,J,space,0.3677,,,,,,,,,,,
,,,,,R_91j0bldsWQng2xN,001,2025-09-10_13h20.47.900,continuous_performance_test,2024.2.4,Win32,61.72839506,411.806,413.4555,,1,0,5,5,29,1,X,,,,,,,,,,,,,
,,,,,R_91j0bldsWQng2xN,001,2025-09-10_13h20.47.900,continuous_performance_test,2024.2.4,Win32,61.72839506,413.4575,415.2061,space,1,0,6,6,6,1,G,space,0.3233,,,,,,,,,,,
,,,,,R_91j0bldsWQng2xN,001,2025-09-10_13h20.47.900,continuous_performance_test,2024.2.4,Win32,61.72839506,415.208,416.7582,space,1,0,7,7,2,1,C,space,0.504,,,,,,,,,,,
,,,,,R_91j0bldsWQng2xN,001,2025-09-10_13h20.47.900,continuous_performance_test,2024.2.4,Win32,61.72839506,416.7603,418.4587,,1,0,8,8,26,1,X,,,,,,,,,,,,,
,,,,,R_91j0bldsWQng2xN,001,2025-09-10_13h20.47.900,continuous_performance_test,2024.2.4,Win32,61.72839506,418.4605,420.4111,space,1,0,9,9,18,1,S,space,0.3741,,,,,,,,,,,
,,,,,R_91j0bldsWQng2xN,001,2025-09-10_13h20.47.900,continuous_performance_test,2024.2.4,Win32,61.72839506,420.413,422.2121,space,1,0,10,10,3,1,D,space,0.4892,,,,,,,,,,,
,,,,,R_91j0bldsWQng2xN,001,2025-09-10_13h20.47.900,continuous_performance_test,2024.2.4,Win32,61.72839506,422.2142,423.8133,space,1,0,11,11,17,1,R,space,0.3412,,,,,,,,,,,
,,,,,R_91j0bldsWQng2xN,001,2025-09-10_13h20.47.900,continuous_performance_test,2024.2.4,Win32,61.72839506,423.8153,425.6151,space,1,0,12,12,7,1,H,space,0.3029,,,,,,,,,,,
,,,,,R_91j0bldsWQng2xN,001,2025-09-10_13h20.47.900,continuous_performance_test,2024.2.4,Win32,61.72839506,425.617,427.2664,space,1,0,13,13,4,1,E,space,0.3342,,,,,,,,,,,
,,,,,R_91j0bldsWQng2xN,001,2025-09-10_13h20.47.900,continuous_performance_test,2024.2.4,Win32,61.72839506,427.2684,429.1241,space,1,0,14,14,10,1,K,space,0.2605,,,,,,,,,,,
,,,,,R_91j0bldsWQng2xN,001,2025-09-10_13h20.47.900,continuous_performance_test,2024.2.4,Win32,61.72839506,429.1254,431.0688,space,1,0,15,15,22,1,W,space,0.2923,,,,,,,,,,,
,,,,,R_91j0bldsWQng2xN,001,2025-09-10_13h20.47.900,continuous_performance_test,2024.2.4,Win32,61.72839506,431.071,432.971,,0,0,16,16,12,1,M,space,,,,,,,,,,,,
,,,,,R_91j0bldsWQng2xN,001,2025-09-10_13h20.47.900,continuous_performance_test,2024.2.4,Win32,61.72839506,432.9731,434.6223,space,1,0,17,17,19,1,T,space,0.2676,,,,,,,,,,,
,,,,,R_91j0bldsWQng2xN,001,2025-09-10_13h20.47.900,continuous_performance_test,2024.2.4,Win32,61.72839506,434.6241,436.5739,,0,0,18,18,23,1,Y,space,,,,,,,,,,,,
,,,,,R_91j0bldsWQng2xN,001,2025-09-10_13h20.47.900,continuous_performance_test,2024.2.4,Win32,61.72839506,436.5759,438.2253,space,1,0,19,19,13,1,N,space,0.4006,,,,,,,,,,,
,,,,,R_91j0bldsWQng2xN,001,2025-09-10_13h20.47.900,continuous_performance_test,2024.2.4,Win32,61.72839506,438.2273,440.2271,space,1,0,20,20,21,1,V,space,0.3688,,,,,,,,,,,
,,,,,R_91j0bldsWQng2xN,001,2025-09-10_13h20.47.900,continuous_performance_test,2024.2.4,Win32,61.72839506,440.2288,442.1787,space,1,0,21,21,15,1,P,space,0.4189,,,,,,,,,,,
,,,,,R_91j0bldsWQng2xN,001,2025-09-10_13h20.47.900,continuous_performance_test,2024.2.4,Win32,61.72839506,442.1807,444.1802,,1,0,22,22,25,1,X,,,,,,,,,,,,,
,,,,,R_91j0bldsWQng2xN,001,2025-09-10_13h20.47.900,continuous_performance_test,2024.2.4,Win32,61.72839506,444.1825,446.082,space,1,0,23,23,8,1,I,space,0.408,,,,,,,,,,,
,,,,,R_91j0bldsWQng2xN,001,2025-09-10_13h20.47.900,continuous_performance_test,2024.2.4,Win32,61.72839506,446.084,447.933,space,1,0,24,24,0,1,A,space,0.5239,,,,,,,,,,,
,,,,,R_91j0bldsWQng2xN,001,2025-09-10_13h20.47.900,continuous_performance_test,2024.2.4,Win32,61.72839506,447.9353,449.485,space,1,0,25,25,20,1,U,space,0.3509,,,,,,,,,,,
,,,,,R_91j0bldsWQng2xN,001,2025-09-10_13h20.47.900,continuous_performance_test,2024.2.4,Win32,61.72839506,449.4866,451.1357,space,1,0,26,26,24,1,Z,space,0.7334,,,,,,,,,,,
,,,,,R_91j0bldsWQng2xN,001,2025-09-10_13h20.47.900,continuous_performance_test,2024.2.4,Win32,61.72839506,451.138,452.8872,space,1,0,27,27,1,1,B,space,0.562,,,,,,,,,,,
,,,,,R_91j0bldsWQng2xN,001,2025-09-10_13h20.47.900,continuous_performance_test,2024.2.4,Win32,61.72839506,452.8898,454.7886,space,1,0,28,28,14,1,O,space,0.3587,,,,,,,,,,,
,,,,,R_91j0bldsWQng2xN,001,2025-09-10_13h20.47.900,continuous_performance_test,2024.2.4,Win32,61.72839506,454.7905,456.7414,,1,0,29,29,28,1,X,,,,,,,,,,,,,
,,,,,R_91j0bldsWQng2xN,001,2025-09-10_13h20.47.900,continuous_performance_test,2024.2.4,Win32,61.72839506,461.77,463.5625,,1,0,0,0,26,1,X,,,,456.7428,461.7612,space,4.9945,,,,,,
,,,,,R_91j0bldsWQng2xN,001,2025-09-10_13h20.47.900,continuous_performance_test,2024.2.4,Win32,61.72839506,463.565,465.3145,space,1,0,1,1,17,1,R,space,0.3839,,,,,,,,,,,
,,,,,R_91j0bldsWQng2xN,001,2025-09-10_13h20.47.900,continuous_performance_test,2024.2.4,Win32,61.72839506,465.3161,467.2156,space,1,0,2,2,23,1,Y,space,0.3547,,,,,,,,,,,
,,,,,R_91j0bldsWQng2xN,001,2025-09-10_13h20.47.900,continuous_performance_test,2024.2.4,Win32,61.72839506,467.2177,468.917,,1,0,3,3,27,1,X,,,,,,,,,,,,,
,,,,,R_91j0bldsWQng2xN,001,2025-09-10_13h20.47.900,continuous_performance_test,2024.2.4,Win32,61.72839506,468.9191,470.4693,space,1,0,4,4,11,1,L,space,0.3555,,,,,,,,,,,
,,,,,R_91j0bldsWQng2xN,001,2025-09-10_13h20.47.900,continuous_performance_test,2024.2.4,Win32,61.72839506,470.4713,472.4702,space,1,0,5,5,9,1,J,space,0.3572,,,,,,,,,,,
,,,,,R_91j0bldsWQng2xN,001,2025-09-10_13h20.47.900,continuous_performance_test,2024.2.4,Win32,61.72839506,472.472,474.3217,,1,0,6,6,29,1,X,,,,,,,,,,,,,
,,,,,R_91j0bldsWQng2xN,001,2025-09-10_13h20.47.900,continuous_performance_test,2024.2.4,Win32,61.72839506,474.3235,476.1233,space,1,0,7,7,3,1,D,space,0.3764,,,,,,,,,,,
,,,,,R_91j0bldsWQng2xN,001,2025-09-10_13h20.47.900,continuous_performance_test,2024.2.4,Win32,61.72839506,476.1257,478.0756,space,1,0,8,8,24,1,Z,space,0.367,,,,,,,,,,,
,,,,,R_91j0bldsWQng2xN,001,2025-09-10_13h20.47.900,continuous_performance_test,2024.2.4,Win32,61.72839506,478.0776,479.8763,space,1,0,9,9,12,1,M,space,0.4047,,,,,,,,,,,
,,,,,R_91j0bldsWQng2xN,001,2025-09-10_13h20.47.900,continuous_performance_test,2024.2.4,Win32,61.72839506,479.8785,481.8284,space,1,0,10,10,15,1,P,space,0.3366,,,,,,,,,,,
,,,,,R_91j0bldsWQng2xN,001,2025-09-10_13h20.47.900,continuous_performance_test,2024.2.4,Win32,61.72839506,481.8302,483.3784,space,1,0,11,11,20,1,U,space,0.4015,,,,,,,,,,,
,,,,,R_91j0bldsWQng2xN,001,2025-09-10_13h20.47.900,continuous_performance_test,2024.2.4,Win32,61.72839506,483.3795,485.1808,space,1,0,12,12,7,1,H,space,0.3511,,,,,,,,,,,
,,,,,R_91j0bldsWQng2xN,001,2025-09-10_13h20.47.900,continuous_performance_test,2024.2.4,Win32,61.72839506,485.1829,486.7323,space,1,0,13,13,1,1,B,space,0.4849,,,,,,,,,,,
,,,,,R_91j0bldsWQng2xN,001,2025-09-10_13h20.47.900,continuous_performance_test,2024.2.4,Win32,61.72839506,486.7341,488.4832,space,1,0,14,14,0,1,A,space,0.518,,,,,,,,,,,
,,,,,R_91j0bldsWQng2xN,001,2025-09-10_13h20.47.900,continuous_performance_test,2024.2.4,Win32,61.72839506,488.4852,490.4347,,1,0,15,15,25,1,X,,,,,,,,,,,,,
,,,,,R_91j0bldsWQng2xN,001,2025-09-10_13h20.47.900,continuous_performance_test,2024.2.4,Win32,61.72839506,490.4368,492.4366,space,1,0,16,16,8,1,I,space,0.4342,,,,,,,,,,,
,,,,,R_91j0bldsWQng2xN,001,2025-09-10_13h20.47.900,continuous_performance_test,2024.2.4,Win32,61.72839506,492.4387,494.0386,space,1,0,17,17,18,1,S,space,0.3672,,,,,,,,,,,
,,,,,R_91j0bldsWQng2xN,001,2025-09-10_13h20.47.900,continuous_performance_test,2024.2.4,Win32,61.72839506,494.0403,495.589,space,1,0,18,18,6,1,G,space,0.6338,,,,,,,,,,,
,,,,,R_91j0bldsWQng2xN,001,2025-09-10_13h20.47.900,continuous_performance_test,2024.2.4,Win32,61.72839506,495.591,497.5911,space,1,0,19,19,2,1,C,space,0.368,,,,,,,,,,,
,,,,,R_91j0bldsWQng2xN,001,2025-09-10_13h20.47.900,continuous_performance_test,2024.2.4,Win32,61.72839506,497.593,499.5424,,0,0,20,20,10,1,K,space,,,,,,,,,,,,
,,,,,R_91j0bldsWQng2xN,001,2025-09-10_13h20.47.900,continuous_performance_test,2024.2.4,Win32,61.72839506,499.5444,501.5441,space,1,0,21,21,5,1,F,space,0.4014,,,,,,,,,,,
,,,,,R_91j0bldsWQng2xN,001,2025-09-10_13h20.47.900,continuous_performance_test,2024.2.4,Win32,61.72839506,501.5459,503.1953,space,1,0,22,22,19,1,T,space,0.5348,,,,,,,,,,,
,,,,,R_91j0bldsWQng2xN,001,2025-09-10_13h20.47.900,continuous_performance_test,2024.2.4,Win32,61.72839506,503.1976,504.7966,space,1,0,23,23,16,1,Q,space,0.2897,,,,,,,,,,,
,,,,,R_91j0bldsWQng2xN,001,2025-09-10_13h20.47.900,continuous_performance_test,2024.2.4,Win32,61.72839506,504.7988,506.4987,space,1,0,24,24,13,1,N,space,0.3878,,,,,,,,,,,
,,,,,R_91j0bldsWQng2xN,001,2025-09-10_13h20.47.900,continuous_performance_test,2024.2.4,Win32,61.72839506,506.5005,508.0999,,1,0,25,25,28,1,X,,,,,,,,,,,,,
,,,,,R_91j0bldsWQng2xN,001,2025-09-10_13h20.47.900,continuous_performance_test,2024.2.4,Win32,61.72839506,508.102,509.6507,,0,0,26,26,22,1,W,space,,,,,,,,,,,,
,,,,,R_91j0bldsWQng2xN,001,2025-09-10_13h20.47.900,continuous_performance_test,2024.2.4,Win32,61.72839506,509.6526,511.2524,space,1,0,27,27,4,1,E,space,0.3497,,,,,,,,,,,
,,,,,R_91j0bldsWQng2xN,001,2025-09-10_13h20.47.900,continuous_performance_test,2024.2.4,Win32,61.72839506,511.2543,513.0536,space,1,0,28,28,14,1,O,space,0.3874,,,,,,,,,,,
,,,,,R_91j0bldsWQng2xN,001,2025-09-10_13h20.47.900,continuous_performance_test,2024.2.4,Win32,61.72839506,513.0555,514.9556,space,1,0,29,29,21,1,V,space,0.4506,,,,,,,,,,,
,,,,,R_91j0bldsWQng2xN,001,2025-09-10_13h20.47.900,continuous_performance_test,2024.2.4,Win32,61.72839506,519.0011,520.943,space,1,0,0,0,2,1,C,space,0.3517,,514.9568,518.9916,space,4.012,,,,,,
,,,,,R_91j0bldsWQng2xN,001,2025-09-10_13h20.47.900,continuous_performance_test,2024.2.4,Win32,61.72839506,520.945,522.7445,space,1,0,1,1,22,1,W,space,0.3744,,,,,,,,,,,
,,,,,R_91j0bldsWQng2xN,001,2025-09-10_13h20.47.900,continuous_performance_test,2024.2.4,Win32,61.72839506,522.7466,524.3957,space,1,0,2,2,5,1,F,space,0.3234,,,,,,,,,,,
,,,,,R_91j0bldsWQng2xN,001,2025-09-10_13h20.47.900,continuous_performance_test,2024.2.4,Win32,61.72839506,524.398,525.9476,space,1,0,3,3,16,1,Q,space,0.3354,,,,,,,,,,,
,,,,,R_91j0bldsWQng2xN,001,2025-09-10_13h20.47.900,continuous_performance_test,2024.2.4,Win32,61.72839506,525.9497,527.8988,space,1,0,4,4,8,1,I,space,0.4404,,,,,,,,,,,
,,,,,R_91j0bldsWQng2xN,001,2025-09-10_13h20.47.900,continuous_performance_test,2024.2.4,Win32,61.72839506,527.9008,529.5006,space,1,0,5,5,21,1,V,space,0.3845,,,,,,,,,,,
,,,,,R_91j0bldsWQng2xN,001,2025-09-10_13h20.47.900,continuous_performance_test,2024.2.4,Win32,61.72839506,529.5024,531.3515,,1,0,6,6,27,1,X,,,,,,,,,,,,,
,,,,,R_91j0bldsWQng2xN,001,2025-09-10_13h20.47.900,continuous_performance_test,2024.2.4,Win32,61.72839506,531.3535,533.0538,space,1,0,7,7,23,1,Y,space,0.4181,,,,,,,,,,,
,,,,,R_91j0bldsWQng2xN,001,2025-09-10_13h20.47.900,continuous_performance_test,2024.2.4,Win32,61.72839506,533.0557,535.0051,space,1,0,8,8,20,1,U,space,0.4186,,,,,,,,,,,
,,,,,R_91j0bldsWQng2xN,001,2025-09-10_13h20.47.900,continuous_performance_test,2024.2.4,Win32,61.72839506,535.0073,536.7062,space,0,0,9,9,28,1,X,,0.5039,,,,,,,,,,,
,,,,,R_91j0bldsWQng2xN,001,2025-09-10_13h20.47.900,continuous_performance_test,2024.2.4,Win32,61.72839506,536.7083,538.4079,space,1,0,10,10,10,1,K,space,0.5845,,,,,,,,,,,
,,,,,R_91j0bldsWQng2xN,001,2025-09-10_13h20.47.900,continuous_performance_test,2024.2.4,Win32,61.72839506,538.4098,540.4093,,1,0,11,11,29,1,X,,,,,,,,,,,,,
,,,,,R_91j0bldsWQng2xN,001,2025-09-10_13h20.47.900,continuous_performance_test,2024.2.4,Win32,61.72839506,540.4114,542.4112,space,1,0,12,12,12,1,M,space,0.4195,,,,,,,,,,,
,,,,,R_91j0bldsWQng2xN,001,2025-09-10_13h20.47.900,continuous_performance_test,2024.2.4,Win32,61.72839506,542.4131,544.1131,space,1,0,13,13,9,1,J,space,0.5391,,,,,,,,,,,
,,,,,R_91j0bldsWQng2xN,001,2025-09-10_13h20.47.900,continuous_performance_test,2024.2.4,Win32,61.72839506,544.115,546.114,space,1,0,14,14,13,1,N,space,0.5336,,,,,,,,,,,
,,,,,R_91j0bldsWQng2xN,001,2025-09-10_13h20.47.900,continuous_performance_test,2024.2.4,Win32,61.72839506,546.1157,547.9156,space,1,0,15,15,15,1,P,space,0.3885,,,,,,,,,,,
,,,,,R_91j0bldsWQng2xN,001,2025-09-10_13h20.47.900,continuous_performance_test,2024.2.4,Win32,61.72839506,547.9177,549.7662,,1,0,16,16,25,1,X,,,,,,,,,,,,,
,,,,,R_91j0bldsWQng2xN,001,2025-09-10_13h20.47.900,continuous_performance_test,2024.2.4,Win32,61.72839506,549.7673,551.3187,space,1,0,17,17,18,1,S,space,0.3837,,,,,,,,,,,
,,,,,R_91j0bldsWQng2xN,001,2025-09-10_13h20.47.900,continuous_performance_test,2024.2.4,Win32,61.72839506,551.3209,553.0193,space,1,0,18,18,24,1,Z,space,0.334,,,,,,,,,,,
,,,,,R_91j0bldsWQng2xN,001,2025-09-10_13h20.47.900,continuous_performance_test,2024.2.4,Win32,61.72839506,553.0218,554.8709,space,1,0,19,19,0,1,A,space,0.3215,,,,,,,,,,,
,,,,,R_91j0bldsWQng2xN,001,2025-09-10_13h20.47.900,continuous_performance_test,2024.2.4,Win32,61.72839506,554.8728,556.7726,space,1,0,20,20,11,1,L,space,0.3381,,,,,,,,,,,
,,,,,R_91j0bldsWQng2xN,001,2025-09-10_13h20.47.900,continuous_performance_test,2024.2.4,Win32,61.72839506,556.7747,558.6741,space,1,0,21,21,14,1,O,space,0.5403,,,,,,,,,,,
,,,,,R_91j0bldsWQng2xN,001,2025-09-10_13h20.47.900,continuous_performance_test,2024.2.4,Win32,61.72839506,558.6761,560.5256,,1,0,22,22,26,1,X,,,,,,,,,,,,,
,,,,,R_91j0bldsWQng2xN,001,2025-09-10_13h20.47.900,continuous_performance_test,2024.2.4,Win32,61.72839506,560.5277,562.5275,space,1,0,23,23,6,1,G,space,0.3849,,,,,,,,,,,
,,,,,R_91j0bldsWQng2xN,001,2025-09-10_13h20.47.900,continuous_performance_test,2024.2.4,Win32,61.72839506,562.5296,564.3291,space,1,0,24,24,7,1,H,space,0.3838,,,,,,,,,,,
,,,,,R_91j0bldsWQng2xN,001,2025-09-10_13h20.47.900,continuous_performance_test,2024.2.4,Win32,61.72839506,564.3312,565.9805,space,1,0,25,25,17,1,R,space,0.3881,,,,,,,,,,,
,,,,,R_91j0bldsWQng2xN,001,2025-09-10_13h20.47.900,continuous_performance_test,2024.2.4,Win32,61.72839506,565.9827,567.982,space,1,0,26,26,4,1,E,space,0.4208,,,,,,,,,,,
,,,,,R_91j0bldsWQng2xN,001,2025-09-10_13h20.47.900,continuous_performance_test,2024.2.4,Win32,61.72839506,567.9838,569.5833,space,1,0,27,27,1,1,B,space,0.3727,,,,,,,,,,,
,,,,,R_91j0bldsWQng2xN,001,2025-09-10_13h20.47.900,continuous_performance_test,2024.2.4,Win32,61.72839506,569.5852,571.3351,space,1,0,28,28,3,1,D,space,0.4945,,,,,,,,,,,
,,,,,R_91j0bldsWQng2xN,001,2025-09-10_13h20.47.900,continuous_performance_test,2024.2.4,Win32,61.72839506,571.337,573.2862,space,1,0,29,29,19,1,T,space,0.5508,,,,,,,,,,,
,,,,,R_91j0bldsWQng2xN,001,2025-09-10_13h20.47.900,continuous_performance_test,2024.2.4,Win32,61.72839506,576.8986,578.691,space,1,0,0,0,5,1,F,space,0.4246,,573.2876,576.8892,space,3.5729,,,,,,
,,,,,R_91j0bldsWQng2xN,001,2025-09-10_13h20.47.900,continuous_performance_test,2024.2.4,Win32,61.72839506,578.693,580.4929,space,1,0,1,1,20,1,U,space,0.4009,,,,,,,,,,,
,,,,,R_91j0bldsWQng2xN,001,2025-09-10_13h20.47.900,continuous_performance_test,2024.2.4,Win32,61.72839506,580.4949,582.2437,space,1,0,2,2,15,1,P,space,0.4098,,,,,,,,,,,
,,,,,R_91j0bldsWQng2xN,001,2025-09-10_13h20.47.900,continuous_performance_test,2024.2.4,Win32,61.72839506,582.2458,584.0953,space,1,0,3,3,3,1,D,space,0.3564,,,,,,,,,,,
,,,,,R_91j0bldsWQng2xN,001,2025-09-10_13h20.47.900,continuous_performance_test,2024.2.4,Win32,61.72839506,584.097,585.7459,,0,0,4,4,13,1,N,space,,,,,,,,,,,,
,,,,,R_91j0bldsWQng2xN,001,2025-09-10_13h20.47.900,continuous_performance_test,2024.2.4,Win32,61.72839506,585.7481,587.548,space,1,0,5,5,21,1,V,space,0.3858,,,,,,,,,,,
,,,,,R_91j0bldsWQng2xN,001,2025-09-10_13h20.47.900,continuous_performance_test,2024.2.4,Win32,61.72839506,587.55,589.5498,space,1,0,6,6,24,1,Z,space,0.6016,,,,,,,,,,,
,,,,,R_91j0bldsWQng2xN,001,2025-09-10_13h20.47.900,continuous_performance_test,2024.2.4,Win32,61.72839506,589.5517,591.4511,space,1,0,7,7,18,1,S,space,0.4364,,,,,,,,,,,
,,,,,R_91j0bldsWQng2xN,001,2025-09-10_13h20.47.900,continuous_performance_test,2024.2.4,Win32,61.72839506,591.453,593.253,space,1,0,8,8,16,1,Q,space,0.4208,,,,,,,,,,,
,,,,,R_91j0bldsWQng2xN,001,2025-09-10_13h20.47.900,continuous_performance_test,2024.2.4,Win32,61.72839506,593.2549,595.2542,space,1,0,9,9,6,1,G,space,0.3946,,,,,,,,,,,
,,,,,R_91j0bldsWQng2xN,001,2025-09-10_13h20.47.900,continuous_performance_test,2024.2.4,Win32,61.72839506,595.2565,596.8555,space,1,0,10,10,1,1,B,space,0.4579,,,,,,,,,,,
,,,,,R_91j0bldsWQng2xN,001,2025-09-10_13h20.47.900,continuous_performance_test,2024.2.4,Win32,61.72839506,596.8573,598.4571,space,1,0,11,11,0,1,A,space,0.4001,,,,,,,,,,,
,,,,,R_91j0bldsWQng2xN,001,2025-09-10_13h20.47.900,continuous_performance_test,2024.2.4,Win32,61.72839506,598.4591,600.0583,,1,0,12,12,28,1,X,,,,,,,,,,,,,
,,,,,R_91j0bldsWQng2xN,001,2025-09-10_13h20.47.900,continuous_performance_test,2024.2.4,Win32,61.72839506,600.06,601.7594,,1,0,13,13,25,1,X,,,,,,,,,,,,,
,,,,,R_91j0bldsWQng2xN,001,2025-09-10_13h20.47.900,continuous_performance_test,2024.2.4,Win32,61.72839506,601.7611,603.761,,1,0,14,14,26,1,X,,,,,,,,,,,,,
,,,,,R_91j0bldsWQng2xN,001,2025-09-10_13h20.47.900,continuous_performance_test,2024.2.4,Win32,61.72839506,603.7626,605.7634,space,1,0,15,15,17,1,R,space,0.4681,,,,,,,,,,,
,,,,,R_91j0bldsWQng2xN,001,2025-09-10_13h20.47.900,continuous_performance_test,2024.2.4,Win32,61.72839506,605.7652,607.6142,space,1,0,16,16,8,1,I,space,0.5426,,,,,,,,,,,
,,,,,R_91j0bldsWQng2xN,001,2025-09-10_13h20.47.900,continuous_performance_test,2024.2.4,Win32,61.72839506,607.6167,609.2657,space,1,0,17,17,19,1,T,space,0.4106,,,,,,,,,,,
,,,,,R_91j0bldsWQng2xN,001,2025-09-10_13h20.47.900,continuous_performance_test,2024.2.4,Win32,61.72839506,609.2681,611.2175,space,1,0,18,18,7,1,H,space,0.4592,,,,,,,,,,,
,,,,,R_91j0bldsWQng2xN,001,2025-09-10_13h20.47.900,continuous_performance_test,2024.2.4,Win32,61.72839506,611.2194,613.119,,1,0,19,19,27,1,X,,,,,,,,,,,,,
,,,,,R_91j0bldsWQng2xN,001,2025-09-10_13h20.47.900,continuous_performance_test,2024.2.4,Win32,61.72839506,613.121,614.8207,space,1,0,20,20,12,1,M,space,0.4411,,,,,,,,,,,
,,,,,R_91j0bldsWQng2xN,001,2025-09-10_13h20.47.900,continuous_performance_test,2024.2.4,Win32,61.72839506,614.8228,616.5744,space,1,0,21,21,14,1,O,space,0.3719,,,,,,,,,,,
,,,,,R_91j0bldsWQng2xN,001,2025-09-10_13h20.47.900,continuous_performance_test,2024.2.4,Win32,61.72839506,616.5765,618.4235,,1,0,22,22,29,1,X,,,,,,,,,,,,,
,,,,,R_91j0bldsWQng2xN,001,2025-09-10_13h20.47.900,continuous_performance_test,2024.2.4,Win32,61.72839506,618.4257,620.0744,space,1,0,23,23,4,1,E,space,0.4005,,,,,,,,,,,
,,,,,R_91j0bldsWQng2xN,001,2025-09-10_13h20.47.900,continuous_performance_test,2024.2.4,Win32,61.72839506,620.0762,621.9266,space,1,0,24,24,2,1,C,space,0.4032,,,,,,,,,,,
,,,,,R_91j0bldsWQng2xN,001,2025-09-10_13h20.47.900,continuous_performance_test,2024.2.4,Win32,61.72839506,621.9285,623.5779,space,1,0,25,25,22,1,W,space,0.4187,,,,,,,,,,,
,,,,,R_91j0bldsWQng2xN,001,2025-09-10_13h20.47.900,continuous_performance_test,2024.2.4,Win32,61.72839506,623.5796,625.5289,space,1,0,26,26,11,1,L,space,0.3667,,,,,,,,,,,
,,,,,R_91j0bldsWQng2xN,001,2025-09-10_13h20.47.900,continuous_performance_test,2024.2.4,Win32,61.72839506,625.5309,627.5309,space,1,0,27,27,9,1,J,space,0.3686,,,,,,,,,,,
,,,,,R_91j0bldsWQng2xN,001,2025-09-10_13h20.47.900,continuous_performance_test,2024.2.4,Win32,61.72839506,627.5327,629.4325,space,1,0,28,28,23,1,Y,space,0.3858,,,,,,,,,,,
,,,,,R_91j0bldsWQng2xN,001,2025-09-10_13h20.47.900,continuous_performance_test,2024.2.4,Win32,61.72839506,629.4345,631.2342,space,1,0,29,29,10,1,K,space,0.3443,,,,,,,,,,,
,,,,,R_91j0bldsWQng2xN,001,2025-09-10_13h20.47.900,continuous_performance_test,2024.2.4,Win32,61.72839506,,,,,,,,,,,,,,631.2355,631.2365,,,,631.2371,642.7275,space,11.4611,
