Instructions.started,Instructions.stopped,key_resp.keys,key_resp.rt,key_resp.duration,participant,session,date,expName,psychopyVersion,OS,frameRate,realeye-tester-id,realeye-tester-quality_grade,Trial_noX.started,Trial_noX.stopped,response.keys,response.corr,response.rt,response.duration,trials_noX.thisRepN,trials_noX.thisTrialN,trials_noX.thisN,trials_noX.thisIndex,trials_noX.ran,letter,corrAns,BlockBreak.started,BlockBreak.stopped,key_instruct.keys,key_instruct.rt,key_instruct.duration,End_NoX.started,End_NoX.stopped,key_resp_end_noX.keys,key_resp_end_noX.rt,key_resp_end_noX.duration
0.0003,29.4774,space,29.4593,,R_91Z3jkYGK0I2dqV,001,2025-08-31_21h21.47.118,continuous_performance_test,2024.2.4,MacIntel,59.88023952,732cf1e0-bfc1-4a40-b085-f9c05987776d,5,,,,,,,,,,,,,,,,,,,,,,,
,,,,,R_91Z3jkYGK0I2dqV,001,2025-08-31_21h21.47.118,continuous_performance_test,2024.2.4,MacIntel,59.88023952,732cf1e0-bfc1-4a40-b085-f9c05987776d,5,29.4938,31.1944,space,1,0.6869,,0,0,0,13,1,N,space,,,,,,,,,,
,,,,,R_91Z3jkYGK0I2dqV,001,2025-08-31_21h21.47.118,continuous_performance_test,2024.2.4,MacIntel,59.88023952,732cf1e0-bfc1-4a40-b085-f9c05987776d,5,31.1969,33.044,space,1,0.3502,,0,1,1,24,1,Z,space,,,,,,,,,,
,,,,,R_91Z3jkYGK0I2dqV,001,2025-08-31_21h21.47.118,continuous_performance_test,2024.2.4,MacIntel,59.88023952,732cf1e0-bfc1-4a40-b085-f9c05987776d,5,33.0461,34.9941,space,1,0.3282,,0,2,2,1,1,B,space,,,,,,,,,,
,,,,,R_91Z3jkYGK0I2dqV,001,2025-08-31_21h21.47.118,continuous_performance_test,2024.2.4,MacIntel,59.88023952,732cf1e0-bfc1-4a40-b085-f9c05987776d,5,34.9961,36.7438,,1,,,0,3,3,29,1,X,,,,,,,,,,,
,,,,,R_91Z3jkYGK0I2dqV,001,2025-08-31_21h21.47.118,continuous_performance_test,2024.2.4,MacIntel,59.88023952,732cf1e0-bfc1-4a40-b085-f9c05987776d,5,36.7455,38.5438,space,1,0.3766,,0,4,4,3,1,D,space,,,,,,,,,,
,,,,,R_91Z3jkYGK0I2dqV,001,2025-08-31_21h21.47.118,continuous_performance_test,2024.2.4,MacIntel,59.88023952,732cf1e0-bfc1-4a40-b085-f9c05987776d,5,38.5453,40.0939,space,1,0.3432,,0,5,5,0,1,A,space,,,,,,,,,,
,,,,,R_91Z3jkYGK0I2dqV,001,2025-08-31_21h21.47.118,continuous_performance_test,2024.2.4,MacIntel,59.88023952,732cf1e0-bfc1-4a40-b085-f9c05987776d,5,40.0954,41.7439,space,1,0.3734,,0,6,6,7,1,H,space,,,,,,,,,,
,,,,,R_91Z3jkYGK0I2dqV,001,2025-08-31_21h21.47.118,continuous_performance_test,2024.2.4,MacIntel,59.88023952,732cf1e0-bfc1-4a40-b085-f9c05987776d,5,41.7454,43.6939,space,1,0.3101,,0,7,7,15,1,P,space,,,,,,,,,,
,,,,,R_91Z3jkYGK0I2dqV,001,2025-08-31_21h21.47.118,continuous_performance_test,2024.2.4,MacIntel,59.88023952,732cf1e0-bfc1-4a40-b085-f9c05987776d,5,43.6956,45.643,space,0,0.3294,,0,8,8,27,1,X,,,,,,,,,,,
,,,,,R_91Z3jkYGK0I2dqV,001,2025-08-31_21h21.47.118,continuous_performance_test,2024.2.4,MacIntel,59.88023952,732cf1e0-bfc1-4a40-b085-f9c05987776d,5,45.6442,47.4439,,1,,,0,9,9,26,1,X,,,,,,,,,,,
,,,,,R_91Z3jkYGK0I2dqV,001,2025-08-31_21h21.47.118,continuous_performance_test,2024.2.4,MacIntel,59.88023952,732cf1e0-bfc1-4a40-b085-f9c05987776d,5,47.4454,49.3939,space,1,0.323,,0,10,10,18,1,S,space,,,,,,,,,,
,,,,,R_91Z3jkYGK0I2dqV,001,2025-08-31_21h21.47.118,continuous_performance_test,2024.2.4,MacIntel,59.88023952,732cf1e0-bfc1-4a40-b085-f9c05987776d,5,49.3957,51.3439,space,1,0.3439,,0,11,11,19,1,T,space,,,,,,,,,,
,,,,,R_91Z3jkYGK0I2dqV,001,2025-08-31_21h21.47.118,continuous_performance_test,2024.2.4,MacIntel,59.88023952,732cf1e0-bfc1-4a40-b085-f9c05987776d,5,51.3453,53.0939,space,1,0.3735,,0,12,12,22,1,W,space,,,,,,,,,,
,,,,,R_91Z3jkYGK0I2dqV,001,2025-08-31_21h21.47.118,continuous_performance_test,2024.2.4,MacIntel,59.88023952,732cf1e0-bfc1-4a40-b085-f9c05987776d,5,53.0954,55.094,space,1,0.3632,,0,13,13,5,1,F,space,,,,,,,,,,
,,,,,R_91Z3jkYGK0I2dqV,001,2025-08-31_21h21.47.118,continuous_performance_test,2024.2.4,MacIntel,59.88023952,732cf1e0-bfc1-4a40-b085-f9c05987776d,5,55.0957,56.944,space,1,0.3962,,0,14,14,8,1,I,space,,,,,,,,,,
,,,,,R_91Z3jkYGK0I2dqV,001,2025-08-31_21h21.47.118,continuous_performance_test,2024.2.4,MacIntel,59.88023952,732cf1e0-bfc1-4a40-b085-f9c05987776d,5,56.9456,58.5936,,1,,,0,15,15,25,1,X,,,,,,,,,,,
,,,,,R_91Z3jkYGK0I2dqV,001,2025-08-31_21h21.47.118,continuous_performance_test,2024.2.4,MacIntel,59.88023952,732cf1e0-bfc1-4a40-b085-f9c05987776d,5,58.5954,60.3432,space,1,0.3534,,0,16,16,21,1,V,space,,,,,,,,,,
,,,,,R_91Z3jkYGK0I2dqV,001,2025-08-31_21h21.47.118,continuous_performance_test,2024.2.4,MacIntel,59.88023952,732cf1e0-bfc1-4a40-b085-f9c05987776d,5,60.3445,62.1438,space,1,0.4069,,0,17,17,14,1,O,space,,,,,,,,,,
,,,,,R_91Z3jkYGK0I2dqV,001,2025-08-31_21h21.47.118,continuous_performance_test,2024.2.4,MacIntel,59.88023952,732cf1e0-bfc1-4a40-b085-f9c05987776d,5,62.1455,64.044,space,1,0.8719,,0,18,18,23,1,Y,space,,,,,,,,,,
,,,,,R_91Z3jkYGK0I2dqV,001,2025-08-31_21h21.47.118,continuous_performance_test,2024.2.4,MacIntel,59.88023952,732cf1e0-bfc1-4a40-b085-f9c05987776d,5,64.0457,65.844,space,1,0.376,,0,19,19,6,1,G,space,,,,,,,,,,
,,,,,R_91Z3jkYGK0I2dqV,001,2025-08-31_21h21.47.118,continuous_performance_test,2024.2.4,MacIntel,59.88023952,732cf1e0-bfc1-4a40-b085-f9c05987776d,5,65.8461,67.494,space,1,0.3246,,0,20,20,2,1,C,space,,,,,,,,,,
,,,,,R_91Z3jkYGK0I2dqV,001,2025-08-31_21h21.47.118,continuous_performance_test,2024.2.4,MacIntel,59.88023952,732cf1e0-bfc1-4a40-b085-f9c05987776d,5,67.4955,69.2941,space,1,0.3574,,0,21,21,11,1,L,space,,,,,,,,,,
,,,,,R_91Z3jkYGK0I2dqV,001,2025-08-31_21h21.47.118,continuous_performance_test,2024.2.4,MacIntel,59.88023952,732cf1e0-bfc1-4a40-b085-f9c05987776d,5,69.2959,70.8441,space,0,0.3622,,0,22,22,28,1,X,,,,,,,,,,,
,,,,,R_91Z3jkYGK0I2dqV,001,2025-08-31_21h21.47.118,continuous_performance_test,2024.2.4,MacIntel,59.88023952,732cf1e0-bfc1-4a40-b085-f9c05987776d,5,70.8459,72.8441,space,1,0.4406,,0,23,23,12,1,M,space,,,,,,,,,,
,,,,,R_91Z3jkYGK0I2dqV,001,2025-08-31_21h21.47.118,continuous_performance_test,2024.2.4,MacIntel,59.88023952,732cf1e0-bfc1-4a40-b085-f9c05987776d,5,72.8455,74.6441,space,1,0.36,,0,24,24,4,1,E,space,,,,,,,,,,
,,,,,R_91Z3jkYGK0I2dqV,001,2025-08-31_21h21.47.118,continuous_performance_test,2024.2.4,MacIntel,59.88023952,732cf1e0-bfc1-4a40-b085-f9c05987776d,5,74.6458,76.6441,space,1,0.3782,,0,25,25,20,1,U,space,,,,,,,,,,
,,,,,R_91Z3jkYGK0I2dqV,001,2025-08-31_21h21.47.118,continuous_performance_test,2024.2.4,MacIntel,59.88023952,732cf1e0-bfc1-4a40-b085-f9c05987776d,5,76.6453,78.3942,space,1,0.4874,,0,26,26,10,1,K,space,,,,,,,,,,
,,,,,R_91Z3jkYGK0I2dqV,001,2025-08-31_21h21.47.118,continuous_performance_test,2024.2.4,MacIntel,59.88023952,732cf1e0-bfc1-4a40-b085-f9c05987776d,5,78.3964,80.1942,space,1,0.3455,,0,27,27,17,1,R,space,,,,,,,,,,
,,,,,R_91Z3jkYGK0I2dqV,001,2025-08-31_21h21.47.118,continuous_performance_test,2024.2.4,MacIntel,59.88023952,732cf1e0-bfc1-4a40-b085-f9c05987776d,5,80.1958,81.9942,space,1,0.3446,,0,28,28,9,1,J,space,,,,,,,,,,
,,,,,R_91Z3jkYGK0I2dqV,001,2025-08-31_21h21.47.118,continuous_performance_test,2024.2.4,MacIntel,59.88023952,732cf1e0-bfc1-4a40-b085-f9c05987776d,5,81.996,83.8442,space,1,0.3734,,0,29,29,16,1,Q,space,,,,,,,,,,
,,,,,R_91Z3jkYGK0I2dqV,001,2025-08-31_21h21.47.118,continuous_performance_test,2024.2.4,MacIntel,59.88023952,732cf1e0-bfc1-4a40-b085-f9c05987776d,5,98.1727,100.1611,space,1,0.4298,,0,0,0,5,1,F,space,83.846,98.1615,space,14.289,,,,,,
,,,,,R_91Z3jkYGK0I2dqV,001,2025-08-31_21h21.47.118,continuous_performance_test,2024.2.4,MacIntel,59.88023952,732cf1e0-bfc1-4a40-b085-f9c05987776d,5,100.1627,101.861,space,1,0.4253,,0,1,1,14,1,O,space,,,,,,,,,,
,,,,,R_91Z3jkYGK0I2dqV,001,2025-08-31_21h21.47.118,continuous_performance_test,2024.2.4,MacIntel,59.88023952,732cf1e0-bfc1-4a40-b085-f9c05987776d,5,101.8628,103.5111,space,1,0.4,,0,2,2,20,1,U,space,,,,,,,,,,
,,,,,R_91Z3jkYGK0I2dqV,001,2025-08-31_21h21.47.118,continuous_performance_test,2024.2.4,MacIntel,59.88023952,732cf1e0-bfc1-4a40-b085-f9c05987776d,5,103.5132,105.2109,space,1,0.3809,,0,3,3,2,1,C,space,,,,,,,,,,
,,,,,R_91Z3jkYGK0I2dqV,001,2025-08-31_21h21.47.118,continuous_performance_test,2024.2.4,MacIntel,59.88023952,732cf1e0-bfc1-4a40-b085-f9c05987776d,5,105.2122,106.7609,space,1,0.4304,,0,4,4,21,1,V,space,,,,,,,,,,
,,,,,R_91Z3jkYGK0I2dqV,001,2025-08-31_21h21.47.118,continuous_performance_test,2024.2.4,MacIntel,59.88023952,732cf1e0-bfc1-4a40-b085-f9c05987776d,5,106.7623,108.511,space,1,0.4155,,0,5,5,1,1,B,space,,,,,,,,,,
,,,,,R_91Z3jkYGK0I2dqV,001,2025-08-31_21h21.47.118,continuous_performance_test,2024.2.4,MacIntel,59.88023952,732cf1e0-bfc1-4a40-b085-f9c05987776d,5,108.5129,110.311,space,1,0.4126,,0,6,6,22,1,W,space,,,,,,,,,,
,,,,,R_91Z3jkYGK0I2dqV,001,2025-08-31_21h21.47.118,continuous_performance_test,2024.2.4,MacIntel,59.88023952,732cf1e0-bfc1-4a40-b085-f9c05987776d,5,110.3124,112.1112,space,1,0.4303,,0,7,7,16,1,Q,space,,,,,,,,,,
,,,,,R_91Z3jkYGK0I2dqV,001,2025-08-31_21h21.47.118,continuous_performance_test,2024.2.4,MacIntel,59.88023952,732cf1e0-bfc1-4a40-b085-f9c05987776d,5,112.1127,114.0611,space,1,0.428,,0,8,8,17,1,R,space,,,,,,,,,,
,,,,,R_91Z3jkYGK0I2dqV,001,2025-08-31_21h21.47.118,continuous_performance_test,2024.2.4,MacIntel,59.88023952,732cf1e0-bfc1-4a40-b085-f9c05987776d,5,114.0626,115.6611,,1,,,0,9,9,25,1,X,,,,,,,,,,,
,,,,,R_91Z3jkYGK0I2dqV,001,2025-08-31_21h21.47.118,continuous_performance_test,2024.2.4,MacIntel,59.88023952,732cf1e0-bfc1-4a40-b085-f9c05987776d,5,115.6627,117.311,space,1,0.4357,,0,10,10,10,1,K,space,,,,,,,,,,
,,,,,R_91Z3jkYGK0I2dqV,001,2025-08-31_21h21.47.118,continuous_performance_test,2024.2.4,MacIntel,59.88023952,732cf1e0-bfc1-4a40-b085-f9c05987776d,5,117.3124,118.9111,,1,,,0,11,11,26,1,X,,,,,,,,,,,
,,,,,R_91Z3jkYGK0I2dqV,001,2025-08-31_21h21.47.118,continuous_performance_test,2024.2.4,MacIntel,59.88023952,732cf1e0-bfc1-4a40-b085-f9c05987776d,5,118.9125,120.8112,space,1,0.4486,,0,12,12,3,1,D,space,,,,,,,,,,
,,,,,R_91Z3jkYGK0I2dqV,001,2025-08-31_21h21.47.118,continuous_performance_test,2024.2.4,MacIntel,59.88023952,732cf1e0-bfc1-4a40-b085-f9c05987776d,5,120.8132,122.661,,1,,,0,13,13,27,1,X,,,,,,,,,,,
,,,,,R_91Z3jkYGK0I2dqV,001,2025-08-31_21h21.47.118,continuous_performance_test,2024.2.4,MacIntel,59.88023952,732cf1e0-bfc1-4a40-b085-f9c05987776d,5,122.6623,124.4612,space,1,0.4417,,0,14,14,11,1,L,space,,,,,,,,,,
,,,,,R_91Z3jkYGK0I2dqV,001,2025-08-31_21h21.47.118,continuous_performance_test,2024.2.4,MacIntel,59.88023952,732cf1e0-bfc1-4a40-b085-f9c05987776d,5,124.4626,126.3109,space,1,0.4631,,0,15,15,9,1,J,space,,,,,,,,,,
,,,,,R_91Z3jkYGK0I2dqV,001,2025-08-31_21h21.47.118,continuous_performance_test,2024.2.4,MacIntel,59.88023952,732cf1e0-bfc1-4a40-b085-f9c05987776d,5,126.3121,128.2112,space,1,0.643,,0,16,16,8,1,I,space,,,,,,,,,,
,,,,,R_91Z3jkYGK0I2dqV,001,2025-08-31_21h21.47.118,continuous_performance_test,2024.2.4,MacIntel,59.88023952,732cf1e0-bfc1-4a40-b085-f9c05987776d,5,128.2124,129.96,space,1,0.4958,,0,17,17,12,1,M,space,,,,,,,,,,
,,,,,R_91Z3jkYGK0I2dqV,001,2025-08-31_21h21.47.118,continuous_performance_test,2024.2.4,MacIntel,59.88023952,732cf1e0-bfc1-4a40-b085-f9c05987776d,5,129.9607,131.7614,space,1,0.4618,,0,18,18,0,1,A,space,,,,,,,,,,
,,,,,R_91Z3jkYGK0I2dqV,001,2025-08-31_21h21.47.118,continuous_performance_test,2024.2.4,MacIntel,59.88023952,732cf1e0-bfc1-4a40-b085-f9c05987776d,5,131.763,133.4106,space,1,0.3798,,0,19,19,18,1,S,space,,,,,,,,,,
,,,,,R_91Z3jkYGK0I2dqV,001,2025-08-31_21h21.47.118,continuous_performance_test,2024.2.4,MacIntel,59.88023952,732cf1e0-bfc1-4a40-b085-f9c05987776d,5,133.4138,135.0612,space,1,0.4797,,0,20,20,7,1,H,space,,,,,,,,,,
,,,,,R_91Z3jkYGK0I2dqV,001,2025-08-31_21h21.47.118,continuous_performance_test,2024.2.4,MacIntel,59.88023952,732cf1e0-bfc1-4a40-b085-f9c05987776d,5,135.0627,136.8613,,1,,,0,21,21,28,1,X,,,,,,,,,,,
,,,,,R_91Z3jkYGK0I2dqV,001,2025-08-31_21h21.47.118,continuous_performance_test,2024.2.4,MacIntel,59.88023952,732cf1e0-bfc1-4a40-b085-f9c05987776d,5,136.8625,138.761,,1,,,0,22,22,29,1,X,,,,,,,,,,,
,,,,,R_91Z3jkYGK0I2dqV,001,2025-08-31_21h21.47.118,continuous_performance_test,2024.2.4,MacIntel,59.88023952,732cf1e0-bfc1-4a40-b085-f9c05987776d,5,138.7617,140.6615,space,1,0.4535,,0,23,23,23,1,Y,space,,,,,,,,,,
,,,,,R_91Z3jkYGK0I2dqV,001,2025-08-31_21h21.47.118,continuous_performance_test,2024.2.4,MacIntel,59.88023952,732cf1e0-bfc1-4a40-b085-f9c05987776d,5,140.6634,142.3112,space,1,0.3803,,0,24,24,6,1,G,space,,,,,,,,,,
,,,,,R_91Z3jkYGK0I2dqV,001,2025-08-31_21h21.47.118,continuous_performance_test,2024.2.4,MacIntel,59.88023952,732cf1e0-bfc1-4a40-b085-f9c05987776d,5,142.3127,144.1614,space,1,0.3951,,0,25,25,19,1,T,space,,,,,,,,,,
,,,,,R_91Z3jkYGK0I2dqV,001,2025-08-31_21h21.47.118,continuous_performance_test,2024.2.4,MacIntel,59.88023952,732cf1e0-bfc1-4a40-b085-f9c05987776d,5,144.1631,145.8114,space,1,0.3911,,0,26,26,15,1,P,space,,,,,,,,,,
,,,,,R_91Z3jkYGK0I2dqV,001,2025-08-31_21h21.47.118,continuous_performance_test,2024.2.4,MacIntel,59.88023952,732cf1e0-bfc1-4a40-b085-f9c05987776d,5,145.8129,147.7614,space,1,0.3635,,0,27,27,24,1,Z,space,,,,,,,,,,
,,,,,R_91Z3jkYGK0I2dqV,001,2025-08-31_21h21.47.118,continuous_performance_test,2024.2.4,MacIntel,59.88023952,732cf1e0-bfc1-4a40-b085-f9c05987776d,5,147.7631,149.4615,space,1,0.5945,,0,28,28,13,1,N,space,,,,,,,,,,
,,,,,R_91Z3jkYGK0I2dqV,001,2025-08-31_21h21.47.118,continuous_performance_test,2024.2.4,MacIntel,59.88023952,732cf1e0-bfc1-4a40-b085-f9c05987776d,5,149.4632,151.0114,space,1,0.3649,,0,29,29,4,1,E,space,,,,,,,,,,
,,,,,R_91Z3jkYGK0I2dqV,001,2025-08-31_21h21.47.118,continuous_performance_test,2024.2.4,MacIntel,59.88023952,732cf1e0-bfc1-4a40-b085-f9c05987776d,5,166.0223,167.5616,,0,,,0,0,0,17,1,R,space,151.0145,166.0114,,,,,,,,
,,,,,R_91Z3jkYGK0I2dqV,001,2025-08-31_21h21.47.118,continuous_performance_test,2024.2.4,MacIntel,59.88023952,732cf1e0-bfc1-4a40-b085-f9c05987776d,5,167.5633,169.4615,space,1,0.4295,,0,1,1,2,1,C,space,,,,,,,,,,
,,,,,R_91Z3jkYGK0I2dqV,001,2025-08-31_21h21.47.118,continuous_performance_test,2024.2.4,MacIntel,59.88023952,732cf1e0-bfc1-4a40-b085-f9c05987776d,5,169.463,171.4614,,1,,,0,2,2,27,1,X,,,,,,,,,,,
,,,,,R_91Z3jkYGK0I2dqV,001,2025-08-31_21h21.47.118,continuous_performance_test,2024.2.4,MacIntel,59.88023952,732cf1e0-bfc1-4a40-b085-f9c05987776d,5,171.4626,173.4617,space,1,0.4159,,0,3,3,24,1,Z,space,,,,,,,,,,
,,,,,R_91Z3jkYGK0I2dqV,001,2025-08-31_21h21.47.118,continuous_performance_test,2024.2.4,MacIntel,59.88023952,732cf1e0-bfc1-4a40-b085-f9c05987776d,5,173.4636,175.4616,space,1,0.4685,,0,4,4,15,1,P,space,,,,,,,,,,
,,,,,R_91Z3jkYGK0I2dqV,001,2025-08-31_21h21.47.118,continuous_performance_test,2024.2.4,MacIntel,59.88023952,732cf1e0-bfc1-4a40-b085-f9c05987776d,5,175.4643,177.0113,space,1,0.389,,0,5,5,21,1,V,space,,,,,,,,,,
,,,,,R_91Z3jkYGK0I2dqV,001,2025-08-31_21h21.47.118,continuous_performance_test,2024.2.4,MacIntel,59.88023952,732cf1e0-bfc1-4a40-b085-f9c05987776d,5,177.012,178.7116,space,1,0.4776,,0,6,6,11,1,L,space,,,,,,,,,,
,,,,,R_91Z3jkYGK0I2dqV,001,2025-08-31_21h21.47.118,continuous_performance_test,2024.2.4,MacIntel,59.88023952,732cf1e0-bfc1-4a40-b085-f9c05987776d,5,178.713,180.4116,space,1,0.3931,,0,7,7,14,1,O,space,,,,,,,,,,
,,,,,R_91Z3jkYGK0I2dqV,001,2025-08-31_21h21.47.118,continuous_performance_test,2024.2.4,MacIntel,59.88023952,732cf1e0-bfc1-4a40-b085-f9c05987776d,5,180.413,182.1115,space,1,0.3798,,0,8,8,19,1,T,space,,,,,,,,,,
,,,,,R_91Z3jkYGK0I2dqV,001,2025-08-31_21h21.47.118,continuous_performance_test,2024.2.4,MacIntel,59.88023952,732cf1e0-bfc1-4a40-b085-f9c05987776d,5,182.1125,184.0117,,1,,,0,9,9,26,1,X,,,,,,,,,,,
,,,,,R_91Z3jkYGK0I2dqV,001,2025-08-31_21h21.47.118,continuous_performance_test,2024.2.4,MacIntel,59.88023952,732cf1e0-bfc1-4a40-b085-f9c05987776d,5,184.0138,185.8616,,1,,,0,10,10,29,1,X,,,,,,,,,,,
,,,,,R_91Z3jkYGK0I2dqV,001,2025-08-31_21h21.47.118,continuous_performance_test,2024.2.4,MacIntel,59.88023952,732cf1e0-bfc1-4a40-b085-f9c05987776d,5,185.8629,187.8616,space,1,0.4501,,0,11,11,16,1,Q,space,,,,,,,,,,
,,,,,R_91Z3jkYGK0I2dqV,001,2025-08-31_21h21.47.118,continuous_performance_test,2024.2.4,MacIntel,59.88023952,732cf1e0-bfc1-4a40-b085-f9c05987776d,5,187.8649,189.4608,space,1,0.4032,,0,12,12,5,1,F,space,,,,,,,,,,
,,,,,R_91Z3jkYGK0I2dqV,001,2025-08-31_21h21.47.118,continuous_performance_test,2024.2.4,MacIntel,59.88023952,732cf1e0-bfc1-4a40-b085-f9c05987776d,5,189.4621,191.1619,space,1,0.3983,,0,13,13,18,1,S,space,,,,,,,,,,
,,,,,R_91Z3jkYGK0I2dqV,001,2025-08-31_21h21.47.118,continuous_performance_test,2024.2.4,MacIntel,59.88023952,732cf1e0-bfc1-4a40-b085-f9c05987776d,5,191.1644,193.0113,space,1,0.411,,0,14,14,7,1,H,space,,,,,,,,,,
,,,,,R_91Z3jkYGK0I2dqV,001,2025-08-31_21h21.47.118,continuous_performance_test,2024.2.4,MacIntel,59.88023952,732cf1e0-bfc1-4a40-b085-f9c05987776d,5,193.0119,194.8117,space,1,0.363,,0,15,15,9,1,J,space,,,,,,,,,,
,,,,,R_91Z3jkYGK0I2dqV,001,2025-08-31_21h21.47.118,continuous_performance_test,2024.2.4,MacIntel,59.88023952,732cf1e0-bfc1-4a40-b085-f9c05987776d,5,194.8139,196.7614,,1,,,0,16,16,25,1,X,,,,,,,,,,,
,,,,,R_91Z3jkYGK0I2dqV,001,2025-08-31_21h21.47.118,continuous_performance_test,2024.2.4,MacIntel,59.88023952,732cf1e0-bfc1-4a40-b085-f9c05987776d,5,196.7621,198.4619,space,1,0.46,,0,17,17,1,1,B,space,,,,,,,,,,
,,,,,R_91Z3jkYGK0I2dqV,001,2025-08-31_21h21.47.118,continuous_performance_test,2024.2.4,MacIntel,59.88023952,732cf1e0-bfc1-4a40-b085-f9c05987776d,5,198.4647,200.3118,space,1,0.4124,,0,18,18,0,1,A,space,,,,,,,,,,
,,,,,R_91Z3jkYGK0I2dqV,001,2025-08-31_21h21.47.118,continuous_performance_test,2024.2.4,MacIntel,59.88023952,732cf1e0-bfc1-4a40-b085-f9c05987776d,5,200.3137,202.0615,space,1,0.4485,,0,19,19,6,1,G,space,,,,,,,,,,
,,,,,R_91Z3jkYGK0I2dqV,001,2025-08-31_21h21.47.118,continuous_performance_test,2024.2.4,MacIntel,59.88023952,732cf1e0-bfc1-4a40-b085-f9c05987776d,5,202.0625,203.8619,space,1,0.3495,,0,20,20,23,1,Y,space,,,,,,,,,,
,,,,,R_91Z3jkYGK0I2dqV,001,2025-08-31_21h21.47.118,continuous_performance_test,2024.2.4,MacIntel,59.88023952,732cf1e0-bfc1-4a40-b085-f9c05987776d,5,203.8639,205.7112,space,1,0.3333,,0,21,21,13,1,N,space,,,,,,,,,,
,,,,,R_91Z3jkYGK0I2dqV,001,2025-08-31_21h21.47.118,continuous_performance_test,2024.2.4,MacIntel,59.88023952,732cf1e0-bfc1-4a40-b085-f9c05987776d,5,205.7126,207.312,space,1,0.3635,,0,22,22,20,1,U,space,,,,,,,,,,
,,,,,R_91Z3jkYGK0I2dqV,001,2025-08-31_21h21.47.118,continuous_performance_test,2024.2.4,MacIntel,59.88023952,732cf1e0-bfc1-4a40-b085-f9c05987776d,5,207.3155,209.1121,space,1,0.3522,,0,23,23,8,1,I,space,,,,,,,,,,
,,,,,R_91Z3jkYGK0I2dqV,001,2025-08-31_21h21.47.118,continuous_performance_test,2024.2.4,MacIntel,59.88023952,732cf1e0-bfc1-4a40-b085-f9c05987776d,5,209.1139,210.812,space,0,0.3634,,0,24,24,28,1,X,,,,,,,,,,,
,,,,,R_91Z3jkYGK0I2dqV,001,2025-08-31_21h21.47.118,continuous_performance_test,2024.2.4,MacIntel,59.88023952,732cf1e0-bfc1-4a40-b085-f9c05987776d,5,210.8143,212.4111,space,1,0.3599,,0,25,25,12,1,M,space,,,,,,,,,,
,,,,,R_91Z3jkYGK0I2dqV,001,2025-08-31_21h21.47.118,continuous_performance_test,2024.2.4,MacIntel,59.88023952,732cf1e0-bfc1-4a40-b085-f9c05987776d,5,212.4124,214.2122,space,1,0.3793,,0,26,26,3,1,D,space,,,,,,,,,,
,,,,,R_91Z3jkYGK0I2dqV,001,2025-08-31_21h21.47.118,continuous_performance_test,2024.2.4,MacIntel,59.88023952,732cf1e0-bfc1-4a40-b085-f9c05987776d,5,214.2136,216.162,space,1,0.4522,,0,27,27,10,1,K,space,,,,,,,,,,
,,,,,R_91Z3jkYGK0I2dqV,001,2025-08-31_21h21.47.118,continuous_performance_test,2024.2.4,MacIntel,59.88023952,732cf1e0-bfc1-4a40-b085-f9c05987776d,5,216.1636,218.062,space,1,0.3438,,0,28,28,22,1,W,space,,,,,,,,,,
,,,,,R_91Z3jkYGK0I2dqV,001,2025-08-31_21h21.47.118,continuous_performance_test,2024.2.4,MacIntel,59.88023952,732cf1e0-bfc1-4a40-b085-f9c05987776d,5,218.0645,220.0122,space,1,0.3971,,0,29,29,4,1,E,space,,,,,,,,,,
,,,,,R_91Z3jkYGK0I2dqV,001,2025-08-31_21h21.47.118,continuous_performance_test,2024.2.4,MacIntel,59.88023952,732cf1e0-bfc1-4a40-b085-f9c05987776d,5,229.4362,231.1778,space,1,0.3935,,0,0,0,22,1,W,space,220.0157,229.4275,space,9.3995,,,,,,
,,,,,R_91Z3jkYGK0I2dqV,001,2025-08-31_21h21.47.118,continuous_performance_test,2024.2.4,MacIntel,59.88023952,732cf1e0-bfc1-4a40-b085-f9c05987776d,5,231.1796,233.1779,space,1,0.4138,,0,1,1,20,1,U,space,,,,,,,,,,
,,,,,R_91Z3jkYGK0I2dqV,001,2025-08-31_21h21.47.118,continuous_performance_test,2024.2.4,MacIntel,59.88023952,732cf1e0-bfc1-4a40-b085-f9c05987776d,5,233.1795,234.8279,space,1,0.4027,,0,2,2,18,1,S,space,,,,,,,,,,
,,,,,R_91Z3jkYGK0I2dqV,001,2025-08-31_21h21.47.118,continuous_performance_test,2024.2.4,MacIntel,59.88023952,732cf1e0-bfc1-4a40-b085-f9c05987776d,5,234.8295,236.7776,space,1,0.3961,,0,3,3,3,1,D,space,,,,,,,,,,
,,,,,R_91Z3jkYGK0I2dqV,001,2025-08-31_21h21.47.118,continuous_performance_test,2024.2.4,MacIntel,59.88023952,732cf1e0-bfc1-4a40-b085-f9c05987776d,5,236.7783,238.479,space,1,0.3867,,0,4,4,21,1,V,space,,,,,,,,,,
,,,,,R_91Z3jkYGK0I2dqV,001,2025-08-31_21h21.47.118,continuous_performance_test,2024.2.4,MacIntel,59.88023952,732cf1e0-bfc1-4a40-b085-f9c05987776d,5,238.4809,240.428,space,1,0.4336,,0,5,5,14,1,O,space,,,,,,,,,,
,,,,,R_91Z3jkYGK0I2dqV,001,2025-08-31_21h21.47.118,continuous_performance_test,2024.2.4,MacIntel,59.88023952,732cf1e0-bfc1-4a40-b085-f9c05987776d,5,240.4296,242.0289,space,1,0.4312,,0,6,6,11,1,L,space,,,,,,,,,,
,,,,,R_91Z3jkYGK0I2dqV,001,2025-08-31_21h21.47.118,continuous_performance_test,2024.2.4,MacIntel,59.88023952,732cf1e0-bfc1-4a40-b085-f9c05987776d,5,242.0305,243.6279,,1,,,0,7,7,28,1,X,,,,,,,,,,,
,,,,,R_91Z3jkYGK0I2dqV,001,2025-08-31_21h21.47.118,continuous_performance_test,2024.2.4,MacIntel,59.88023952,732cf1e0-bfc1-4a40-b085-f9c05987776d,5,243.6296,245.629,space,1,0.4814,,0,8,8,12,1,M,space,,,,,,,,,,
,,,,,R_91Z3jkYGK0I2dqV,001,2025-08-31_21h21.47.118,continuous_performance_test,2024.2.4,MacIntel,59.88023952,732cf1e0-bfc1-4a40-b085-f9c05987776d,5,245.6309,247.2789,space,1,0.3636,,0,9,9,19,1,T,space,,,,,,,,,,
,,,,,R_91Z3jkYGK0I2dqV,001,2025-08-31_21h21.47.118,continuous_performance_test,2024.2.4,MacIntel,59.88023952,732cf1e0-bfc1-4a40-b085-f9c05987776d,5,247.28,249.2781,space,1,0.381,,0,10,10,6,1,G,space,,,,,,,,,,
,,,,,R_91Z3jkYGK0I2dqV,001,2025-08-31_21h21.47.118,continuous_performance_test,2024.2.4,MacIntel,59.88023952,732cf1e0-bfc1-4a40-b085-f9c05987776d,5,249.2795,250.8789,space,1,0.3639,,0,11,11,1,1,B,space,,,,,,,,,,
,,,,,R_91Z3jkYGK0I2dqV,001,2025-08-31_21h21.47.118,continuous_performance_test,2024.2.4,MacIntel,59.88023952,732cf1e0-bfc1-4a40-b085-f9c05987776d,5,250.8801,252.8288,space,1,0.35,,0,12,12,16,1,Q,space,,,,,,,,,,
,,,,,R_91Z3jkYGK0I2dqV,001,2025-08-31_21h21.47.118,continuous_performance_test,2024.2.4,MacIntel,59.88023952,732cf1e0-bfc1-4a40-b085-f9c05987776d,5,252.83,254.529,space,1,0.3475,,0,13,13,23,1,Y,space,,,,,,,,,,
,,,,,R_91Z3jkYGK0I2dqV,001,2025-08-31_21h21.47.118,continuous_performance_test,2024.2.4,MacIntel,59.88023952,732cf1e0-bfc1-4a40-b085-f9c05987776d,5,254.5307,256.079,space,1,0.3677,,0,14,14,7,1,H,space,,,,,,,,,,
,,,,,R_91Z3jkYGK0I2dqV,001,2025-08-31_21h21.47.118,continuous_performance_test,2024.2.4,MacIntel,59.88023952,732cf1e0-bfc1-4a40-b085-f9c05987776d,5,256.0805,257.6289,,1,,,0,15,15,29,1,X,,,,,,,,,,,
,,,,,R_91Z3jkYGK0I2dqV,001,2025-08-31_21h21.47.118,continuous_performance_test,2024.2.4,MacIntel,59.88023952,732cf1e0-bfc1-4a40-b085-f9c05987776d,5,257.6304,259.479,space,1,0.4132,,0,16,16,24,1,Z,space,,,,,,,,,,
,,,,,R_91Z3jkYGK0I2dqV,001,2025-08-31_21h21.47.118,continuous_performance_test,2024.2.4,MacIntel,59.88023952,732cf1e0-bfc1-4a40-b085-f9c05987776d,5,259.4809,261.4789,space,1,0.5972,,0,17,17,13,1,N,space,,,,,,,,,,
,,,,,R_91Z3jkYGK0I2dqV,001,2025-08-31_21h21.47.118,continuous_performance_test,2024.2.4,MacIntel,59.88023952,732cf1e0-bfc1-4a40-b085-f9c05987776d,5,261.4805,263.2291,,1,,,0,18,18,26,1,X,,,,,,,,,,,
,,,,,R_91Z3jkYGK0I2dqV,001,2025-08-31_21h21.47.118,continuous_performance_test,2024.2.4,MacIntel,59.88023952,732cf1e0-bfc1-4a40-b085-f9c05987776d,5,263.2306,264.7781,space,1,0.4295,,0,19,19,2,1,C,space,,,,,,,,,,
,,,,,R_91Z3jkYGK0I2dqV,001,2025-08-31_21h21.47.118,continuous_performance_test,2024.2.4,MacIntel,59.88023952,732cf1e0-bfc1-4a40-b085-f9c05987776d,5,264.7797,266.729,space,1,0.4337,,0,20,20,0,1,A,space,,,,,,,,,,
,,,,,R_91Z3jkYGK0I2dqV,001,2025-08-31_21h21.47.118,continuous_performance_test,2024.2.4,MacIntel,59.88023952,732cf1e0-bfc1-4a40-b085-f9c05987776d,5,266.7303,268.6792,space,1,0.4312,,0,21,21,5,1,F,space,,,,,,,,,,
,,,,,R_91Z3jkYGK0I2dqV,001,2025-08-31_21h21.47.118,continuous_performance_test,2024.2.4,MacIntel,59.88023952,732cf1e0-bfc1-4a40-b085-f9c05987776d,5,268.6805,270.6789,,1,,,0,22,22,27,1,X,,,,,,,,,,,
,,,,,R_91Z3jkYGK0I2dqV,001,2025-08-31_21h21.47.118,continuous_performance_test,2024.2.4,MacIntel,59.88023952,732cf1e0-bfc1-4a40-b085-f9c05987776d,5,270.6803,272.429,space,1,0.3851,,0,23,23,17,1,R,space,,,,,,,,,,
,,,,,R_91Z3jkYGK0I2dqV,001,2025-08-31_21h21.47.118,continuous_performance_test,2024.2.4,MacIntel,59.88023952,732cf1e0-bfc1-4a40-b085-f9c05987776d,5,272.4302,274.4289,space,1,0.3799,,0,24,24,15,1,P,space,,,,,,,,,,
,,,,,R_91Z3jkYGK0I2dqV,001,2025-08-31_21h21.47.118,continuous_performance_test,2024.2.4,MacIntel,59.88023952,732cf1e0-bfc1-4a40-b085-f9c05987776d,5,274.4301,276.3293,space,1,0.431,,0,25,25,10,1,K,space,,,,,,,,,,
,,,,,R_91Z3jkYGK0I2dqV,001,2025-08-31_21h21.47.118,continuous_performance_test,2024.2.4,MacIntel,59.88023952,732cf1e0-bfc1-4a40-b085-f9c05987776d,5,276.3308,278.2291,space,1,0.6166,,0,26,26,9,1,J,space,,,,,,,,,,
,,,,,R_91Z3jkYGK0I2dqV,001,2025-08-31_21h21.47.118,continuous_performance_test,2024.2.4,MacIntel,59.88023952,732cf1e0-bfc1-4a40-b085-f9c05987776d,5,278.231,280.1782,space,1,0.4805,,0,27,27,4,1,E,space,,,,,,,,,,
,,,,,R_91Z3jkYGK0I2dqV,001,2025-08-31_21h21.47.118,continuous_performance_test,2024.2.4,MacIntel,59.88023952,732cf1e0-bfc1-4a40-b085-f9c05987776d,5,280.1797,282.0293,,1,,,0,28,28,25,1,X,,,,,,,,,,,
,,,,,R_91Z3jkYGK0I2dqV,001,2025-08-31_21h21.47.118,continuous_performance_test,2024.2.4,MacIntel,59.88023952,732cf1e0-bfc1-4a40-b085-f9c05987776d,5,282.0309,283.6789,space,1,0.4426,,0,29,29,8,1,I,space,,,,,,,,,,
,,,,,R_91Z3jkYGK0I2dqV,001,2025-08-31_21h21.47.118,continuous_performance_test,2024.2.4,MacIntel,59.88023952,732cf1e0-bfc1-4a40-b085-f9c05987776d,5,294.2514,296.1459,,1,,,0,0,0,28,1,X,,283.6827,294.2463,space,10.5545,,,,,,
,,,,,R_91Z3jkYGK0I2dqV,001,2025-08-31_21h21.47.118,continuous_performance_test,2024.2.4,MacIntel,59.88023952,732cf1e0-bfc1-4a40-b085-f9c05987776d,5,296.1474,298.0957,space,1,0.3946,,0,1,1,11,1,L,space,,,,,,,,,,
,,,,,R_91Z3jkYGK0I2dqV,001,2025-08-31_21h21.47.118,continuous_performance_test,2024.2.4,MacIntel,59.88023952,732cf1e0-bfc1-4a40-b085-f9c05987776d,5,298.097,300.0956,space,1,0.4463,,0,2,2,2,1,C,space,,,,,,,,,,
,,,,,R_91Z3jkYGK0I2dqV,001,2025-08-31_21h21.47.118,continuous_performance_test,2024.2.4,MacIntel,59.88023952,732cf1e0-bfc1-4a40-b085-f9c05987776d,5,300.0972,301.6463,,1,,,0,3,3,29,1,X,,,,,,,,,,,
,,,,,R_91Z3jkYGK0I2dqV,001,2025-08-31_21h21.47.118,continuous_performance_test,2024.2.4,MacIntel,59.88023952,732cf1e0-bfc1-4a40-b085-f9c05987776d,5,301.6481,303.2459,space,1,0.3968,,0,4,4,7,1,H,space,,,,,,,,,,
,,,,,R_91Z3jkYGK0I2dqV,001,2025-08-31_21h21.47.118,continuous_performance_test,2024.2.4,MacIntel,59.88023952,732cf1e0-bfc1-4a40-b085-f9c05987776d,5,303.2474,304.8462,space,1,0.4133,,0,5,5,24,1,Z,space,,,,,,,,,,
,,,,,R_91Z3jkYGK0I2dqV,001,2025-08-31_21h21.47.118,continuous_performance_test,2024.2.4,MacIntel,59.88023952,732cf1e0-bfc1-4a40-b085-f9c05987776d,5,304.8477,306.5961,space,1,0.401,,0,6,6,14,1,O,space,,,,,,,,,,
,,,,,R_91Z3jkYGK0I2dqV,001,2025-08-31_21h21.47.118,continuous_performance_test,2024.2.4,MacIntel,59.88023952,732cf1e0-bfc1-4a40-b085-f9c05987776d,5,306.5977,308.4461,space,1,0.4121,,0,7,7,10,1,K,space,,,,,,,,,,
,,,,,R_91Z3jkYGK0I2dqV,001,2025-08-31_21h21.47.118,continuous_performance_test,2024.2.4,MacIntel,59.88023952,732cf1e0-bfc1-4a40-b085-f9c05987776d,5,308.4476,310.1951,space,1,0.3804,,0,8,8,20,1,U,space,,,,,,,,,,
,,,,,R_91Z3jkYGK0I2dqV,001,2025-08-31_21h21.47.118,continuous_performance_test,2024.2.4,MacIntel,59.88023952,732cf1e0-bfc1-4a40-b085-f9c05987776d,5,310.1962,312.196,space,1,0.4156,,0,9,9,4,1,E,space,,,,,,,,,,
,,,,,R_91Z3jkYGK0I2dqV,001,2025-08-31_21h21.47.118,continuous_performance_test,2024.2.4,MacIntel,59.88023952,732cf1e0-bfc1-4a40-b085-f9c05987776d,5,312.1974,313.8457,space,1,0.3999,,0,10,10,0,1,A,space,,,,,,,,,,
,,,,,R_91Z3jkYGK0I2dqV,001,2025-08-31_21h21.47.118,continuous_performance_test,2024.2.4,MacIntel,59.88023952,732cf1e0-bfc1-4a40-b085-f9c05987776d,5,313.8469,315.6961,space,1,0.4626,,0,11,11,5,1,F,space,,,,,,,,,,
,,,,,R_91Z3jkYGK0I2dqV,001,2025-08-31_21h21.47.118,continuous_performance_test,2024.2.4,MacIntel,59.88023952,732cf1e0-bfc1-4a40-b085-f9c05987776d,5,315.6976,317.6461,space,1,0.3957,,0,12,12,19,1,T,space,,,,,,,,,,
,,,,,R_91Z3jkYGK0I2dqV,001,2025-08-31_21h21.47.118,continuous_performance_test,2024.2.4,MacIntel,59.88023952,732cf1e0-bfc1-4a40-b085-f9c05987776d,5,317.6481,319.4961,space,1,0.3779,,0,13,13,3,1,D,space,,,,,,,,,,
,,,,,R_91Z3jkYGK0I2dqV,001,2025-08-31_21h21.47.118,continuous_performance_test,2024.2.4,MacIntel,59.88023952,732cf1e0-bfc1-4a40-b085-f9c05987776d,5,319.4978,321.3951,space,1,0.4633,,0,14,14,1,1,B,space,,,,,,,,,,
,,,,,R_91Z3jkYGK0I2dqV,001,2025-08-31_21h21.47.118,continuous_performance_test,2024.2.4,MacIntel,59.88023952,732cf1e0-bfc1-4a40-b085-f9c05987776d,5,321.3966,323.2461,space,1,0.3964,,0,15,15,15,1,P,space,,,,,,,,,,
,,,,,R_91Z3jkYGK0I2dqV,001,2025-08-31_21h21.47.118,continuous_performance_test,2024.2.4,MacIntel,59.88023952,732cf1e0-bfc1-4a40-b085-f9c05987776d,5,323.247,324.7962,space,1,0.3853,,0,16,16,16,1,Q,space,,,,,,,,,,
,,,,,R_91Z3jkYGK0I2dqV,001,2025-08-31_21h21.47.118,continuous_performance_test,2024.2.4,MacIntel,59.88023952,732cf1e0-bfc1-4a40-b085-f9c05987776d,5,324.7974,326.3461,space,1,0.5011,,0,17,17,18,1,S,space,,,,,,,,,,
,,,,,R_91Z3jkYGK0I2dqV,001,2025-08-31_21h21.47.118,continuous_performance_test,2024.2.4,MacIntel,59.88023952,732cf1e0-bfc1-4a40-b085-f9c05987776d,5,326.3474,327.9961,space,1,0.3623,,0,18,18,17,1,R,space,,,,,,,,,,
,,,,,R_91Z3jkYGK0I2dqV,001,2025-08-31_21h21.47.118,continuous_performance_test,2024.2.4,MacIntel,59.88023952,732cf1e0-bfc1-4a40-b085-f9c05987776d,5,327.9975,329.7463,space,0,0.3612,,0,19,19,27,1,X,,,,,,,,,,,
,,,,,R_91Z3jkYGK0I2dqV,001,2025-08-31_21h21.47.118,continuous_performance_test,2024.2.4,MacIntel,59.88023952,732cf1e0-bfc1-4a40-b085-f9c05987776d,5,329.7474,331.5461,,1,,,0,20,20,25,1,X,,,,,,,,,,,
,,,,,R_91Z3jkYGK0I2dqV,001,2025-08-31_21h21.47.118,continuous_performance_test,2024.2.4,MacIntel,59.88023952,732cf1e0-bfc1-4a40-b085-f9c05987776d,5,331.5472,333.3963,,1,,,0,21,21,26,1,X,,,,,,,,,,,
,,,,,R_91Z3jkYGK0I2dqV,001,2025-08-31_21h21.47.118,continuous_performance_test,2024.2.4,MacIntel,59.88023952,732cf1e0-bfc1-4a40-b085-f9c05987776d,5,333.3977,335.3962,space,1,0.4944,,0,22,22,22,1,W,space,,,,,,,,,,
,,,,,R_91Z3jkYGK0I2dqV,001,2025-08-31_21h21.47.118,continuous_performance_test,2024.2.4,MacIntel,59.88023952,732cf1e0-bfc1-4a40-b085-f9c05987776d,5,335.3974,337.3462,space,1,0.4678,,0,23,23,21,1,V,space,,,,,,,,,,
,,,,,R_91Z3jkYGK0I2dqV,001,2025-08-31_21h21.47.118,continuous_performance_test,2024.2.4,MacIntel,59.88023952,732cf1e0-bfc1-4a40-b085-f9c05987776d,5,337.3474,338.9957,space,1,0.4969,,0,24,24,23,1,Y,space,,,,,,,,,,
,,,,,R_91Z3jkYGK0I2dqV,001,2025-08-31_21h21.47.118,continuous_performance_test,2024.2.4,MacIntel,59.88023952,732cf1e0-bfc1-4a40-b085-f9c05987776d,5,338.9969,340.8464,space,1,0.4635,,0,25,25,6,1,G,space,,,,,,,,,,
,,,,,R_91Z3jkYGK0I2dqV,001,2025-08-31_21h21.47.118,continuous_performance_test,2024.2.4,MacIntel,59.88023952,732cf1e0-bfc1-4a40-b085-f9c05987776d,5,340.8478,342.6962,space,1,0.4972,,0,26,26,8,1,I,space,,,,,,,,,,
,,,,,R_91Z3jkYGK0I2dqV,001,2025-08-31_21h21.47.118,continuous_performance_test,2024.2.4,MacIntel,59.88023952,732cf1e0-bfc1-4a40-b085-f9c05987776d,5,342.6975,344.2456,space,1,0.4275,,0,27,27,13,1,N,space,,,,,,,,,,
,,,,,R_91Z3jkYGK0I2dqV,001,2025-08-31_21h21.47.118,continuous_performance_test,2024.2.4,MacIntel,59.88023952,732cf1e0-bfc1-4a40-b085-f9c05987776d,5,344.2468,346.1963,space,1,0.4967,,0,28,28,9,1,J,space,,,,,,,,,,
,,,,,R_91Z3jkYGK0I2dqV,001,2025-08-31_21h21.47.118,continuous_performance_test,2024.2.4,MacIntel,59.88023952,732cf1e0-bfc1-4a40-b085-f9c05987776d,5,346.198,347.9463,space,1,0.5144,,0,29,29,12,1,M,space,,,,,,,,,,
,,,,,R_91Z3jkYGK0I2dqV,001,2025-08-31_21h21.47.118,continuous_performance_test,2024.2.4,MacIntel,59.88023952,732cf1e0-bfc1-4a40-b085-f9c05987776d,5,361.9876,363.7294,space,1,0.4061,,0,0,0,6,1,G,space,347.9475,361.9803,space,14.0119,,,,,,
,,,,,R_91Z3jkYGK0I2dqV,001,2025-08-31_21h21.47.118,continuous_performance_test,2024.2.4,MacIntel,59.88023952,732cf1e0-bfc1-4a40-b085-f9c05987776d,5,363.731,365.6791,,1,,,0,1,1,29,1,X,,,,,,,,,,,
,,,,,R_91Z3jkYGK0I2dqV,001,2025-08-31_21h21.47.118,continuous_performance_test,2024.2.4,MacIntel,59.88023952,732cf1e0-bfc1-4a40-b085-f9c05987776d,5,365.6806,367.2299,space,1,0.397,,0,2,2,17,1,R,space,,,,,,,,,,
,,,,,R_91Z3jkYGK0I2dqV,001,2025-08-31_21h21.47.118,continuous_performance_test,2024.2.4,MacIntel,59.88023952,732cf1e0-bfc1-4a40-b085-f9c05987776d,5,367.2317,369.2298,space,1,0.3934,,0,3,3,22,1,W,space,,,,,,,,,,
,,,,,R_91Z3jkYGK0I2dqV,001,2025-08-31_21h21.47.118,continuous_performance_test,2024.2.4,MacIntel,59.88023952,732cf1e0-bfc1-4a40-b085-f9c05987776d,5,369.231,371.0299,space,1,0.3665,,0,4,4,7,1,H,space,,,,,,,,,,
,,,,,R_91Z3jkYGK0I2dqV,001,2025-08-31_21h21.47.118,continuous_performance_test,2024.2.4,MacIntel,59.88023952,732cf1e0-bfc1-4a40-b085-f9c05987776d,5,371.0312,373.0296,space,1,0.4087,,0,5,5,20,1,U,space,,,,,,,,,,
,,,,,R_91Z3jkYGK0I2dqV,001,2025-08-31_21h21.47.118,continuous_performance_test,2024.2.4,MacIntel,59.88023952,732cf1e0-bfc1-4a40-b085-f9c05987776d,5,373.0304,374.6299,space,1,0.3937,,0,6,6,16,1,Q,space,,,,,,,,,,
,,,,,R_91Z3jkYGK0I2dqV,001,2025-08-31_21h21.47.118,continuous_performance_test,2024.2.4,MacIntel,59.88023952,732cf1e0-bfc1-4a40-b085-f9c05987776d,5,374.6314,376.63,space,1,0.4026,,0,7,7,5,1,F,space,,,,,,,,,,
,,,,,R_91Z3jkYGK0I2dqV,001,2025-08-31_21h21.47.118,continuous_performance_test,2024.2.4,MacIntel,59.88023952,732cf1e0-bfc1-4a40-b085-f9c05987776d,5,376.6314,378.2299,space,1,0.4112,,0,8,8,9,1,J,space,,,,,,,,,,
,,,,,R_91Z3jkYGK0I2dqV,001,2025-08-31_21h21.47.118,continuous_performance_test,2024.2.4,MacIntel,59.88023952,732cf1e0-bfc1-4a40-b085-f9c05987776d,5,378.2312,380.13,space,1,0.3624,,0,9,9,3,1,D,space,,,,,,,,,,
,,,,,R_91Z3jkYGK0I2dqV,001,2025-08-31_21h21.47.118,continuous_performance_test,2024.2.4,MacIntel,59.88023952,732cf1e0-bfc1-4a40-b085-f9c05987776d,5,380.1316,382.03,space,0,0.3299,,0,10,10,28,1,X,,,,,,,,,,,
,,,,,R_91Z3jkYGK0I2dqV,001,2025-08-31_21h21.47.118,continuous_performance_test,2024.2.4,MacIntel,59.88023952,732cf1e0-bfc1-4a40-b085-f9c05987776d,5,382.0315,383.9301,space,1,0.5454,,0,11,11,24,1,Z,space,,,,,,,,,,
,,,,,R_91Z3jkYGK0I2dqV,001,2025-08-31_21h21.47.118,continuous_performance_test,2024.2.4,MacIntel,59.88023952,732cf1e0-bfc1-4a40-b085-f9c05987776d,5,383.9316,385.629,space,1,0.5808,,0,12,12,8,1,I,space,,,,,,,,,,
,,,,,R_91Z3jkYGK0I2dqV,001,2025-08-31_21h21.47.118,continuous_performance_test,2024.2.4,MacIntel,59.88023952,732cf1e0-bfc1-4a40-b085-f9c05987776d,5,385.6303,387.5801,space,1,0.4349,,0,13,13,2,1,C,space,,,,,,,,,,
,,,,,R_91Z3jkYGK0I2dqV,001,2025-08-31_21h21.47.118,continuous_performance_test,2024.2.4,MacIntel,59.88023952,732cf1e0-bfc1-4a40-b085-f9c05987776d,5,387.5816,389.5801,space,1,0.4397,,0,14,14,15,1,P,space,,,,,,,,,,
,,,,,R_91Z3jkYGK0I2dqV,001,2025-08-31_21h21.47.118,continuous_performance_test,2024.2.4,MacIntel,59.88023952,732cf1e0-bfc1-4a40-b085-f9c05987776d,5,389.5811,391.4801,space,1,0.4463,,0,15,15,13,1,N,space,,,,,,,,,,
,,,,,R_91Z3jkYGK0I2dqV,001,2025-08-31_21h21.47.118,continuous_performance_test,2024.2.4,MacIntel,59.88023952,732cf1e0-bfc1-4a40-b085-f9c05987776d,5,391.4816,393.2302,space,1,0.5313,,0,16,16,12,1,M,space,,,,,,,,,,
,,,,,R_91Z3jkYGK0I2dqV,001,2025-08-31_21h21.47.118,continuous_performance_test,2024.2.4,MacIntel,59.88023952,732cf1e0-bfc1-4a40-b085-f9c05987776d,5,393.2319,395.18,space,1,0.4296,,0,17,17,14,1,O,space,,,,,,,,,,
,,,,,R_91Z3jkYGK0I2dqV,001,2025-08-31_21h21.47.118,continuous_performance_test,2024.2.4,MacIntel,59.88023952,732cf1e0-bfc1-4a40-b085-f9c05987776d,5,395.1812,396.98,space,1,0.4134,,0,18,18,1,1,B,space,,,,,,,,,,
,,,,,R_91Z3jkYGK0I2dqV,001,2025-08-31_21h21.47.118,continuous_performance_test,2024.2.4,MacIntel,59.88023952,732cf1e0-bfc1-4a40-b085-f9c05987776d,5,396.9812,398.7301,,1,,,0,19,19,25,1,X,,,,,,,,,,,
,,,,,R_91Z3jkYGK0I2dqV,001,2025-08-31_21h21.47.118,continuous_performance_test,2024.2.4,MacIntel,59.88023952,732cf1e0-bfc1-4a40-b085-f9c05987776d,5,398.7311,400.6802,,1,,,0,20,20,26,1,X,,,,,,,,,,,
,,,,,R_91Z3jkYGK0I2dqV,001,2025-08-31_21h21.47.118,continuous_performance_test,2024.2.4,MacIntel,59.88023952,732cf1e0-bfc1-4a40-b085-f9c05987776d,5,400.6816,402.3802,space,1,0.4854,,0,21,21,10,1,K,space,,,,,,,,,,
,,,,,R_91Z3jkYGK0I2dqV,001,2025-08-31_21h21.47.118,continuous_performance_test,2024.2.4,MacIntel,59.88023952,732cf1e0-bfc1-4a40-b085-f9c05987776d,5,402.3819,404.1801,space,1,0.3939,,0,22,22,23,1,Y,space,,,,,,,,,,
,,,,,R_91Z3jkYGK0I2dqV,001,2025-08-31_21h21.47.118,continuous_performance_test,2024.2.4,MacIntel,59.88023952,732cf1e0-bfc1-4a40-b085-f9c05987776d,5,404.1814,405.7802,space,1,0.4085,,0,23,23,11,1,L,space,,,,,,,,,,
,,,,,R_91Z3jkYGK0I2dqV,001,2025-08-31_21h21.47.118,continuous_performance_test,2024.2.4,MacIntel,59.88023952,732cf1e0-bfc1-4a40-b085-f9c05987776d,5,405.7819,407.63,space,1,0.5958,,0,24,24,4,1,E,space,,,,,,,,,,
,,,,,R_91Z3jkYGK0I2dqV,001,2025-08-31_21h21.47.118,continuous_performance_test,2024.2.4,MacIntel,59.88023952,732cf1e0-bfc1-4a40-b085-f9c05987776d,5,407.6314,409.6301,space,1,0.3971,,0,25,25,19,1,T,space,,,,,,,,,,
,,,,,R_91Z3jkYGK0I2dqV,001,2025-08-31_21h21.47.118,continuous_performance_test,2024.2.4,MacIntel,59.88023952,732cf1e0-bfc1-4a40-b085-f9c05987776d,5,409.6318,411.2302,,1,,,0,26,26,27,1,X,,,,,,,,,,,
,,,,,R_91Z3jkYGK0I2dqV,001,2025-08-31_21h21.47.118,continuous_performance_test,2024.2.4,MacIntel,59.88023952,732cf1e0-bfc1-4a40-b085-f9c05987776d,5,411.2317,413.03,space,1,0.4463,,0,27,27,21,1,V,space,,,,,,,,,,
,,,,,R_91Z3jkYGK0I2dqV,001,2025-08-31_21h21.47.118,continuous_performance_test,2024.2.4,MacIntel,59.88023952,732cf1e0-bfc1-4a40-b085-f9c05987776d,5,413.0312,414.9304,space,1,0.3961,,0,28,28,0,1,A,space,,,,,,,,,,
,,,,,R_91Z3jkYGK0I2dqV,001,2025-08-31_21h21.47.118,continuous_performance_test,2024.2.4,MacIntel,59.88023952,732cf1e0-bfc1-4a40-b085-f9c05987776d,5,414.9318,416.5302,space,1,0.4311,,0,29,29,18,1,S,space,,,,,,,,,,
,,,,,R_91Z3jkYGK0I2dqV,001,2025-08-31_21h21.47.118,continuous_performance_test,2024.2.4,MacIntel,59.88023952,732cf1e0-bfc1-4a40-b085-f9c05987776d,5,429.4038,431.197,space,1,0.4681,,0,0,0,11,1,L,space,416.5317,429.3969,space,12.8419,,,,,,
,,,,,R_91Z3jkYGK0I2dqV,001,2025-08-31_21h21.47.118,continuous_performance_test,2024.2.4,MacIntel,59.88023952,732cf1e0-bfc1-4a40-b085-f9c05987776d,5,431.1984,433.1471,space,1,0.4172,,0,1,1,4,1,E,space,,,,,,,,,,
,,,,,R_91Z3jkYGK0I2dqV,001,2025-08-31_21h21.47.118,continuous_performance_test,2024.2.4,MacIntel,59.88023952,732cf1e0-bfc1-4a40-b085-f9c05987776d,5,433.1488,434.697,space,1,0.3682,,0,2,2,21,1,V,space,,,,,,,,,,
,,,,,R_91Z3jkYGK0I2dqV,001,2025-08-31_21h21.47.118,continuous_performance_test,2024.2.4,MacIntel,59.88023952,732cf1e0-bfc1-4a40-b085-f9c05987776d,5,434.6985,436.597,space,1,0.3962,,0,3,3,23,1,Y,space,,,,,,,,,,
,,,,,R_91Z3jkYGK0I2dqV,001,2025-08-31_21h21.47.118,continuous_performance_test,2024.2.4,MacIntel,59.88023952,732cf1e0-bfc1-4a40-b085-f9c05987776d,5,436.5983,438.2971,space,1,0.4158,,0,4,4,13,1,N,space,,,,,,,,,,
,,,,,R_91Z3jkYGK0I2dqV,001,2025-08-31_21h21.47.118,continuous_performance_test,2024.2.4,MacIntel,59.88023952,732cf1e0-bfc1-4a40-b085-f9c05987776d,5,438.2983,439.9471,space,1,0.3969,,0,5,5,18,1,S,space,,,,,,,,,,
,,,,,R_91Z3jkYGK0I2dqV,001,2025-08-31_21h21.47.118,continuous_performance_test,2024.2.4,MacIntel,59.88023952,732cf1e0-bfc1-4a40-b085-f9c05987776d,5,439.9487,441.6471,space,1,0.4292,,0,6,6,2,1,C,space,,,,,,,,,,
,,,,,R_91Z3jkYGK0I2dqV,001,2025-08-31_21h21.47.118,continuous_performance_test,2024.2.4,MacIntel,59.88023952,732cf1e0-bfc1-4a40-b085-f9c05987776d,5,441.6487,443.3473,space,1,0.3972,,0,7,7,5,1,F,space,,,,,,,,,,
,,,,,R_91Z3jkYGK0I2dqV,001,2025-08-31_21h21.47.118,continuous_performance_test,2024.2.4,MacIntel,59.88023952,732cf1e0-bfc1-4a40-b085-f9c05987776d,5,443.3487,445.2973,,1,,,0,8,8,25,1,X,,,,,,,,,,,
,,,,,R_91Z3jkYGK0I2dqV,001,2025-08-31_21h21.47.118,continuous_performance_test,2024.2.4,MacIntel,59.88023952,732cf1e0-bfc1-4a40-b085-f9c05987776d,5,445.2989,446.9472,space,1,0.414,,0,9,9,6,1,G,space,,,,,,,,,,
,,,,,R_91Z3jkYGK0I2dqV,001,2025-08-31_21h21.47.118,continuous_performance_test,2024.2.4,MacIntel,59.88023952,732cf1e0-bfc1-4a40-b085-f9c05987776d,5,446.9483,448.5472,space,1,0.4139,,0,10,10,9,1,J,space,,,,,,,,,,
,,,,,R_91Z3jkYGK0I2dqV,001,2025-08-31_21h21.47.118,continuous_performance_test,2024.2.4,MacIntel,59.88023952,732cf1e0-bfc1-4a40-b085-f9c05987776d,5,448.5487,450.4472,space,1,0.5131,,0,11,11,10,1,K,space,,,,,,,,,,
,,,,,R_91Z3jkYGK0I2dqV,001,2025-08-31_21h21.47.118,continuous_performance_test,2024.2.4,MacIntel,59.88023952,732cf1e0-bfc1-4a40-b085-f9c05987776d,5,450.4486,452.2472,space,1,0.4129,,0,12,12,15,1,P,space,,,,,,,,,,
,,,,,R_91Z3jkYGK0I2dqV,001,2025-08-31_21h21.47.118,continuous_performance_test,2024.2.4,MacIntel,59.88023952,732cf1e0-bfc1-4a40-b085-f9c05987776d,5,452.2489,454.0971,,1,,,0,13,13,29,1,X,,,,,,,,,,,
,,,,,R_91Z3jkYGK0I2dqV,001,2025-08-31_21h21.47.118,continuous_performance_test,2024.2.4,MacIntel,59.88023952,732cf1e0-bfc1-4a40-b085-f9c05987776d,5,454.0986,455.6471,space,1,0.5127,,0,14,14,16,1,Q,space,,,,,,,,,,
,,,,,R_91Z3jkYGK0I2dqV,001,2025-08-31_21h21.47.118,continuous_performance_test,2024.2.4,MacIntel,59.88023952,732cf1e0-bfc1-4a40-b085-f9c05987776d,5,455.6488,457.6465,,1,,,0,15,15,26,1,X,,,,,,,,,,,
,,,,,R_91Z3jkYGK0I2dqV,001,2025-08-31_21h21.47.118,continuous_performance_test,2024.2.4,MacIntel,59.88023952,732cf1e0-bfc1-4a40-b085-f9c05987776d,5,457.648,459.3965,space,1,0.4157,,0,16,16,8,1,I,space,,,,,,,,,,
,,,,,R_91Z3jkYGK0I2dqV,001,2025-08-31_21h21.47.118,continuous_performance_test,2024.2.4,MacIntel,59.88023952,732cf1e0-bfc1-4a40-b085-f9c05987776d,5,459.3977,460.9972,,1,,,0,17,17,27,1,X,,,,,,,,,,,
,,,,,R_91Z3jkYGK0I2dqV,001,2025-08-31_21h21.47.118,continuous_performance_test,2024.2.4,MacIntel,59.88023952,732cf1e0-bfc1-4a40-b085-f9c05987776d,5,460.9982,462.6473,space,1,0.4357,,0,18,18,7,1,H,space,,,,,,,,,,
,,,,,R_91Z3jkYGK0I2dqV,001,2025-08-31_21h21.47.118,continuous_performance_test,2024.2.4,MacIntel,59.88023952,732cf1e0-bfc1-4a40-b085-f9c05987776d,5,462.6487,464.3974,space,1,0.4308,,0,19,19,14,1,O,space,,,,,,,,,,
,,,,,R_91Z3jkYGK0I2dqV,001,2025-08-31_21h21.47.118,continuous_performance_test,2024.2.4,MacIntel,59.88023952,732cf1e0-bfc1-4a40-b085-f9c05987776d,5,464.399,466.2973,,1,,,0,20,20,28,1,X,,,,,,,,,,,
,,,,,R_91Z3jkYGK0I2dqV,001,2025-08-31_21h21.47.118,continuous_performance_test,2024.2.4,MacIntel,59.88023952,732cf1e0-bfc1-4a40-b085-f9c05987776d,5,466.2987,468.0973,space,1,0.3961,,0,21,21,17,1,R,space,,,,,,,,,,
,,,,,R_91Z3jkYGK0I2dqV,001,2025-08-31_21h21.47.118,continuous_performance_test,2024.2.4,MacIntel,59.88023952,732cf1e0-bfc1-4a40-b085-f9c05987776d,5,468.0989,469.9974,space,1,0.4544,,0,22,22,3,1,D,space,,,,,,,,,,
,,,,,R_91Z3jkYGK0I2dqV,001,2025-08-31_21h21.47.118,continuous_performance_test,2024.2.4,MacIntel,59.88023952,732cf1e0-bfc1-4a40-b085-f9c05987776d,5,469.999,471.6975,space,1,0.4181,,0,23,23,22,1,W,space,,,,,,,,,,
,,,,,R_91Z3jkYGK0I2dqV,001,2025-08-31_21h21.47.118,continuous_performance_test,2024.2.4,MacIntel,59.88023952,732cf1e0-bfc1-4a40-b085-f9c05987776d,5,471.699,473.3973,space,1,0.4135,,0,24,24,24,1,Z,space,,,,,,,,,,
,,,,,R_91Z3jkYGK0I2dqV,001,2025-08-31_21h21.47.118,continuous_performance_test,2024.2.4,MacIntel,59.88023952,732cf1e0-bfc1-4a40-b085-f9c05987776d,5,473.3988,475.0464,space,1,0.3964,,0,25,25,0,1,A,space,,,,,,,,,,
,,,,,R_91Z3jkYGK0I2dqV,001,2025-08-31_21h21.47.118,continuous_performance_test,2024.2.4,MacIntel,59.88023952,732cf1e0-bfc1-4a40-b085-f9c05987776d,5,475.0478,476.597,space,1,0.4011,,0,26,26,12,1,M,space,,,,,,,,,,
,,,,,R_91Z3jkYGK0I2dqV,001,2025-08-31_21h21.47.118,continuous_performance_test,2024.2.4,MacIntel,59.88023952,732cf1e0-bfc1-4a40-b085-f9c05987776d,5,476.598,478.4474,space,1,0.3949,,0,27,27,1,1,B,space,,,,,,,,,,
,,,,,R_91Z3jkYGK0I2dqV,001,2025-08-31_21h21.47.118,continuous_performance_test,2024.2.4,MacIntel,59.88023952,732cf1e0-bfc1-4a40-b085-f9c05987776d,5,478.449,480.3465,space,1,0.3747,,0,28,28,20,1,U,space,,,,,,,,,,
,,,,,R_91Z3jkYGK0I2dqV,001,2025-08-31_21h21.47.118,continuous_performance_test,2024.2.4,MacIntel,59.88023952,732cf1e0-bfc1-4a40-b085-f9c05987776d,5,480.3481,482.1965,space,1,0.3804,,0,29,29,19,1,T,space,,,,,,,,,,
,,,,,R_91Z3jkYGK0I2dqV,001,2025-08-31_21h21.47.118,continuous_performance_test,2024.2.4,MacIntel,59.88023952,732cf1e0-bfc1-4a40-b085-f9c05987776d,5,497.2057,499.0967,space,1,0.408,,0,0,0,13,1,N,space,482.1983,497.1977,,,,,,,,
,,,,,R_91Z3jkYGK0I2dqV,001,2025-08-31_21h21.47.118,continuous_performance_test,2024.2.4,MacIntel,59.88023952,732cf1e0-bfc1-4a40-b085-f9c05987776d,5,499.0983,501.0976,space,1,0.395,,0,1,1,3,1,D,space,,,,,,,,,,
,,,,,R_91Z3jkYGK0I2dqV,001,2025-08-31_21h21.47.118,continuous_performance_test,2024.2.4,MacIntel,59.88023952,732cf1e0-bfc1-4a40-b085-f9c05987776d,5,501.0993,502.8976,space,1,0.3799,,0,2,2,22,1,W,space,,,,,,,,,,
,,,,,R_91Z3jkYGK0I2dqV,001,2025-08-31_21h21.47.118,continuous_performance_test,2024.2.4,MacIntel,59.88023952,732cf1e0-bfc1-4a40-b085-f9c05987776d,5,502.8991,504.6471,space,1,0.3952,,0,3,3,9,1,J,space,,,,,,,,,,
,,,,,R_91Z3jkYGK0I2dqV,001,2025-08-31_21h21.47.118,continuous_performance_test,2024.2.4,MacIntel,59.88023952,732cf1e0-bfc1-4a40-b085-f9c05987776d,5,504.6489,506.6478,space,1,0.3826,,0,4,4,20,1,U,space,,,,,,,,,,
,,,,,R_91Z3jkYGK0I2dqV,001,2025-08-31_21h21.47.118,continuous_performance_test,2024.2.4,MacIntel,59.88023952,732cf1e0-bfc1-4a40-b085-f9c05987776d,5,506.6493,508.5476,space,1,0.4315,,0,5,5,23,1,Y,space,,,,,,,,,,
,,,,,R_91Z3jkYGK0I2dqV,001,2025-08-31_21h21.47.118,continuous_performance_test,2024.2.4,MacIntel,59.88023952,732cf1e0-bfc1-4a40-b085-f9c05987776d,5,508.5489,510.5477,space,1,0.4176,,0,6,6,17,1,R,space,,,,,,,,,,
,,,,,R_91Z3jkYGK0I2dqV,001,2025-08-31_21h21.47.118,continuous_performance_test,2024.2.4,MacIntel,59.88023952,732cf1e0-bfc1-4a40-b085-f9c05987776d,5,510.5493,512.1478,space,1,0.3968,,0,7,7,18,1,S,space,,,,,,,,,,
,,,,,R_91Z3jkYGK0I2dqV,001,2025-08-31_21h21.47.118,continuous_performance_test,2024.2.4,MacIntel,59.88023952,732cf1e0-bfc1-4a40-b085-f9c05987776d,5,512.1493,514.0977,space,1,0.3908,,0,8,8,11,1,L,space,,,,,,,,,,
,,,,,R_91Z3jkYGK0I2dqV,001,2025-08-31_21h21.47.118,continuous_performance_test,2024.2.4,MacIntel,59.88023952,732cf1e0-bfc1-4a40-b085-f9c05987776d,5,514.099,515.9469,space,1,0.4173,,0,9,9,7,1,H,space,,,,,,,,,,
,,,,,R_91Z3jkYGK0I2dqV,001,2025-08-31_21h21.47.118,continuous_performance_test,2024.2.4,MacIntel,59.88023952,732cf1e0-bfc1-4a40-b085-f9c05987776d,5,515.9484,517.4978,space,1,0.4325,,0,10,10,1,1,B,space,,,,,,,,,,
,,,,,R_91Z3jkYGK0I2dqV,001,2025-08-31_21h21.47.118,continuous_performance_test,2024.2.4,MacIntel,59.88023952,732cf1e0-bfc1-4a40-b085-f9c05987776d,5,517.4992,519.0478,space,1,0.397,,0,11,11,6,1,G,space,,,,,,,,,,
,,,,,R_91Z3jkYGK0I2dqV,001,2025-08-31_21h21.47.118,continuous_performance_test,2024.2.4,MacIntel,59.88023952,732cf1e0-bfc1-4a40-b085-f9c05987776d,5,519.0493,520.9478,space,1,0.4,,0,12,12,15,1,P,space,,,,,,,,,,
,,,,,R_91Z3jkYGK0I2dqV,001,2025-08-31_21h21.47.118,continuous_performance_test,2024.2.4,MacIntel,59.88023952,732cf1e0-bfc1-4a40-b085-f9c05987776d,5,520.9494,522.6979,,1,,,0,13,13,26,1,X,,,,,,,,,,,
,,,,,R_91Z3jkYGK0I2dqV,001,2025-08-31_21h21.47.118,continuous_performance_test,2024.2.4,MacIntel,59.88023952,732cf1e0-bfc1-4a40-b085-f9c05987776d,5,522.6996,524.347,space,1,0.4766,,0,14,14,16,1,Q,space,,,,,,,,,,
,,,,,R_91Z3jkYGK0I2dqV,001,2025-08-31_21h21.47.118,continuous_performance_test,2024.2.4,MacIntel,59.88023952,732cf1e0-bfc1-4a40-b085-f9c05987776d,5,524.3485,525.9979,space,1,0.392,,0,15,15,5,1,F,space,,,,,,,,,,
,,,,,R_91Z3jkYGK0I2dqV,001,2025-08-31_21h21.47.118,continuous_performance_test,2024.2.4,MacIntel,59.88023952,732cf1e0-bfc1-4a40-b085-f9c05987776d,5,525.9994,527.597,space,1,0.397,,0,16,16,2,1,C,space,,,,,,,,,,
,,,,,R_91Z3jkYGK0I2dqV,001,2025-08-31_21h21.47.118,continuous_performance_test,2024.2.4,MacIntel,59.88023952,732cf1e0-bfc1-4a40-b085-f9c05987776d,5,527.5985,529.5479,space,1,0.3745,,0,17,17,0,1,A,space,,,,,,,,,,
,,,,,R_91Z3jkYGK0I2dqV,001,2025-08-31_21h21.47.118,continuous_performance_test,2024.2.4,MacIntel,59.88023952,732cf1e0-bfc1-4a40-b085-f9c05987776d,5,529.5494,531.348,,1,,,0,18,18,25,1,X,,,,,,,,,,,
,,,,,R_91Z3jkYGK0I2dqV,001,2025-08-31_21h21.47.118,continuous_performance_test,2024.2.4,MacIntel,59.88023952,732cf1e0-bfc1-4a40-b085-f9c05987776d,5,531.3494,533.0979,space,1,0.4963,,0,19,19,19,1,T,space,,,,,,,,,,
,,,,,R_91Z3jkYGK0I2dqV,001,2025-08-31_21h21.47.118,continuous_performance_test,2024.2.4,MacIntel,59.88023952,732cf1e0-bfc1-4a40-b085-f9c05987776d,5,533.0997,535.048,space,1,0.4688,,0,20,20,4,1,E,space,,,,,,,,,,
,,,,,R_91Z3jkYGK0I2dqV,001,2025-08-31_21h21.47.118,continuous_performance_test,2024.2.4,MacIntel,59.88023952,732cf1e0-bfc1-4a40-b085-f9c05987776d,5,535.0494,536.7478,space,1,0.3973,,0,21,21,21,1,V,space,,,,,,,,,,
,,,,,R_91Z3jkYGK0I2dqV,001,2025-08-31_21h21.47.118,continuous_performance_test,2024.2.4,MacIntel,59.88023952,732cf1e0-bfc1-4a40-b085-f9c05987776d,5,536.7491,538.648,,1,,,0,22,22,29,1,X,,,,,,,,,,,
,,,,,R_91Z3jkYGK0I2dqV,001,2025-08-31_21h21.47.118,continuous_performance_test,2024.2.4,MacIntel,59.88023952,732cf1e0-bfc1-4a40-b085-f9c05987776d,5,538.649,540.497,,1,,,0,23,23,28,1,X,,,,,,,,,,,
,,,,,R_91Z3jkYGK0I2dqV,001,2025-08-31_21h21.47.118,continuous_performance_test,2024.2.4,MacIntel,59.88023952,732cf1e0-bfc1-4a40-b085-f9c05987776d,5,540.4983,542.298,space,1,0.4297,,0,24,24,12,1,M,space,,,,,,,,,,
,,,,,R_91Z3jkYGK0I2dqV,001,2025-08-31_21h21.47.118,continuous_performance_test,2024.2.4,MacIntel,59.88023952,732cf1e0-bfc1-4a40-b085-f9c05987776d,5,542.2995,543.9972,space,1,0.4752,,0,25,25,8,1,I,space,,,,,,,,,,
,,,,,R_91Z3jkYGK0I2dqV,001,2025-08-31_21h21.47.118,continuous_performance_test,2024.2.4,MacIntel,59.88023952,732cf1e0-bfc1-4a40-b085-f9c05987776d,5,543.9996,545.597,space,1,0.5521,,0,26,26,10,1,K,space,,,,,,,,,,
,,,,,R_91Z3jkYGK0I2dqV,001,2025-08-31_21h21.47.118,continuous_performance_test,2024.2.4,MacIntel,59.88023952,732cf1e0-bfc1-4a40-b085-f9c05987776d,5,545.5987,547.5982,space,1,0.6627,,0,27,27,24,1,Z,space,,,,,,,,,,
,,,,,R_91Z3jkYGK0I2dqV,001,2025-08-31_21h21.47.118,continuous_performance_test,2024.2.4,MacIntel,59.88023952,732cf1e0-bfc1-4a40-b085-f9c05987776d,5,547.5995,549.4481,,1,,,0,28,28,27,1,X,,,,,,,,,,,
,,,,,R_91Z3jkYGK0I2dqV,001,2025-08-31_21h21.47.118,continuous_performance_test,2024.2.4,MacIntel,59.88023952,732cf1e0-bfc1-4a40-b085-f9c05987776d,5,549.4502,551.348,space,1,0.6619,,0,29,29,14,1,O,space,,,,,,,,,,
,,,,,R_91Z3jkYGK0I2dqV,001,2025-08-31_21h21.47.118,continuous_performance_test,2024.2.4,MacIntel,59.88023952,732cf1e0-bfc1-4a40-b085-f9c05987776d,5,563.5392,565.3809,space,1,0.4321,,0,0,0,24,1,Z,space,551.3499,563.5313,space,12.1664,,,,,,
,,,,,R_91Z3jkYGK0I2dqV,001,2025-08-31_21h21.47.118,continuous_performance_test,2024.2.4,MacIntel,59.88023952,732cf1e0-bfc1-4a40-b085-f9c05987776d,5,565.3823,567.2315,space,1,0.4165,,0,1,1,4,1,E,space,,,,,,,,,,
,,,,,R_91Z3jkYGK0I2dqV,001,2025-08-31_21h21.47.118,continuous_performance_test,2024.2.4,MacIntel,59.88023952,732cf1e0-bfc1-4a40-b085-f9c05987776d,5,567.2334,569.081,space,1,0.3519,,0,2,2,2,1,C,space,,,,,,,,,,
,,,,,R_91Z3jkYGK0I2dqV,001,2025-08-31_21h21.47.118,continuous_performance_test,2024.2.4,MacIntel,59.88023952,732cf1e0-bfc1-4a40-b085-f9c05987776d,5,569.0823,571.0815,,1,,,0,3,3,26,1,X,,,,,,,,,,,
,,,,,R_91Z3jkYGK0I2dqV,001,2025-08-31_21h21.47.118,continuous_performance_test,2024.2.4,MacIntel,59.88023952,732cf1e0-bfc1-4a40-b085-f9c05987776d,5,571.0829,573.0316,space,1,0.501,,0,4,4,23,1,Y,space,,,,,,,,,,
,,,,,R_91Z3jkYGK0I2dqV,001,2025-08-31_21h21.47.118,continuous_performance_test,2024.2.4,MacIntel,59.88023952,732cf1e0-bfc1-4a40-b085-f9c05987776d,5,573.0329,574.6317,space,1,0.4104,,0,5,5,0,1,A,space,,,,,,,,,,
,,,,,R_91Z3jkYGK0I2dqV,001,2025-08-31_21h21.47.118,continuous_performance_test,2024.2.4,MacIntel,59.88023952,732cf1e0-bfc1-4a40-b085-f9c05987776d,5,574.6333,576.1815,space,1,0.4314,,0,6,6,7,1,H,space,,,,,,,,,,
,,,,,R_91Z3jkYGK0I2dqV,001,2025-08-31_21h21.47.118,continuous_performance_test,2024.2.4,MacIntel,59.88023952,732cf1e0-bfc1-4a40-b085-f9c05987776d,5,576.1831,578.1316,space,1,0.4678,,0,7,7,20,1,U,space,,,,,,,,,,
,,,,,R_91Z3jkYGK0I2dqV,001,2025-08-31_21h21.47.118,continuous_performance_test,2024.2.4,MacIntel,59.88023952,732cf1e0-bfc1-4a40-b085-f9c05987776d,5,578.1331,579.6817,space,1,0.4251,,0,8,8,16,1,Q,space,,,,,,,,,,
,,,,,R_91Z3jkYGK0I2dqV,001,2025-08-31_21h21.47.118,continuous_performance_test,2024.2.4,MacIntel,59.88023952,732cf1e0-bfc1-4a40-b085-f9c05987776d,5,579.6831,581.5816,,1,,,0,9,9,29,1,X,,,,,,,,,,,
,,,,,R_91Z3jkYGK0I2dqV,001,2025-08-31_21h21.47.118,continuous_performance_test,2024.2.4,MacIntel,59.88023952,732cf1e0-bfc1-4a40-b085-f9c05987776d,5,581.5832,583.4315,space,1,0.5448,,0,10,10,1,1,B,space,,,,,,,,,,
,,,,,R_91Z3jkYGK0I2dqV,001,2025-08-31_21h21.47.118,continuous_performance_test,2024.2.4,MacIntel,59.88023952,732cf1e0-bfc1-4a40-b085-f9c05987776d,5,583.4331,585.2816,space,1,0.3694,,0,11,11,18,1,S,space,,,,,,,,,,
,,,,,R_91Z3jkYGK0I2dqV,001,2025-08-31_21h21.47.118,continuous_performance_test,2024.2.4,MacIntel,59.88023952,732cf1e0-bfc1-4a40-b085-f9c05987776d,5,585.2832,587.2317,space,1,0.3646,,0,12,12,22,1,W,space,,,,,,,,,,
,,,,,R_91Z3jkYGK0I2dqV,001,2025-08-31_21h21.47.118,continuous_performance_test,2024.2.4,MacIntel,59.88023952,732cf1e0-bfc1-4a40-b085-f9c05987776d,5,587.2334,589.0316,space,1,0.9507,,0,13,13,12,1,M,space,,,,,,,,,,
,,,,,R_91Z3jkYGK0I2dqV,001,2025-08-31_21h21.47.118,continuous_performance_test,2024.2.4,MacIntel,59.88023952,732cf1e0-bfc1-4a40-b085-f9c05987776d,5,589.0328,590.6817,space,1,0.3977,,0,14,14,21,1,V,space,,,,,,,,,,
,,,,,R_91Z3jkYGK0I2dqV,001,2025-08-31_21h21.47.118,continuous_performance_test,2024.2.4,MacIntel,59.88023952,732cf1e0-bfc1-4a40-b085-f9c05987776d,5,590.6834,592.2817,,1,,,0,15,15,25,1,X,,,,,,,,,,,
,,,,,R_91Z3jkYGK0I2dqV,001,2025-08-31_21h21.47.118,continuous_performance_test,2024.2.4,MacIntel,59.88023952,732cf1e0-bfc1-4a40-b085-f9c05987776d,5,592.2829,593.8317,space,1,0.3688,,0,16,16,19,1,T,space,,,,,,,,,,
,,,,,R_91Z3jkYGK0I2dqV,001,2025-08-31_21h21.47.118,continuous_performance_test,2024.2.4,MacIntel,59.88023952,732cf1e0-bfc1-4a40-b085-f9c05987776d,5,593.8329,595.6818,space,1,0.426,,0,17,17,5,1,F,space,,,,,,,,,,
,,,,,R_91Z3jkYGK0I2dqV,001,2025-08-31_21h21.47.118,continuous_performance_test,2024.2.4,MacIntel,59.88023952,732cf1e0-bfc1-4a40-b085-f9c05987776d,5,595.6836,597.631,space,1,0.3835,,0,18,18,3,1,D,space,,,,,,,,,,
,,,,,R_91Z3jkYGK0I2dqV,001,2025-08-31_21h21.47.118,continuous_performance_test,2024.2.4,MacIntel,59.88023952,732cf1e0-bfc1-4a40-b085-f9c05987776d,5,597.6324,599.4318,space,1,0.3607,,0,19,19,13,1,N,space,,,,,,,,,,
,,,,,R_91Z3jkYGK0I2dqV,001,2025-08-31_21h21.47.118,continuous_performance_test,2024.2.4,MacIntel,59.88023952,732cf1e0-bfc1-4a40-b085-f9c05987776d,5,599.4333,601.2318,space,1,0.3976,,0,20,20,15,1,P,space,,,,,,,,,,
,,,,,R_91Z3jkYGK0I2dqV,001,2025-08-31_21h21.47.118,continuous_performance_test,2024.2.4,MacIntel,59.88023952,732cf1e0-bfc1-4a40-b085-f9c05987776d,5,601.2334,602.9309,space,1,0.3517,,0,21,21,6,1,G,space,,,,,,,,,,
,,,,,R_91Z3jkYGK0I2dqV,001,2025-08-31_21h21.47.118,continuous_performance_test,2024.2.4,MacIntel,59.88023952,732cf1e0-bfc1-4a40-b085-f9c05987776d,5,602.9318,604.6818,space,0,0.3776,,0,22,22,27,1,X,,,,,,,,,,,
,,,,,R_91Z3jkYGK0I2dqV,001,2025-08-31_21h21.47.118,continuous_performance_test,2024.2.4,MacIntel,59.88023952,732cf1e0-bfc1-4a40-b085-f9c05987776d,5,604.6834,606.3816,space,1,0.3517,,0,23,23,8,1,I,space,,,,,,,,,,
,,,,,R_91Z3jkYGK0I2dqV,001,2025-08-31_21h21.47.118,continuous_performance_test,2024.2.4,MacIntel,59.88023952,732cf1e0-bfc1-4a40-b085-f9c05987776d,5,606.3831,608.382,space,1,0.4818,,0,24,24,10,1,K,space,,,,,,,,,,
,,,,,R_91Z3jkYGK0I2dqV,001,2025-08-31_21h21.47.118,continuous_performance_test,2024.2.4,MacIntel,59.88023952,732cf1e0-bfc1-4a40-b085-f9c05987776d,5,608.3835,610.3318,space,1,0.5083,,0,25,25,17,1,R,space,,,,,,,,,,
,,,,,R_91Z3jkYGK0I2dqV,001,2025-08-31_21h21.47.118,continuous_performance_test,2024.2.4,MacIntel,59.88023952,732cf1e0-bfc1-4a40-b085-f9c05987776d,5,610.3333,612.3317,space,1,0.4126,,0,26,26,11,1,L,space,,,,,,,,,,
,,,,,R_91Z3jkYGK0I2dqV,001,2025-08-31_21h21.47.118,continuous_performance_test,2024.2.4,MacIntel,59.88023952,732cf1e0-bfc1-4a40-b085-f9c05987776d,5,612.3331,614.0819,,1,,,0,27,27,28,1,X,,,,,,,,,,,
,,,,,R_91Z3jkYGK0I2dqV,001,2025-08-31_21h21.47.118,continuous_performance_test,2024.2.4,MacIntel,59.88023952,732cf1e0-bfc1-4a40-b085-f9c05987776d,5,614.0836,616.0819,space,1,0.3633,,0,28,28,14,1,O,space,,,,,,,,,,
,,,,,R_91Z3jkYGK0I2dqV,001,2025-08-31_21h21.47.118,continuous_performance_test,2024.2.4,MacIntel,59.88023952,732cf1e0-bfc1-4a40-b085-f9c05987776d,5,616.0836,617.8818,space,1,0.4562,,0,29,29,9,1,J,space,,,,,,,,,,
,,,,,R_91Z3jkYGK0I2dqV,001,2025-08-31_21h21.47.118,continuous_performance_test,2024.2.4,MacIntel,59.88023952,732cf1e0-bfc1-4a40-b085-f9c05987776d,5,629.6551,631.6002,space,1,0.4503,,0,0,0,1,1,B,space,617.8835,629.6488,space,11.7406,,,,,,
,,,,,R_91Z3jkYGK0I2dqV,001,2025-08-31_21h21.47.118,continuous_performance_test,2024.2.4,MacIntel,59.88023952,732cf1e0-bfc1-4a40-b085-f9c05987776d,5,631.6031,633.5487,,1,,,0,1,1,28,1,X,,,,,,,,,,,
,,,,,R_91Z3jkYGK0I2dqV,001,2025-08-31_21h21.47.118,continuous_performance_test,2024.2.4,MacIntel,59.88023952,732cf1e0-bfc1-4a40-b085-f9c05987776d,5,633.55,635.3988,,1,,,0,2,2,26,1,X,,,,,,,,,,,
,,,,,R_91Z3jkYGK0I2dqV,001,2025-08-31_21h21.47.118,continuous_performance_test,2024.2.4,MacIntel,59.88023952,732cf1e0-bfc1-4a40-b085-f9c05987776d,5,635.4005,637.2489,space,1,0.4254,,0,3,3,14,1,O,space,,,,,,,,,,
,,,,,R_91Z3jkYGK0I2dqV,001,2025-08-31_21h21.47.118,continuous_performance_test,2024.2.4,MacIntel,59.88023952,732cf1e0-bfc1-4a40-b085-f9c05987776d,5,637.2503,638.8488,space,1,0.6141,,0,4,4,12,1,M,space,,,,,,,,,,
,,,,,R_91Z3jkYGK0I2dqV,001,2025-08-31_21h21.47.118,continuous_performance_test,2024.2.4,MacIntel,59.88023952,732cf1e0-bfc1-4a40-b085-f9c05987776d,5,638.85,640.7488,space,1,0.4136,,0,5,5,0,1,A,space,,,,,,,,,,
,,,,,R_91Z3jkYGK0I2dqV,001,2025-08-31_21h21.47.118,continuous_performance_test,2024.2.4,MacIntel,59.88023952,732cf1e0-bfc1-4a40-b085-f9c05987776d,5,640.7503,642.5988,space,1,0.3801,,0,6,6,6,1,G,space,,,,,,,,,,
,,,,,R_91Z3jkYGK0I2dqV,001,2025-08-31_21h21.47.118,continuous_performance_test,2024.2.4,MacIntel,59.88023952,732cf1e0-bfc1-4a40-b085-f9c05987776d,5,642.6003,644.3489,space,1,0.4616,,0,7,7,13,1,N,space,,,,,,,,,,
,,,,,R_91Z3jkYGK0I2dqV,001,2025-08-31_21h21.47.118,continuous_performance_test,2024.2.4,MacIntel,59.88023952,732cf1e0-bfc1-4a40-b085-f9c05987776d,5,644.3508,645.8986,space,1,0.4062,,0,8,8,9,1,J,space,,,,,,,,,,
,,,,,R_91Z3jkYGK0I2dqV,001,2025-08-31_21h21.47.118,continuous_performance_test,2024.2.4,MacIntel,59.88023952,732cf1e0-bfc1-4a40-b085-f9c05987776d,5,645.8998,647.549,space,1,0.3622,,0,9,9,18,1,S,space,,,,,,,,,,
,,,,,R_91Z3jkYGK0I2dqV,001,2025-08-31_21h21.47.118,continuous_performance_test,2024.2.4,MacIntel,59.88023952,732cf1e0-bfc1-4a40-b085-f9c05987776d,5,647.5507,649.4986,space,1,0.4044,,0,10,10,19,1,T,space,,,,,,,,,,
,,,,,R_91Z3jkYGK0I2dqV,001,2025-08-31_21h21.47.118,continuous_performance_test,2024.2.4,MacIntel,59.88023952,732cf1e0-bfc1-4a40-b085-f9c05987776d,5,649.4992,651.2488,,1,,,0,11,11,27,1,X,,,,,,,,,,,
,,,,,R_91Z3jkYGK0I2dqV,001,2025-08-31_21h21.47.118,continuous_performance_test,2024.2.4,MacIntel,59.88023952,732cf1e0-bfc1-4a40-b085-f9c05987776d,5,651.2502,652.8485,space,1,0.3967,,0,12,12,23,1,Y,space,,,,,,,,,,
,,,,,R_91Z3jkYGK0I2dqV,001,2025-08-31_21h21.47.118,continuous_performance_test,2024.2.4,MacIntel,59.88023952,732cf1e0-bfc1-4a40-b085-f9c05987776d,5,652.85,654.449,space,1,0.496,,0,13,13,7,1,H,space,,,,,,,,,,
,,,,,R_91Z3jkYGK0I2dqV,001,2025-08-31_21h21.47.118,continuous_performance_test,2024.2.4,MacIntel,59.88023952,732cf1e0-bfc1-4a40-b085-f9c05987776d,5,654.4515,656.0483,,1,,,0,14,14,29,1,X,,,,,,,,,,,
,,,,,R_91Z3jkYGK0I2dqV,001,2025-08-31_21h21.47.118,continuous_performance_test,2024.2.4,MacIntel,59.88023952,732cf1e0-bfc1-4a40-b085-f9c05987776d,5,656.0499,657.8984,space,1,0.3798,,0,15,15,10,1,K,space,,,,,,,,,,
,,,,,R_91Z3jkYGK0I2dqV,001,2025-08-31_21h21.47.118,continuous_performance_test,2024.2.4,MacIntel,59.88023952,732cf1e0-bfc1-4a40-b085-f9c05987776d,5,657.899,659.8989,space,1,0.4591,,0,16,16,24,1,Z,space,,,,,,,,,,
,,,,,R_91Z3jkYGK0I2dqV,001,2025-08-31_21h21.47.118,continuous_performance_test,2024.2.4,MacIntel,59.88023952,732cf1e0-bfc1-4a40-b085-f9c05987776d,5,659.9006,661.7989,space,1,0.4329,,0,17,17,2,1,C,space,,,,,,,,,,
,,,,,R_91Z3jkYGK0I2dqV,001,2025-08-31_21h21.47.118,continuous_performance_test,2024.2.4,MacIntel,59.88023952,732cf1e0-bfc1-4a40-b085-f9c05987776d,5,661.8001,663.6985,space,1,0.3998,,0,18,18,11,1,L,space,,,,,,,,,,
,,,,,R_91Z3jkYGK0I2dqV,001,2025-08-31_21h21.47.118,continuous_performance_test,2024.2.4,MacIntel,59.88023952,732cf1e0-bfc1-4a40-b085-f9c05987776d,5,663.6991,665.249,space,1,0.3729,,0,19,19,20,1,U,space,,,,,,,,,,
,,,,,R_91Z3jkYGK0I2dqV,001,2025-08-31_21h21.47.118,continuous_performance_test,2024.2.4,MacIntel,59.88023952,732cf1e0-bfc1-4a40-b085-f9c05987776d,5,665.2506,666.9989,space,1,0.4072,,0,20,20,8,1,I,space,,,,,,,,,,
,,,,,R_91Z3jkYGK0I2dqV,001,2025-08-31_21h21.47.118,continuous_performance_test,2024.2.4,MacIntel,59.88023952,732cf1e0-bfc1-4a40-b085-f9c05987776d,5,667.0006,668.7489,space,1,0.3966,,0,21,21,22,1,W,space,,,,,,,,,,
,,,,,R_91Z3jkYGK0I2dqV,001,2025-08-31_21h21.47.118,continuous_performance_test,2024.2.4,MacIntel,59.88023952,732cf1e0-bfc1-4a40-b085-f9c05987776d,5,668.7504,670.599,space,1,0.3579,,0,22,22,3,1,D,space,,,,,,,,,,
,,,,,R_91Z3jkYGK0I2dqV,001,2025-08-31_21h21.47.118,continuous_performance_test,2024.2.4,MacIntel,59.88023952,732cf1e0-bfc1-4a40-b085-f9c05987776d,5,670.6005,672.199,space,1,0.379,,0,23,23,15,1,P,space,,,,,,,,,,
,,,,,R_91Z3jkYGK0I2dqV,001,2025-08-31_21h21.47.118,continuous_performance_test,2024.2.4,MacIntel,59.88023952,732cf1e0-bfc1-4a40-b085-f9c05987776d,5,672.2,673.7491,space,1,0.3825,,0,24,24,16,1,Q,space,,,,,,,,,,
,,,,,R_91Z3jkYGK0I2dqV,001,2025-08-31_21h21.47.118,continuous_performance_test,2024.2.4,MacIntel,59.88023952,732cf1e0-bfc1-4a40-b085-f9c05987776d,5,673.7509,675.3492,space,1,0.3464,,0,25,25,21,1,V,space,,,,,,,,,,
,,,,,R_91Z3jkYGK0I2dqV,001,2025-08-31_21h21.47.118,continuous_performance_test,2024.2.4,MacIntel,59.88023952,732cf1e0-bfc1-4a40-b085-f9c05987776d,5,675.3509,677.349,space,1,0.3861,,0,26,26,5,1,F,space,,,,,,,,,,
,,,,,R_91Z3jkYGK0I2dqV,001,2025-08-31_21h21.47.118,continuous_performance_test,2024.2.4,MacIntel,59.88023952,732cf1e0-bfc1-4a40-b085-f9c05987776d,5,677.3506,678.999,space,1,0.3854,,0,27,27,4,1,E,space,,,,,,,,,,
,,,,,R_91Z3jkYGK0I2dqV,001,2025-08-31_21h21.47.118,continuous_performance_test,2024.2.4,MacIntel,59.88023952,732cf1e0-bfc1-4a40-b085-f9c05987776d,5,679.0006,680.9991,space,1,0.3965,,0,28,28,17,1,R,space,,,,,,,,,,
,,,,,R_91Z3jkYGK0I2dqV,001,2025-08-31_21h21.47.118,continuous_performance_test,2024.2.4,MacIntel,59.88023952,732cf1e0-bfc1-4a40-b085-f9c05987776d,5,681.0004,682.6991,,1,,,0,29,29,25,1,X,,,,,,,,,,,
,,,,,R_91Z3jkYGK0I2dqV,001,2025-08-31_21h21.47.118,continuous_performance_test,2024.2.4,MacIntel,59.88023952,732cf1e0-bfc1-4a40-b085-f9c05987776d,5,,,,,,,,,,,,,,682.7007,682.7016,,,,682.7033,691.1166,space,8.3883,
