Instructions.started,Instructions.stopped,key_resp.keys,key_resp.rt,key_resp.duration,participant,session,date,expName,psychopyVersion,OS,frameRate,realeye-tester-id,realeye-tester-quality_grade,Trial_noX.started,Trial_noX.stopped,response.keys,response.corr,trials_noX.thisRepN,trials_noX.thisTrialN,trials_noX.thisN,trials_noX.thisIndex,trials_noX.ran,letter,corrAns,response.rt,response.duration,BlockBreak.started,BlockBreak.stopped,key_instruct.keys,key_instruct.rt,key_instruct.duration,End_NoX.started,End_NoX.stopped,key_resp_end_noX.keys,key_resp_end_noX.rt,key_resp_end_noX.duration
0,24.435,space,24.363,,R_93rGtFF6DR5PJVb,001,2025-08-11_14h26.37.782,continuous_performance_test,2024.2.4,Win32,60.0240096,64344914-6a02-4ace-87e5-8cf4f7a21956,4,,,,,,,,,,,,,,,,,,,,,,,
,,,,,R_93rGtFF6DR5PJVb,001,2025-08-11_14h26.37.782,continuous_performance_test,2024.2.4,Win32,60.0240096,64344914-6a02-4ace-87e5-8cf4f7a21956,4,24.498,26.044,,0,0,0,0,11,1,L,space,,,,,,,,,,,,
,,,,,R_93rGtFF6DR5PJVb,001,2025-08-11_14h26.37.782,continuous_performance_test,2024.2.4,Win32,60.0240096,64344914-6a02-4ace-87e5-8cf4f7a21956,4,26.051,27.643,space,1,0,1,1,15,1,P,space,0.464,,,,,,,,,,,
,,,,,R_93rGtFF6DR5PJVb,001,2025-08-11_14h26.37.782,continuous_performance_test,2024.2.4,Win32,60.0240096,64344914-6a02-4ace-87e5-8cf4f7a21956,4,27.65,29.344,space,1,0,2,2,9,1,J,space,0.362,,,,,,,,,,,
,,,,,R_93rGtFF6DR5PJVb,001,2025-08-11_14h26.37.782,continuous_performance_test,2024.2.4,Win32,60.0240096,64344914-6a02-4ace-87e5-8cf4f7a21956,4,29.358,31.047,space,1,0,3,3,20,1,U,space,0.315,,,,,,,,,,,
,,,,,R_93rGtFF6DR5PJVb,001,2025-08-11_14h26.37.782,continuous_performance_test,2024.2.4,Win32,60.0240096,64344914-6a02-4ace-87e5-8cf4f7a21956,4,31.056,32.743,space,0,0,4,4,29,1,X,,0.299,,,,,,,,,,,
,,,,,R_93rGtFF6DR5PJVb,001,2025-08-11_14h26.37.782,continuous_performance_test,2024.2.4,Win32,60.0240096,64344914-6a02-4ace-87e5-8cf4f7a21956,4,32.749,34.293,space,1,0,5,5,3,1,D,space,0.362,,,,,,,,,,,
,,,,,R_93rGtFF6DR5PJVb,001,2025-08-11_14h26.37.782,continuous_performance_test,2024.2.4,Win32,60.0240096,64344914-6a02-4ace-87e5-8cf4f7a21956,4,34.301,35.943,space,1,0,6,6,10,1,K,space,0.439,,,,,,,,,,,
,,,,,R_93rGtFF6DR5PJVb,001,2025-08-11_14h26.37.782,continuous_performance_test,2024.2.4,Win32,60.0240096,64344914-6a02-4ace-87e5-8cf4f7a21956,4,35.95,37.543,space,1,0,7,7,21,1,V,space,0.396,,,,,,,,,,,
,,,,,R_93rGtFF6DR5PJVb,001,2025-08-11_14h26.37.782,continuous_performance_test,2024.2.4,Win32,60.0240096,64344914-6a02-4ace-87e5-8cf4f7a21956,4,37.549,39.343,space,1,0,8,8,18,1,S,space,0.544,,,,,,,,,,,
,,,,,R_93rGtFF6DR5PJVb,001,2025-08-11_14h26.37.782,continuous_performance_test,2024.2.4,Win32,60.0240096,64344914-6a02-4ace-87e5-8cf4f7a21956,4,39.35,40.943,space,1,0,9,9,14,1,O,space,0.422,,,,,,,,,,,
,,,,,R_93rGtFF6DR5PJVb,001,2025-08-11_14h26.37.782,continuous_performance_test,2024.2.4,Win32,60.0240096,64344914-6a02-4ace-87e5-8cf4f7a21956,4,40.952,42.843,space,1,0,10,10,6,1,G,space,0.345,,,,,,,,,,,
,,,,,R_93rGtFF6DR5PJVb,001,2025-08-11_14h26.37.782,continuous_performance_test,2024.2.4,Win32,60.0240096,64344914-6a02-4ace-87e5-8cf4f7a21956,4,42.852,44.593,space,0,0,11,11,26,1,X,,0.32,,,,,,,,,,,
,,,,,R_93rGtFF6DR5PJVb,001,2025-08-11_14h26.37.782,continuous_performance_test,2024.2.4,Win32,60.0240096,64344914-6a02-4ace-87e5-8cf4f7a21956,4,44.6,46.244,space,1,0,12,12,0,1,A,space,0.362,,,,,,,,,,,
,,,,,R_93rGtFF6DR5PJVb,001,2025-08-11_14h26.37.782,continuous_performance_test,2024.2.4,Win32,60.0240096,64344914-6a02-4ace-87e5-8cf4f7a21956,4,46.252,47.894,space,1,0,13,13,16,1,Q,space,0.343,,,,,,,,,,,
,,,,,R_93rGtFF6DR5PJVb,001,2025-08-11_14h26.37.782,continuous_performance_test,2024.2.4,Win32,60.0240096,64344914-6a02-4ace-87e5-8cf4f7a21956,4,47.899,49.693,space,1,0,14,14,8,1,I,space,0.359,,,,,,,,,,,
,,,,,R_93rGtFF6DR5PJVb,001,2025-08-11_14h26.37.782,continuous_performance_test,2024.2.4,Win32,60.0240096,64344914-6a02-4ace-87e5-8cf4f7a21956,4,49.698,51.281,space,1,0,15,15,1,1,B,space,0.346,,,,,,,,,,,
,,,,,R_93rGtFF6DR5PJVb,001,2025-08-11_14h26.37.782,continuous_performance_test,2024.2.4,Win32,60.0240096,64344914-6a02-4ace-87e5-8cf4f7a21956,4,51.286,53.177,space,1,0,16,16,17,1,R,space,0.346,,,,,,,,,,,
,,,,,R_93rGtFF6DR5PJVb,001,2025-08-11_14h26.37.782,continuous_performance_test,2024.2.4,Win32,60.0240096,64344914-6a02-4ace-87e5-8cf4f7a21956,4,53.183,54.976,space,1,0,17,17,5,1,F,space,0.366,,,,,,,,,,,
,,,,,R_93rGtFF6DR5PJVb,001,2025-08-11_14h26.37.782,continuous_performance_test,2024.2.4,Win32,60.0240096,64344914-6a02-4ace-87e5-8cf4f7a21956,4,54.983,56.927,,1,0,18,18,27,1,X,,,,,,,,,,,,,
,,,,,R_93rGtFF6DR5PJVb,001,2025-08-11_14h26.37.782,continuous_performance_test,2024.2.4,Win32,60.0240096,64344914-6a02-4ace-87e5-8cf4f7a21956,4,56.934,58.826,space,1,0,19,19,7,1,H,space,0.354,,,,,,,,,,,
,,,,,R_93rGtFF6DR5PJVb,001,2025-08-11_14h26.37.782,continuous_performance_test,2024.2.4,Win32,60.0240096,64344914-6a02-4ace-87e5-8cf4f7a21956,4,58.833,60.726,,1,0,20,20,28,1,X,,,,,,,,,,,,,
,,,,,R_93rGtFF6DR5PJVb,001,2025-08-11_14h26.37.782,continuous_performance_test,2024.2.4,Win32,60.0240096,64344914-6a02-4ace-87e5-8cf4f7a21956,4,60.732,62.527,space,1,0,21,21,22,1,W,space,0.463,,,,,,,,,,,
,,,,,R_93rGtFF6DR5PJVb,001,2025-08-11_14h26.37.782,continuous_performance_test,2024.2.4,Win32,60.0240096,64344914-6a02-4ace-87e5-8cf4f7a21956,4,62.532,64.516,space,1,0,22,22,4,1,E,space,0.38,,,,,,,,,,,
,,,,,R_93rGtFF6DR5PJVb,001,2025-08-11_14h26.37.782,continuous_performance_test,2024.2.4,Win32,60.0240096,64344914-6a02-4ace-87e5-8cf4f7a21956,4,64.524,66.46,space,1,0,23,23,2,1,C,space,0.362,,,,,,,,,,,
,,,,,R_93rGtFF6DR5PJVb,001,2025-08-11_14h26.37.782,continuous_performance_test,2024.2.4,Win32,60.0240096,64344914-6a02-4ace-87e5-8cf4f7a21956,4,66.466,68.01,space,1,0,24,24,24,1,Z,space,0.415,,,,,,,,,,,
,,,,,R_93rGtFF6DR5PJVb,001,2025-08-11_14h26.37.782,continuous_performance_test,2024.2.4,Win32,60.0240096,64344914-6a02-4ace-87e5-8cf4f7a21956,4,68.015,69.86,space,1,0,25,25,12,1,M,space,0.393,,,,,,,,,,,
,,,,,R_93rGtFF6DR5PJVb,001,2025-08-11_14h26.37.782,continuous_performance_test,2024.2.4,Win32,60.0240096,64344914-6a02-4ace-87e5-8cf4f7a21956,4,69.865,71.86,space,1,0,26,26,19,1,T,space,0.479,,,,,,,,,,,
,,,,,R_93rGtFF6DR5PJVb,001,2025-08-11_14h26.37.782,continuous_performance_test,2024.2.4,Win32,60.0240096,64344914-6a02-4ace-87e5-8cf4f7a21956,4,71.866,73.46,space,1,0,27,27,23,1,Y,space,0.395,,,,,,,,,,,
,,,,,R_93rGtFF6DR5PJVb,001,2025-08-11_14h26.37.782,continuous_performance_test,2024.2.4,Win32,60.0240096,64344914-6a02-4ace-87e5-8cf4f7a21956,4,73.468,75.26,,1,0,28,28,25,1,X,,,,,,,,,,,,,
,,,,,R_93rGtFF6DR5PJVb,001,2025-08-11_14h26.37.782,continuous_performance_test,2024.2.4,Win32,60.0240096,64344914-6a02-4ace-87e5-8cf4f7a21956,4,75.265,77.16,space,1,0,29,29,13,1,N,space,0.429,,,,,,,,,,,
,,,,,R_93rGtFF6DR5PJVb,001,2025-08-11_14h26.37.782,continuous_performance_test,2024.2.4,Win32,60.0240096,64344914-6a02-4ace-87e5-8cf4f7a21956,4,88.011,89.709,space,1,0,0,0,17,1,R,space,0.401,,77.161,87.96,space,10.737,,,,,,
,,,,,R_93rGtFF6DR5PJVb,001,2025-08-11_14h26.37.782,continuous_performance_test,2024.2.4,Win32,60.0240096,64344914-6a02-4ace-87e5-8cf4f7a21956,4,89.716,91.718,space,1,0,1,1,4,1,E,space,0.366,,,,,,,,,,,
,,,,,R_93rGtFF6DR5PJVb,001,2025-08-11_14h26.37.782,continuous_performance_test,2024.2.4,Win32,60.0240096,64344914-6a02-4ace-87e5-8cf4f7a21956,4,91.721,93.71,,1,0,2,2,26,1,X,,,,,,,,,,,,,
,,,,,R_93rGtFF6DR5PJVb,001,2025-08-11_14h26.37.782,continuous_performance_test,2024.2.4,Win32,60.0240096,64344914-6a02-4ace-87e5-8cf4f7a21956,4,93.716,95.71,space,1,0,3,3,0,1,A,space,0.566,,,,,,,,,,,
,,,,,R_93rGtFF6DR5PJVb,001,2025-08-11_14h26.37.782,continuous_performance_test,2024.2.4,Win32,60.0240096,64344914-6a02-4ace-87e5-8cf4f7a21956,4,95.715,97.61,space,1,0,4,4,2,1,C,space,0.482,,,,,,,,,,,
,,,,,R_93rGtFF6DR5PJVb,001,2025-08-11_14h26.37.782,continuous_performance_test,2024.2.4,Win32,60.0240096,64344914-6a02-4ace-87e5-8cf4f7a21956,4,97.615,99.46,space,1,0,5,5,13,1,N,space,0.47,,,,,,,,,,,
,,,,,R_93rGtFF6DR5PJVb,001,2025-08-11_14h26.37.782,continuous_performance_test,2024.2.4,Win32,60.0240096,64344914-6a02-4ace-87e5-8cf4f7a21956,4,99.47,101.361,,1,0,6,6,29,1,X,,,,,,,,,,,,,
,,,,,R_93rGtFF6DR5PJVb,001,2025-08-11_14h26.37.782,continuous_performance_test,2024.2.4,Win32,60.0240096,64344914-6a02-4ace-87e5-8cf4f7a21956,4,101.371,102.96,space,1,0,7,7,14,1,O,space,0.498,,,,,,,,,,,
,,,,,R_93rGtFF6DR5PJVb,001,2025-08-11_14h26.37.782,continuous_performance_test,2024.2.4,Win32,60.0240096,64344914-6a02-4ace-87e5-8cf4f7a21956,4,102.966,104.66,space,1,0,8,8,24,1,Z,space,0.497,,,,,,,,,,,
,,,,,R_93rGtFF6DR5PJVb,001,2025-08-11_14h26.37.782,continuous_performance_test,2024.2.4,Win32,60.0240096,64344914-6a02-4ace-87e5-8cf4f7a21956,4,104.668,106.66,space,1,0,9,9,19,1,T,space,0.398,,,,,,,,,,,
,,,,,R_93rGtFF6DR5PJVb,001,2025-08-11_14h26.37.782,continuous_performance_test,2024.2.4,Win32,60.0240096,64344914-6a02-4ace-87e5-8cf4f7a21956,4,106.666,108.66,space,1,0,10,10,21,1,V,space,0.345,,,,,,,,,,,
,,,,,R_93rGtFF6DR5PJVb,001,2025-08-11_14h26.37.782,continuous_performance_test,2024.2.4,Win32,60.0240096,64344914-6a02-4ace-87e5-8cf4f7a21956,4,108.667,110.41,space,1,0,11,11,12,1,M,space,0.415,,,,,,,,,,,
,,,,,R_93rGtFF6DR5PJVb,001,2025-08-11_14h26.37.782,continuous_performance_test,2024.2.4,Win32,60.0240096,64344914-6a02-4ace-87e5-8cf4f7a21956,4,110.415,112.31,space,1,0,12,12,5,1,F,space,0.382,,,,,,,,,,,
,,,,,R_93rGtFF6DR5PJVb,001,2025-08-11_14h26.37.782,continuous_performance_test,2024.2.4,Win32,60.0240096,64344914-6a02-4ace-87e5-8cf4f7a21956,4,112.316,113.911,space,1,0,13,13,8,1,I,space,0.45,,,,,,,,,,,
,,,,,R_93rGtFF6DR5PJVb,001,2025-08-11_14h26.37.782,continuous_performance_test,2024.2.4,Win32,60.0240096,64344914-6a02-4ace-87e5-8cf4f7a21956,4,113.915,115.91,space,1,0,14,14,16,1,Q,space,0.436,,,,,,,,,,,
,,,,,R_93rGtFF6DR5PJVb,001,2025-08-11_14h26.37.782,continuous_performance_test,2024.2.4,Win32,60.0240096,64344914-6a02-4ace-87e5-8cf4f7a21956,4,115.916,117.462,space,1,0,15,15,11,1,L,space,0.4,,,,,,,,,,,
,,,,,R_93rGtFF6DR5PJVb,001,2025-08-11_14h26.37.782,continuous_performance_test,2024.2.4,Win32,60.0240096,64344914-6a02-4ace-87e5-8cf4f7a21956,4,117.469,119.461,space,1,0,16,16,15,1,P,space,0.383,,,,,,,,,,,
,,,,,R_93rGtFF6DR5PJVb,001,2025-08-11_14h26.37.782,continuous_performance_test,2024.2.4,Win32,60.0240096,64344914-6a02-4ace-87e5-8cf4f7a21956,4,119.466,121.299,space,1,0,17,17,3,1,D,space,0.382,,,,,,,,,,,
,,,,,R_93rGtFF6DR5PJVb,001,2025-08-11_14h26.37.782,continuous_performance_test,2024.2.4,Win32,60.0240096,64344914-6a02-4ace-87e5-8cf4f7a21956,4,121.303,122.844,space,1,0,18,18,20,1,U,space,0.465,,,,,,,,,,,
,,,,,R_93rGtFF6DR5PJVb,001,2025-08-11_14h26.37.782,continuous_performance_test,2024.2.4,Win32,60.0240096,64344914-6a02-4ace-87e5-8cf4f7a21956,4,122.848,124.794,space,1,0,19,19,9,1,J,space,0.382,,,,,,,,,,,
,,,,,R_93rGtFF6DR5PJVb,001,2025-08-11_14h26.37.782,continuous_performance_test,2024.2.4,Win32,60.0240096,64344914-6a02-4ace-87e5-8cf4f7a21956,4,124.801,126.343,space,1,0,20,20,7,1,H,space,0.397,,,,,,,,,,,
,,,,,R_93rGtFF6DR5PJVb,001,2025-08-11_14h26.37.782,continuous_performance_test,2024.2.4,Win32,60.0240096,64344914-6a02-4ace-87e5-8cf4f7a21956,4,126.351,128.194,space,1,0,21,21,18,1,S,space,0.403,,,,,,,,,,,
,,,,,R_93rGtFF6DR5PJVb,001,2025-08-11_14h26.37.782,continuous_performance_test,2024.2.4,Win32,60.0240096,64344914-6a02-4ace-87e5-8cf4f7a21956,4,128.201,129.843,space,1,0,22,22,6,1,G,space,0.381,,,,,,,,,,,
,,,,,R_93rGtFF6DR5PJVb,001,2025-08-11_14h26.37.782,continuous_performance_test,2024.2.4,Win32,60.0240096,64344914-6a02-4ace-87e5-8cf4f7a21956,4,129.85,131.793,,1,0,23,23,27,1,X,,,,,,,,,,,,,
,,,,,R_93rGtFF6DR5PJVb,001,2025-08-11_14h26.37.782,continuous_performance_test,2024.2.4,Win32,60.0240096,64344914-6a02-4ace-87e5-8cf4f7a21956,4,131.796,133.344,,1,0,24,24,28,1,X,,,,,,,,,,,,,
,,,,,R_93rGtFF6DR5PJVb,001,2025-08-11_14h26.37.782,continuous_performance_test,2024.2.4,Win32,60.0240096,64344914-6a02-4ace-87e5-8cf4f7a21956,4,133.365,135.294,space,1,0,25,25,1,1,B,space,0.453,,,,,,,,,,,
,,,,,R_93rGtFF6DR5PJVb,001,2025-08-11_14h26.37.782,continuous_performance_test,2024.2.4,Win32,60.0240096,64344914-6a02-4ace-87e5-8cf4f7a21956,4,135.3,137.193,space,1,0,26,26,23,1,Y,space,0.41,,,,,,,,,,,
,,,,,R_93rGtFF6DR5PJVb,001,2025-08-11_14h26.37.782,continuous_performance_test,2024.2.4,Win32,60.0240096,64344914-6a02-4ace-87e5-8cf4f7a21956,4,137.199,138.844,space,1,0,27,27,22,1,W,space,0.447,,,,,,,,,,,
,,,,,R_93rGtFF6DR5PJVb,001,2025-08-11_14h26.37.782,continuous_performance_test,2024.2.4,Win32,60.0240096,64344914-6a02-4ace-87e5-8cf4f7a21956,4,138.85,140.443,,1,0,28,28,25,1,X,,,,,,,,,,,,,
,,,,,R_93rGtFF6DR5PJVb,001,2025-08-11_14h26.37.782,continuous_performance_test,2024.2.4,Win32,60.0240096,64344914-6a02-4ace-87e5-8cf4f7a21956,4,140.449,141.994,space,1,0,29,29,10,1,K,space,0.42,,,,,,,,,,,
,,,,,R_93rGtFF6DR5PJVb,001,2025-08-11_14h26.37.782,continuous_performance_test,2024.2.4,Win32,60.0240096,64344914-6a02-4ace-87e5-8cf4f7a21956,4,144.895,146.844,space,1,0,0,0,0,1,A,space,0.401,,141.999,144.845,space,2.804,,,,,,
,,,,,R_93rGtFF6DR5PJVb,001,2025-08-11_14h26.37.782,continuous_performance_test,2024.2.4,Win32,60.0240096,64344914-6a02-4ace-87e5-8cf4f7a21956,4,146.851,148.444,,1,0,1,1,27,1,X,,,,,,,,,,,,,
,,,,,R_93rGtFF6DR5PJVb,001,2025-08-11_14h26.37.782,continuous_performance_test,2024.2.4,Win32,60.0240096,64344914-6a02-4ace-87e5-8cf4f7a21956,4,148.448,150.393,,1,0,2,2,26,1,X,,,,,,,,,,,,,
,,,,,R_93rGtFF6DR5PJVb,001,2025-08-11_14h26.37.782,continuous_performance_test,2024.2.4,Win32,60.0240096,64344914-6a02-4ace-87e5-8cf4f7a21956,4,150.401,152.144,space,1,0,3,3,17,1,R,space,0.416,,,,,,,,,,,
,,,,,R_93rGtFF6DR5PJVb,001,2025-08-11_14h26.37.782,continuous_performance_test,2024.2.4,Win32,60.0240096,64344914-6a02-4ace-87e5-8cf4f7a21956,4,152.149,154.144,space,1,0,4,4,20,1,U,space,0.532,,,,,,,,,,,
,,,,,R_93rGtFF6DR5PJVb,001,2025-08-11_14h26.37.782,continuous_performance_test,2024.2.4,Win32,60.0240096,64344914-6a02-4ace-87e5-8cf4f7a21956,4,154.15,155.794,space,1,0,5,5,16,1,Q,space,0.517,,,,,,,,,,,
,,,,,R_93rGtFF6DR5PJVb,001,2025-08-11_14h26.37.782,continuous_performance_test,2024.2.4,Win32,60.0240096,64344914-6a02-4ace-87e5-8cf4f7a21956,4,155.799,157.393,space,1,0,6,6,4,1,E,space,0.397,,,,,,,,,,,
,,,,,R_93rGtFF6DR5PJVb,001,2025-08-11_14h26.37.782,continuous_performance_test,2024.2.4,Win32,60.0240096,64344914-6a02-4ace-87e5-8cf4f7a21956,4,157.397,158.994,space,1,0,7,7,24,1,Z,space,0.534,,,,,,,,,,,
,,,,,R_93rGtFF6DR5PJVb,001,2025-08-11_14h26.37.782,continuous_performance_test,2024.2.4,Win32,60.0240096,64344914-6a02-4ace-87e5-8cf4f7a21956,4,158.999,160.795,space,1,0,8,8,8,1,I,space,0.402,,,,,,,,,,,
,,,,,R_93rGtFF6DR5PJVb,001,2025-08-11_14h26.37.782,continuous_performance_test,2024.2.4,Win32,60.0240096,64344914-6a02-4ace-87e5-8cf4f7a21956,4,160.801,162.594,space,1,0,9,9,15,1,P,space,0.386,,,,,,,,,,,
,,,,,R_93rGtFF6DR5PJVb,001,2025-08-11_14h26.37.782,continuous_performance_test,2024.2.4,Win32,60.0240096,64344914-6a02-4ace-87e5-8cf4f7a21956,4,162.598,164.294,space,1,0,10,10,11,1,L,space,0.35,,,,,,,,,,,
,,,,,R_93rGtFF6DR5PJVb,001,2025-08-11_14h26.37.782,continuous_performance_test,2024.2.4,Win32,60.0240096,64344914-6a02-4ace-87e5-8cf4f7a21956,4,164.3,166.244,space,1,0,11,11,5,1,F,space,0.417,,,,,,,,,,,
,,,,,R_93rGtFF6DR5PJVb,001,2025-08-11_14h26.37.782,continuous_performance_test,2024.2.4,Win32,60.0240096,64344914-6a02-4ace-87e5-8cf4f7a21956,4,166.262,167.844,space,1,0,12,12,23,1,Y,space,0.38,,,,,,,,,,,
,,,,,R_93rGtFF6DR5PJVb,001,2025-08-11_14h26.37.782,continuous_performance_test,2024.2.4,Win32,60.0240096,64344914-6a02-4ace-87e5-8cf4f7a21956,4,167.852,169.644,space,1,0,13,13,9,1,J,space,0.469,,,,,,,,,,,
,,,,,R_93rGtFF6DR5PJVb,001,2025-08-11_14h26.37.782,continuous_performance_test,2024.2.4,Win32,60.0240096,64344914-6a02-4ace-87e5-8cf4f7a21956,4,169.65,171.444,space,1,0,14,14,3,1,D,space,0.347,,,,,,,,,,,
,,,,,R_93rGtFF6DR5PJVb,001,2025-08-11_14h26.37.782,continuous_performance_test,2024.2.4,Win32,60.0240096,64344914-6a02-4ace-87e5-8cf4f7a21956,4,171.449,172.994,space,1,0,15,15,6,1,G,space,0.363,,,,,,,,,,,
,,,,,R_93rGtFF6DR5PJVb,001,2025-08-11_14h26.37.782,continuous_performance_test,2024.2.4,Win32,60.0240096,64344914-6a02-4ace-87e5-8cf4f7a21956,4,172.999,174.844,space,1,0,16,16,13,1,N,space,0.367,,,,,,,,,,,
,,,,,R_93rGtFF6DR5PJVb,001,2025-08-11_14h26.37.782,continuous_performance_test,2024.2.4,Win32,60.0240096,64344914-6a02-4ace-87e5-8cf4f7a21956,4,174.85,176.544,space,1,0,17,17,12,1,M,space,0.381,,,,,,,,,,,
,,,,,R_93rGtFF6DR5PJVb,001,2025-08-11_14h26.37.782,continuous_performance_test,2024.2.4,Win32,60.0240096,64344914-6a02-4ace-87e5-8cf4f7a21956,4,176.549,178.394,space,1,0,18,18,2,1,C,space,0.449,,,,,,,,,,,
,,,,,R_93rGtFF6DR5PJVb,001,2025-08-11_14h26.37.782,continuous_performance_test,2024.2.4,Win32,60.0240096,64344914-6a02-4ace-87e5-8cf4f7a21956,4,178.399,179.994,space,1,0,19,19,19,1,T,space,0.433,,,,,,,,,,,
,,,,,R_93rGtFF6DR5PJVb,001,2025-08-11_14h26.37.782,continuous_performance_test,2024.2.4,Win32,60.0240096,64344914-6a02-4ace-87e5-8cf4f7a21956,4,179.999,181.693,space,1,0,20,20,18,1,S,space,0.38,,,,,,,,,,,
,,,,,R_93rGtFF6DR5PJVb,001,2025-08-11_14h26.37.782,continuous_performance_test,2024.2.4,Win32,60.0240096,64344914-6a02-4ace-87e5-8cf4f7a21956,4,181.697,183.344,space,0,0,21,21,28,1,X,,0.365,,,,,,,,,,,
,,,,,R_93rGtFF6DR5PJVb,001,2025-08-11_14h26.37.782,continuous_performance_test,2024.2.4,Win32,60.0240096,64344914-6a02-4ace-87e5-8cf4f7a21956,4,183.35,185.194,space,1,0,22,22,21,1,V,space,0.365,,,,,,,,,,,
,,,,,R_93rGtFF6DR5PJVb,001,2025-08-11_14h26.37.782,continuous_performance_test,2024.2.4,Win32,60.0240096,64344914-6a02-4ace-87e5-8cf4f7a21956,4,185.2,186.794,space,1,0,23,23,14,1,O,space,0.333,,,,,,,,,,,
,,,,,R_93rGtFF6DR5PJVb,001,2025-08-11_14h26.37.782,continuous_performance_test,2024.2.4,Win32,60.0240096,64344914-6a02-4ace-87e5-8cf4f7a21956,4,186.801,188.794,space,1,0,24,24,7,1,H,space,0.365,,,,,,,,,,,
,,,,,R_93rGtFF6DR5PJVb,001,2025-08-11_14h26.37.782,continuous_performance_test,2024.2.4,Win32,60.0240096,64344914-6a02-4ace-87e5-8cf4f7a21956,4,188.798,190.744,space,0,0,25,25,25,1,X,,0.364,,,,,,,,,,,
,,,,,R_93rGtFF6DR5PJVb,001,2025-08-11_14h26.37.782,continuous_performance_test,2024.2.4,Win32,60.0240096,64344914-6a02-4ace-87e5-8cf4f7a21956,4,190.749,192.743,space,1,0,26,26,10,1,K,space,0.4,,,,,,,,,,,
,,,,,R_93rGtFF6DR5PJVb,001,2025-08-11_14h26.37.782,continuous_performance_test,2024.2.4,Win32,60.0240096,64344914-6a02-4ace-87e5-8cf4f7a21956,4,192.747,194.444,,1,0,27,27,29,1,X,,,,,,,,,,,,,
,,,,,R_93rGtFF6DR5PJVb,001,2025-08-11_14h26.37.782,continuous_performance_test,2024.2.4,Win32,60.0240096,64344914-6a02-4ace-87e5-8cf4f7a21956,4,194.451,196.094,space,1,0,28,28,22,1,W,space,0.432,,,,,,,,,,,
,,,,,R_93rGtFF6DR5PJVb,001,2025-08-11_14h26.37.782,continuous_performance_test,2024.2.4,Win32,60.0240096,64344914-6a02-4ace-87e5-8cf4f7a21956,4,196.098,197.99,space,1,0,29,29,1,1,B,space,0.431,,,,,,,,,,,
,,,,,R_93rGtFF6DR5PJVb,001,2025-08-11_14h26.37.782,continuous_performance_test,2024.2.4,Win32,60.0240096,64344914-6a02-4ace-87e5-8cf4f7a21956,4,213.035,214.678,,1,0,0,0,26,1,X,,,,197.998,212.994,,,,,,,,
,,,,,R_93rGtFF6DR5PJVb,001,2025-08-11_14h26.37.782,continuous_performance_test,2024.2.4,Win32,60.0240096,64344914-6a02-4ace-87e5-8cf4f7a21956,4,214.686,216.327,space,1,0,1,1,14,1,O,space,0.466,,,,,,,,,,,
,,,,,R_93rGtFF6DR5PJVb,001,2025-08-11_14h26.37.782,continuous_performance_test,2024.2.4,Win32,60.0240096,64344914-6a02-4ace-87e5-8cf4f7a21956,4,216.334,218.278,space,1,0,2,2,20,1,U,space,0.366,,,,,,,,,,,
,,,,,R_93rGtFF6DR5PJVb,001,2025-08-11_14h26.37.782,continuous_performance_test,2024.2.4,Win32,60.0240096,64344914-6a02-4ace-87e5-8cf4f7a21956,4,218.285,219.92,space,1,0,3,3,24,1,Z,space,0.424,,,,,,,,,,,
,,,,,R_93rGtFF6DR5PJVb,001,2025-08-11_14h26.37.782,continuous_performance_test,2024.2.4,Win32,60.0240096,64344914-6a02-4ace-87e5-8cf4f7a21956,4,219.925,221.878,space,1,0,4,4,2,1,C,space,0.346,,,,,,,,,,,
,,,,,R_93rGtFF6DR5PJVb,001,2025-08-11_14h26.37.782,continuous_performance_test,2024.2.4,Win32,60.0240096,64344914-6a02-4ace-87e5-8cf4f7a21956,4,221.882,223.877,space,1,0,5,5,16,1,Q,space,0.385,,,,,,,,,,,
,,,,,R_93rGtFF6DR5PJVb,001,2025-08-11_14h26.37.782,continuous_performance_test,2024.2.4,Win32,60.0240096,64344914-6a02-4ace-87e5-8cf4f7a21956,4,223.882,225.427,space,1,0,6,6,0,1,A,space,0.429,,,,,,,,,,,
,,,,,R_93rGtFF6DR5PJVb,001,2025-08-11_14h26.37.782,continuous_performance_test,2024.2.4,Win32,60.0240096,64344914-6a02-4ace-87e5-8cf4f7a21956,4,225.434,227.328,space,0,0,7,7,28,1,X,,0.365,,,,,,,,,,,
,,,,,R_93rGtFF6DR5PJVb,001,2025-08-11_14h26.37.782,continuous_performance_test,2024.2.4,Win32,60.0240096,64344914-6a02-4ace-87e5-8cf4f7a21956,4,227.334,228.978,space,1,0,8,8,6,1,G,space,0.436,,,,,,,,,,,
,,,,,R_93rGtFF6DR5PJVb,001,2025-08-11_14h26.37.782,continuous_performance_test,2024.2.4,Win32,60.0240096,64344914-6a02-4ace-87e5-8cf4f7a21956,4,228.983,230.728,space,1,0,9,9,1,1,B,space,0.515,,,,,,,,,,,
,,,,,R_93rGtFF6DR5PJVb,001,2025-08-11_14h26.37.782,continuous_performance_test,2024.2.4,Win32,60.0240096,64344914-6a02-4ace-87e5-8cf4f7a21956,4,230.732,232.477,space,1,0,10,10,11,1,L,space,0.445,,,,,,,,,,,
,,,,,R_93rGtFF6DR5PJVb,001,2025-08-11_14h26.37.782,continuous_performance_test,2024.2.4,Win32,60.0240096,64344914-6a02-4ace-87e5-8cf4f7a21956,4,232.487,234.228,space,1,0,11,11,13,1,N,space,0.382,,,,,,,,,,,
,,,,,R_93rGtFF6DR5PJVb,001,2025-08-11_14h26.37.782,continuous_performance_test,2024.2.4,Win32,60.0240096,64344914-6a02-4ace-87e5-8cf4f7a21956,4,234.234,236.177,space,1,0,12,12,12,1,M,space,0.463,,,,,,,,,,,
,,,,,R_93rGtFF6DR5PJVb,001,2025-08-11_14h26.37.782,continuous_performance_test,2024.2.4,Win32,60.0240096,64344914-6a02-4ace-87e5-8cf4f7a21956,4,236.184,237.977,space,1,0,13,13,17,1,R,space,0.412,,,,,,,,,,,
,,,,,R_93rGtFF6DR5PJVb,001,2025-08-11_14h26.37.782,continuous_performance_test,2024.2.4,Win32,60.0240096,64344914-6a02-4ace-87e5-8cf4f7a21956,4,237.984,239.978,space,1,0,14,14,8,1,I,space,0.438,,,,,,,,,,,
,,,,,R_93rGtFF6DR5PJVb,001,2025-08-11_14h26.37.782,continuous_performance_test,2024.2.4,Win32,60.0240096,64344914-6a02-4ace-87e5-8cf4f7a21956,4,239.983,241.778,space,1,0,15,15,23,1,Y,space,0.413,,,,,,,,,,,
,,,,,R_93rGtFF6DR5PJVb,001,2025-08-11_14h26.37.782,continuous_performance_test,2024.2.4,Win32,60.0240096,64344914-6a02-4ace-87e5-8cf4f7a21956,4,241.784,243.527,space,1,0,16,16,5,1,F,space,0.481,,,,,,,,,,,
,,,,,R_93rGtFF6DR5PJVb,001,2025-08-11_14h26.37.782,continuous_performance_test,2024.2.4,Win32,60.0240096,64344914-6a02-4ace-87e5-8cf4f7a21956,4,243.532,245.077,,1,0,17,17,27,1,X,,,,,,,,,,,,,
,,,,,R_93rGtFF6DR5PJVb,001,2025-08-11_14h26.37.782,continuous_performance_test,2024.2.4,Win32,60.0240096,64344914-6a02-4ace-87e5-8cf4f7a21956,4,245.086,246.827,space,1,0,18,18,3,1,D,space,0.48,,,,,,,,,,,
,,,,,R_93rGtFF6DR5PJVb,001,2025-08-11_14h26.37.782,continuous_performance_test,2024.2.4,Win32,60.0240096,64344914-6a02-4ace-87e5-8cf4f7a21956,4,246.834,248.628,space,1,0,19,19,7,1,H,space,0.548,,,,,,,,,,,
,,,,,R_93rGtFF6DR5PJVb,001,2025-08-11_14h26.37.782,continuous_performance_test,2024.2.4,Win32,60.0240096,64344914-6a02-4ace-87e5-8cf4f7a21956,4,248.633,250.377,space,1,0,20,20,18,1,S,space,0.467,,,,,,,,,,,
,,,,,R_93rGtFF6DR5PJVb,001,2025-08-11_14h26.37.782,continuous_performance_test,2024.2.4,Win32,60.0240096,64344914-6a02-4ace-87e5-8cf4f7a21956,4,250.384,252.177,space,1,0,21,21,9,1,J,space,0.449,,,,,,,,,,,
,,,,,R_93rGtFF6DR5PJVb,001,2025-08-11_14h26.37.782,continuous_performance_test,2024.2.4,Win32,60.0240096,64344914-6a02-4ace-87e5-8cf4f7a21956,4,252.184,254.078,,1,0,22,22,29,1,X,,,,,,,,,,,,,
,,,,,R_93rGtFF6DR5PJVb,001,2025-08-11_14h26.37.782,continuous_performance_test,2024.2.4,Win32,60.0240096,64344914-6a02-4ace-87e5-8cf4f7a21956,4,254.084,255.678,space,1,0,23,23,22,1,W,space,0.518,,,,,,,,,,,
,,,,,R_93rGtFF6DR5PJVb,001,2025-08-11_14h26.37.782,continuous_performance_test,2024.2.4,Win32,60.0240096,64344914-6a02-4ace-87e5-8cf4f7a21956,4,255.682,257.527,space,1,0,24,24,21,1,V,space,0.399,,,,,,,,,,,
,,,,,R_93rGtFF6DR5PJVb,001,2025-08-11_14h26.37.782,continuous_performance_test,2024.2.4,Win32,60.0240096,64344914-6a02-4ace-87e5-8cf4f7a21956,4,257.532,259.278,,1,0,25,25,25,1,X,,,,,,,,,,,,,
,,,,,R_93rGtFF6DR5PJVb,001,2025-08-11_14h26.37.782,continuous_performance_test,2024.2.4,Win32,60.0240096,64344914-6a02-4ace-87e5-8cf4f7a21956,4,259.282,260.878,space,1,0,26,26,19,1,T,space,0.531,,,,,,,,,,,
,,,,,R_93rGtFF6DR5PJVb,001,2025-08-11_14h26.37.782,continuous_performance_test,2024.2.4,Win32,60.0240096,64344914-6a02-4ace-87e5-8cf4f7a21956,4,260.884,262.778,space,1,0,27,27,4,1,E,space,0.484,,,,,,,,,,,
,,,,,R_93rGtFF6DR5PJVb,001,2025-08-11_14h26.37.782,continuous_performance_test,2024.2.4,Win32,60.0240096,64344914-6a02-4ace-87e5-8cf4f7a21956,4,262.782,264.379,space,1,0,28,28,10,1,K,space,0.557,,,,,,,,,,,
,,,,,R_93rGtFF6DR5PJVb,001,2025-08-11_14h26.37.782,continuous_performance_test,2024.2.4,Win32,60.0240096,64344914-6a02-4ace-87e5-8cf4f7a21956,4,264.396,266.328,space,1,0,29,29,15,1,P,space,0.461,,,,,,,,,,,
,,,,,R_93rGtFF6DR5PJVb,001,2025-08-11_14h26.37.782,continuous_performance_test,2024.2.4,Win32,60.0240096,64344914-6a02-4ace-87e5-8cf4f7a21956,4,273.894,275.645,space,1,0,0,0,4,1,E,space,0.467,,266.333,273.844,space,7.466,,,,,,
,,,,,R_93rGtFF6DR5PJVb,001,2025-08-11_14h26.37.782,continuous_performance_test,2024.2.4,Win32,60.0240096,64344914-6a02-4ace-87e5-8cf4f7a21956,4,275.651,277.444,space,1,0,1,1,17,1,R,space,0.381,,,,,,,,,,,
,,,,,R_93rGtFF6DR5PJVb,001,2025-08-11_14h26.37.782,continuous_performance_test,2024.2.4,Win32,60.0240096,64344914-6a02-4ace-87e5-8cf4f7a21956,4,277.45,279.295,space,1,0,2,2,20,1,U,space,0.332,,,,,,,,,,,
,,,,,R_93rGtFF6DR5PJVb,001,2025-08-11_14h26.37.782,continuous_performance_test,2024.2.4,Win32,60.0240096,64344914-6a02-4ace-87e5-8cf4f7a21956,4,279.301,281.185,space,1,0,3,3,15,1,P,space,0.43,,,,,,,,,,,
,,,,,R_93rGtFF6DR5PJVb,001,2025-08-11_14h26.37.782,continuous_performance_test,2024.2.4,Win32,60.0240096,64344914-6a02-4ace-87e5-8cf4f7a21956,4,281.188,283.178,space,1,0,4,4,13,1,N,space,0.378,,,,,,,,,,,
,,,,,R_93rGtFF6DR5PJVb,001,2025-08-11_14h26.37.782,continuous_performance_test,2024.2.4,Win32,60.0240096,64344914-6a02-4ace-87e5-8cf4f7a21956,4,283.183,284.978,space,1,0,5,5,18,1,S,space,0.519,,,,,,,,,,,
,,,,,R_93rGtFF6DR5PJVb,001,2025-08-11_14h26.37.782,continuous_performance_test,2024.2.4,Win32,60.0240096,64344914-6a02-4ace-87e5-8cf4f7a21956,4,284.983,286.828,space,0,0,6,6,28,1,X,,0.416,,,,,,,,,,,
,,,,,R_93rGtFF6DR5PJVb,001,2025-08-11_14h26.37.782,continuous_performance_test,2024.2.4,Win32,60.0240096,64344914-6a02-4ace-87e5-8cf4f7a21956,4,286.831,288.378,,1,0,7,7,25,1,X,,,,,,,,,,,,,
,,,,,R_93rGtFF6DR5PJVb,001,2025-08-11_14h26.37.782,continuous_performance_test,2024.2.4,Win32,60.0240096,64344914-6a02-4ace-87e5-8cf4f7a21956,4,288.385,290.128,space,1,0,8,8,6,1,G,space,0.417,,,,,,,,,,,
,,,,,R_93rGtFF6DR5PJVb,001,2025-08-11_14h26.37.782,continuous_performance_test,2024.2.4,Win32,60.0240096,64344914-6a02-4ace-87e5-8cf4f7a21956,4,290.133,291.928,space,1,0,9,9,9,1,J,space,0.418,,,,,,,,,,,
,,,,,R_93rGtFF6DR5PJVb,001,2025-08-11_14h26.37.782,continuous_performance_test,2024.2.4,Win32,60.0240096,64344914-6a02-4ace-87e5-8cf4f7a21956,4,291.934,293.727,space,1,0,10,10,11,1,L,space,0.349,,,,,,,,,,,
,,,,,R_93rGtFF6DR5PJVb,001,2025-08-11_14h26.37.782,continuous_performance_test,2024.2.4,Win32,60.0240096,64344914-6a02-4ace-87e5-8cf4f7a21956,4,293.732,295.278,space,1,0,11,11,14,1,O,space,0.503,,,,,,,,,,,
,,,,,R_93rGtFF6DR5PJVb,001,2025-08-11_14h26.37.782,continuous_performance_test,2024.2.4,Win32,60.0240096,64344914-6a02-4ace-87e5-8cf4f7a21956,4,295.282,297.078,,1,0,12,12,29,1,X,,,,,,,,,,,,,
,,,,,R_93rGtFF6DR5PJVb,001,2025-08-11_14h26.37.782,continuous_performance_test,2024.2.4,Win32,60.0240096,64344914-6a02-4ace-87e5-8cf4f7a21956,4,297.09,298.828,space,1,0,13,13,10,1,K,space,0.466,,,,,,,,,,,
,,,,,R_93rGtFF6DR5PJVb,001,2025-08-11_14h26.37.782,continuous_performance_test,2024.2.4,Win32,60.0240096,64344914-6a02-4ace-87e5-8cf4f7a21956,4,298.834,300.678,space,1,0,14,14,19,1,T,space,0.516,,,,,,,,,,,
,,,,,R_93rGtFF6DR5PJVb,001,2025-08-11_14h26.37.782,continuous_performance_test,2024.2.4,Win32,60.0240096,64344914-6a02-4ace-87e5-8cf4f7a21956,4,300.684,302.228,space,1,0,15,15,5,1,F,space,0.386,,,,,,,,,,,
,,,,,R_93rGtFF6DR5PJVb,001,2025-08-11_14h26.37.782,continuous_performance_test,2024.2.4,Win32,60.0240096,64344914-6a02-4ace-87e5-8cf4f7a21956,4,302.235,303.828,space,1,0,16,16,24,1,Z,space,0.564,,,,,,,,,,,
,,,,,R_93rGtFF6DR5PJVb,001,2025-08-11_14h26.37.782,continuous_performance_test,2024.2.4,Win32,60.0240096,64344914-6a02-4ace-87e5-8cf4f7a21956,4,303.834,305.578,space,0,0,17,17,26,1,X,,0.345,,,,,,,,,,,
,,,,,R_93rGtFF6DR5PJVb,001,2025-08-11_14h26.37.782,continuous_performance_test,2024.2.4,Win32,60.0240096,64344914-6a02-4ace-87e5-8cf4f7a21956,4,305.584,307.328,space,1,0,18,18,21,1,V,space,0.499,,,,,,,,,,,
,,,,,R_93rGtFF6DR5PJVb,001,2025-08-11_14h26.37.782,continuous_performance_test,2024.2.4,Win32,60.0240096,64344914-6a02-4ace-87e5-8cf4f7a21956,4,307.333,308.934,space,1,0,19,19,2,1,C,space,0.403,,,,,,,,,,,
,,,,,R_93rGtFF6DR5PJVb,001,2025-08-11_14h26.37.782,continuous_performance_test,2024.2.4,Win32,60.0240096,64344914-6a02-4ace-87e5-8cf4f7a21956,4,308.936,310.778,,1,0,20,20,27,1,X,,,,,,,,,,,,,
,,,,,R_93rGtFF6DR5PJVb,001,2025-08-11_14h26.37.782,continuous_performance_test,2024.2.4,Win32,60.0240096,64344914-6a02-4ace-87e5-8cf4f7a21956,4,310.783,312.529,space,1,0,21,21,8,1,I,space,0.381,,,,,,,,,,,
,,,,,R_93rGtFF6DR5PJVb,001,2025-08-11_14h26.37.782,continuous_performance_test,2024.2.4,Win32,60.0240096,64344914-6a02-4ace-87e5-8cf4f7a21956,4,312.535,314.328,space,1,0,22,22,1,1,B,space,0.396,,,,,,,,,,,
,,,,,R_93rGtFF6DR5PJVb,001,2025-08-11_14h26.37.782,continuous_performance_test,2024.2.4,Win32,60.0240096,64344914-6a02-4ace-87e5-8cf4f7a21956,4,314.334,316.078,space,1,0,23,23,7,1,H,space,0.485,,,,,,,,,,,
,,,,,R_93rGtFF6DR5PJVb,001,2025-08-11_14h26.37.782,continuous_performance_test,2024.2.4,Win32,60.0240096,64344914-6a02-4ace-87e5-8cf4f7a21956,4,316.084,317.978,space,1,0,24,24,12,1,M,space,0.382,,,,,,,,,,,
,,,,,R_93rGtFF6DR5PJVb,001,2025-08-11_14h26.37.782,continuous_performance_test,2024.2.4,Win32,60.0240096,64344914-6a02-4ace-87e5-8cf4f7a21956,4,317.983,319.529,space,1,0,25,25,16,1,Q,space,0.483,,,,,,,,,,,
,,,,,R_93rGtFF6DR5PJVb,001,2025-08-11_14h26.37.782,continuous_performance_test,2024.2.4,Win32,60.0240096,64344914-6a02-4ace-87e5-8cf4f7a21956,4,319.533,321.278,space,1,0,26,26,22,1,W,space,0.485,,,,,,,,,,,
,,,,,R_93rGtFF6DR5PJVb,001,2025-08-11_14h26.37.782,continuous_performance_test,2024.2.4,Win32,60.0240096,64344914-6a02-4ace-87e5-8cf4f7a21956,4,321.282,323.228,space,1,0,27,27,23,1,Y,space,0.381,,,,,,,,,,,
,,,,,R_93rGtFF6DR5PJVb,001,2025-08-11_14h26.37.782,continuous_performance_test,2024.2.4,Win32,60.0240096,64344914-6a02-4ace-87e5-8cf4f7a21956,4,323.233,325.128,space,1,0,28,28,3,1,D,space,0.349,,,,,,,,,,,
,,,,,R_93rGtFF6DR5PJVb,001,2025-08-11_14h26.37.782,continuous_performance_test,2024.2.4,Win32,60.0240096,64344914-6a02-4ace-87e5-8cf4f7a21956,4,325.133,326.778,space,1,0,29,29,0,1,A,space,0.351,,,,,,,,,,,
,,,,,R_93rGtFF6DR5PJVb,001,2025-08-11_14h26.37.782,continuous_performance_test,2024.2.4,Win32,60.0240096,64344914-6a02-4ace-87e5-8cf4f7a21956,4,333.627,335.562,space,1,0,0,0,23,1,Y,space,0.415,,326.782,333.569,space,6.739,,,,,,
,,,,,R_93rGtFF6DR5PJVb,001,2025-08-11_14h26.37.782,continuous_performance_test,2024.2.4,Win32,60.0240096,64344914-6a02-4ace-87e5-8cf4f7a21956,4,335.569,337.311,space,1,0,1,1,1,1,B,space,0.364,,,,,,,,,,,
,,,,,R_93rGtFF6DR5PJVb,001,2025-08-11_14h26.37.782,continuous_performance_test,2024.2.4,Win32,60.0240096,64344914-6a02-4ace-87e5-8cf4f7a21956,4,337.32,338.961,space,1,0,2,2,9,1,J,space,0.398,,,,,,,,,,,
,,,,,R_93rGtFF6DR5PJVb,001,2025-08-11_14h26.37.782,continuous_performance_test,2024.2.4,Win32,60.0240096,64344914-6a02-4ace-87e5-8cf4f7a21956,4,338.97,340.661,,1,0,3,3,26,1,X,,,,,,,,,,,,,
,,,,,R_93rGtFF6DR5PJVb,001,2025-08-11_14h26.37.782,continuous_performance_test,2024.2.4,Win32,60.0240096,64344914-6a02-4ace-87e5-8cf4f7a21956,4,340.669,342.462,space,1,0,4,4,12,1,M,space,0.5,,,,,,,,,,,
,,,,,R_93rGtFF6DR5PJVb,001,2025-08-11_14h26.37.782,continuous_performance_test,2024.2.4,Win32,60.0240096,64344914-6a02-4ace-87e5-8cf4f7a21956,4,342.468,344.462,space,1,0,5,5,15,1,P,space,0.379,,,,,,,,,,,
,,,,,R_93rGtFF6DR5PJVb,001,2025-08-11_14h26.37.782,continuous_performance_test,2024.2.4,Win32,60.0240096,64344914-6a02-4ace-87e5-8cf4f7a21956,4,344.466,346.112,space,1,0,6,6,16,1,Q,space,0.031,,,,,,,,,,,
,,,,,R_93rGtFF6DR5PJVb,001,2025-08-11_14h26.37.782,continuous_performance_test,2024.2.4,Win32,60.0240096,64344914-6a02-4ace-87e5-8cf4f7a21956,4,346.117,347.661,,1,0,7,7,27,1,X,,,,,,,,,,,,,
,,,,,R_93rGtFF6DR5PJVb,001,2025-08-11_14h26.37.782,continuous_performance_test,2024.2.4,Win32,60.0240096,64344914-6a02-4ace-87e5-8cf4f7a21956,4,347.669,349.411,space,1,0,8,8,8,1,I,space,0.483,,,,,,,,,,,
,,,,,R_93rGtFF6DR5PJVb,001,2025-08-11_14h26.37.782,continuous_performance_test,2024.2.4,Win32,60.0240096,64344914-6a02-4ace-87e5-8cf4f7a21956,4,349.419,351.311,space,1,0,9,9,3,1,D,space,0.415,,,,,,,,,,,
,,,,,R_93rGtFF6DR5PJVb,001,2025-08-11_14h26.37.782,continuous_performance_test,2024.2.4,Win32,60.0240096,64344914-6a02-4ace-87e5-8cf4f7a21956,4,351.317,352.962,,1,0,10,10,28,1,X,,,,,,,,,,,,,
,,,,,R_93rGtFF6DR5PJVb,001,2025-08-11_14h26.37.782,continuous_performance_test,2024.2.4,Win32,60.0240096,64344914-6a02-4ace-87e5-8cf4f7a21956,4,352.967,354.661,space,1,0,11,11,18,1,S,space,0.35,,,,,,,,,,,
,,,,,R_93rGtFF6DR5PJVb,001,2025-08-11_14h26.37.782,continuous_performance_test,2024.2.4,Win32,60.0240096,64344914-6a02-4ace-87e5-8cf4f7a21956,4,354.667,356.311,space,1,0,12,12,0,1,A,space,0.449,,,,,,,,,,,
,,,,,R_93rGtFF6DR5PJVb,001,2025-08-11_14h26.37.782,continuous_performance_test,2024.2.4,Win32,60.0240096,64344914-6a02-4ace-87e5-8cf4f7a21956,4,356.317,358.261,space,1,0,13,13,22,1,W,space,0.433,,,,,,,,,,,
,,,,,R_93rGtFF6DR5PJVb,001,2025-08-11_14h26.37.782,continuous_performance_test,2024.2.4,Win32,60.0240096,64344914-6a02-4ace-87e5-8cf4f7a21956,4,358.267,360.012,space,1,0,14,14,2,1,C,space,0.397,,,,,,,,,,,
,,,,,R_93rGtFF6DR5PJVb,001,2025-08-11_14h26.37.782,continuous_performance_test,2024.2.4,Win32,60.0240096,64344914-6a02-4ace-87e5-8cf4f7a21956,4,360.018,361.563,space,1,0,15,15,4,1,E,space,0.481,,,,,,,,,,,
,,,,,R_93rGtFF6DR5PJVb,001,2025-08-11_14h26.37.782,continuous_performance_test,2024.2.4,Win32,60.0240096,64344914-6a02-4ace-87e5-8cf4f7a21956,4,361.577,363.362,space,1,0,16,16,19,1,T,space,0.491,,,,,,,,,,,
,,,,,R_93rGtFF6DR5PJVb,001,2025-08-11_14h26.37.782,continuous_performance_test,2024.2.4,Win32,60.0240096,64344914-6a02-4ace-87e5-8cf4f7a21956,4,363.369,365.262,space,1,0,17,17,13,1,N,space,0.395,,,,,,,,,,,
,,,,,R_93rGtFF6DR5PJVb,001,2025-08-11_14h26.37.782,continuous_performance_test,2024.2.4,Win32,60.0240096,64344914-6a02-4ace-87e5-8cf4f7a21956,4,365.267,366.962,space,1,0,18,18,6,1,G,space,0.347,,,,,,,,,,,
,,,,,R_93rGtFF6DR5PJVb,001,2025-08-11_14h26.37.782,continuous_performance_test,2024.2.4,Win32,60.0240096,64344914-6a02-4ace-87e5-8cf4f7a21956,4,366.968,368.812,space,1,0,19,19,11,1,L,space,0.363,,,,,,,,,,,
,,,,,R_93rGtFF6DR5PJVb,001,2025-08-11_14h26.37.782,continuous_performance_test,2024.2.4,Win32,60.0240096,64344914-6a02-4ace-87e5-8cf4f7a21956,4,368.818,370.361,space,1,0,20,20,10,1,K,space,0.412,,,,,,,,,,,
,,,,,R_93rGtFF6DR5PJVb,001,2025-08-11_14h26.37.782,continuous_performance_test,2024.2.4,Win32,60.0240096,64344914-6a02-4ace-87e5-8cf4f7a21956,4,370.369,372.212,space,1,0,21,21,20,1,U,space,0.382,,,,,,,,,,,
,,,,,R_93rGtFF6DR5PJVb,001,2025-08-11_14h26.37.782,continuous_performance_test,2024.2.4,Win32,60.0240096,64344914-6a02-4ace-87e5-8cf4f7a21956,4,372.218,374.011,space,1,0,22,22,24,1,Z,space,0.414,,,,,,,,,,,
,,,,,R_93rGtFF6DR5PJVb,001,2025-08-11_14h26.37.782,continuous_performance_test,2024.2.4,Win32,60.0240096,64344914-6a02-4ace-87e5-8cf4f7a21956,4,374.017,375.712,,1,0,23,23,29,1,X,,,,,,,,,,,,,
,,,,,R_93rGtFF6DR5PJVb,001,2025-08-11_14h26.37.782,continuous_performance_test,2024.2.4,Win32,60.0240096,64344914-6a02-4ace-87e5-8cf4f7a21956,4,375.719,377.661,space,1,0,24,24,5,1,F,space,0.414,,,,,,,,,,,
,,,,,R_93rGtFF6DR5PJVb,001,2025-08-11_14h26.37.782,continuous_performance_test,2024.2.4,Win32,60.0240096,64344914-6a02-4ace-87e5-8cf4f7a21956,4,377.668,379.362,,1,0,25,25,25,1,X,,,,,,,,,,,,,
,,,,,R_93rGtFF6DR5PJVb,001,2025-08-11_14h26.37.782,continuous_performance_test,2024.2.4,Win32,60.0240096,64344914-6a02-4ace-87e5-8cf4f7a21956,4,379.369,381.062,space,1,0,26,26,7,1,H,space,0.347,,,,,,,,,,,
,,,,,R_93rGtFF6DR5PJVb,001,2025-08-11_14h26.37.782,continuous_performance_test,2024.2.4,Win32,60.0240096,64344914-6a02-4ace-87e5-8cf4f7a21956,4,381.068,382.862,space,1,0,27,27,17,1,R,space,0.353,,,,,,,,,,,
,,,,,R_93rGtFF6DR5PJVb,001,2025-08-11_14h26.37.782,continuous_performance_test,2024.2.4,Win32,60.0240096,64344914-6a02-4ace-87e5-8cf4f7a21956,4,382.868,384.462,space,1,0,28,28,14,1,O,space,0.365,,,,,,,,,,,
,,,,,R_93rGtFF6DR5PJVb,001,2025-08-11_14h26.37.782,continuous_performance_test,2024.2.4,Win32,60.0240096,64344914-6a02-4ace-87e5-8cf4f7a21956,4,384.467,386.011,space,1,0,29,29,21,1,V,space,0.466,,,,,,,,,,,
,,,,,R_93rGtFF6DR5PJVb,001,2025-08-11_14h26.37.782,continuous_performance_test,2024.2.4,Win32,60.0240096,64344914-6a02-4ace-87e5-8cf4f7a21956,4,390.216,392.062,space,1,0,0,0,8,1,I,space,0.433,,386.017,390.162,space,4.099,,,,,,
,,,,,R_93rGtFF6DR5PJVb,001,2025-08-11_14h26.37.782,continuous_performance_test,2024.2.4,Win32,60.0240096,64344914-6a02-4ace-87e5-8cf4f7a21956,4,392.067,393.812,,1,0,1,1,27,1,X,,,,,,,,,,,,,
,,,,,R_93rGtFF6DR5PJVb,001,2025-08-11_14h26.37.782,continuous_performance_test,2024.2.4,Win32,60.0240096,64344914-6a02-4ace-87e5-8cf4f7a21956,4,393.823,395.762,space,1,0,2,2,22,1,W,space,0.333,,,,,,,,,,,
,,,,,R_93rGtFF6DR5PJVb,001,2025-08-11_14h26.37.782,continuous_performance_test,2024.2.4,Win32,60.0240096,64344914-6a02-4ace-87e5-8cf4f7a21956,4,395.769,397.712,space,0,0,3,3,26,1,X,,0.346,,,,,,,,,,,
,,,,,R_93rGtFF6DR5PJVb,001,2025-08-11_14h26.37.782,continuous_performance_test,2024.2.4,Win32,60.0240096,64344914-6a02-4ace-87e5-8cf4f7a21956,4,397.717,399.412,,1,0,4,4,25,1,X,,,,,,,,,,,,,
,,,,,R_93rGtFF6DR5PJVb,001,2025-08-11_14h26.37.782,continuous_performance_test,2024.2.4,Win32,60.0240096,64344914-6a02-4ace-87e5-8cf4f7a21956,4,399.42,401.412,space,1,0,5,5,12,1,M,space,0.395,,,,,,,,,,,
,,,,,R_93rGtFF6DR5PJVb,001,2025-08-11_14h26.37.782,continuous_performance_test,2024.2.4,Win32,60.0240096,64344914-6a02-4ace-87e5-8cf4f7a21956,4,401.419,402.962,space,1,0,6,6,20,1,U,space,0.414,,,,,,,,,,,
,,,,,R_93rGtFF6DR5PJVb,001,2025-08-11_14h26.37.782,continuous_performance_test,2024.2.4,Win32,60.0240096,64344914-6a02-4ace-87e5-8cf4f7a21956,4,402.969,404.812,space,1,0,7,7,17,1,R,space,0.334,,,,,,,,,,,
,,,,,R_93rGtFF6DR5PJVb,001,2025-08-11_14h26.37.782,continuous_performance_test,2024.2.4,Win32,60.0240096,64344914-6a02-4ace-87e5-8cf4f7a21956,4,404.818,406.562,space,1,0,8,8,11,1,L,space,0.433,,,,,,,,,,,
,,,,,R_93rGtFF6DR5PJVb,001,2025-08-11_14h26.37.782,continuous_performance_test,2024.2.4,Win32,60.0240096,64344914-6a02-4ace-87e5-8cf4f7a21956,4,406.569,408.461,space,1,0,9,9,2,1,C,space,0.368,,,,,,,,,,,
,,,,,R_93rGtFF6DR5PJVb,001,2025-08-11_14h26.37.782,continuous_performance_test,2024.2.4,Win32,60.0240096,64344914-6a02-4ace-87e5-8cf4f7a21956,4,408.466,410.312,space,1,0,10,10,13,1,N,space,0.348,,,,,,,,,,,
,,,,,R_93rGtFF6DR5PJVb,001,2025-08-11_14h26.37.782,continuous_performance_test,2024.2.4,Win32,60.0240096,64344914-6a02-4ace-87e5-8cf4f7a21956,4,410.318,412.012,,1,0,11,11,28,1,X,,,,,,,,,,,,,
,,,,,R_93rGtFF6DR5PJVb,001,2025-08-11_14h26.37.782,continuous_performance_test,2024.2.4,Win32,60.0240096,64344914-6a02-4ace-87e5-8cf4f7a21956,4,412.019,413.662,space,1,0,12,12,9,1,J,space,0.412,,,,,,,,,,,
,,,,,R_93rGtFF6DR5PJVb,001,2025-08-11_14h26.37.782,continuous_performance_test,2024.2.4,Win32,60.0240096,64344914-6a02-4ace-87e5-8cf4f7a21956,4,413.668,415.512,space,1,0,13,13,10,1,K,space,0.483,,,,,,,,,,,
,,,,,R_93rGtFF6DR5PJVb,001,2025-08-11_14h26.37.782,continuous_performance_test,2024.2.4,Win32,60.0240096,64344914-6a02-4ace-87e5-8cf4f7a21956,4,415.517,417.213,space,1,0,14,14,15,1,P,space,0.364,,,,,,,,,,,
,,,,,R_93rGtFF6DR5PJVb,001,2025-08-11_14h26.37.782,continuous_performance_test,2024.2.4,Win32,60.0240096,64344914-6a02-4ace-87e5-8cf4f7a21956,4,417.218,419.112,space,1,0,15,15,4,1,E,space,0.399,,,,,,,,,,,
,,,,,R_93rGtFF6DR5PJVb,001,2025-08-11_14h26.37.782,continuous_performance_test,2024.2.4,Win32,60.0240096,64344914-6a02-4ace-87e5-8cf4f7a21956,4,419.117,420.912,space,1,0,16,16,5,1,F,space,0.369,,,,,,,,,,,
,,,,,R_93rGtFF6DR5PJVb,001,2025-08-11_14h26.37.782,continuous_performance_test,2024.2.4,Win32,60.0240096,64344914-6a02-4ace-87e5-8cf4f7a21956,4,420.917,422.661,space,1,0,17,17,0,1,A,space,0.415,,,,,,,,,,,
,,,,,R_93rGtFF6DR5PJVb,001,2025-08-11_14h26.37.782,continuous_performance_test,2024.2.4,Win32,60.0240096,64344914-6a02-4ace-87e5-8cf4f7a21956,4,422.664,424.212,space,1,0,18,18,14,1,O,space,0.449,,,,,,,,,,,
,,,,,R_93rGtFF6DR5PJVb,001,2025-08-11_14h26.37.782,continuous_performance_test,2024.2.4,Win32,60.0240096,64344914-6a02-4ace-87e5-8cf4f7a21956,4,424.218,426.117,space,1,0,19,19,19,1,T,space,0.383,,,,,,,,,,,
,,,,,R_93rGtFF6DR5PJVb,001,2025-08-11_14h26.37.782,continuous_performance_test,2024.2.4,Win32,60.0240096,64344914-6a02-4ace-87e5-8cf4f7a21956,4,426.131,427.812,space,1,0,20,20,3,1,D,space,0.449,,,,,,,,,,,
,,,,,R_93rGtFF6DR5PJVb,001,2025-08-11_14h26.37.782,continuous_performance_test,2024.2.4,Win32,60.0240096,64344914-6a02-4ace-87e5-8cf4f7a21956,4,427.818,429.813,space,1,0,21,21,18,1,S,space,0.382,,,,,,,,,,,
,,,,,R_93rGtFF6DR5PJVb,001,2025-08-11_14h26.37.782,continuous_performance_test,2024.2.4,Win32,60.0240096,64344914-6a02-4ace-87e5-8cf4f7a21956,4,429.819,431.712,space,1,0,22,22,1,1,B,space,0.397,,,,,,,,,,,
,,,,,R_93rGtFF6DR5PJVb,001,2025-08-11_14h26.37.782,continuous_performance_test,2024.2.4,Win32,60.0240096,64344914-6a02-4ace-87e5-8cf4f7a21956,4,431.72,433.412,space,1,0,23,23,6,1,G,space,0.549,,,,,,,,,,,
,,,,,R_93rGtFF6DR5PJVb,001,2025-08-11_14h26.37.782,continuous_performance_test,2024.2.4,Win32,60.0240096,64344914-6a02-4ace-87e5-8cf4f7a21956,4,433.418,435.012,space,1,0,24,24,16,1,Q,space,0.429,,,,,,,,,,,
,,,,,R_93rGtFF6DR5PJVb,001,2025-08-11_14h26.37.782,continuous_performance_test,2024.2.4,Win32,60.0240096,64344914-6a02-4ace-87e5-8cf4f7a21956,4,435.018,436.712,space,1,0,25,25,21,1,V,space,0.333,,,,,,,,,,,
,,,,,R_93rGtFF6DR5PJVb,001,2025-08-11_14h26.37.782,continuous_performance_test,2024.2.4,Win32,60.0240096,64344914-6a02-4ace-87e5-8cf4f7a21956,4,436.72,438.462,space,1,0,26,26,7,1,H,space,0.436,,,,,,,,,,,
,,,,,R_93rGtFF6DR5PJVb,001,2025-08-11_14h26.37.782,continuous_performance_test,2024.2.4,Win32,60.0240096,64344914-6a02-4ace-87e5-8cf4f7a21956,4,438.469,440.463,,1,0,27,27,29,1,X,,,,,,,,,,,,,
,,,,,R_93rGtFF6DR5PJVb,001,2025-08-11_14h26.37.782,continuous_performance_test,2024.2.4,Win32,60.0240096,64344914-6a02-4ace-87e5-8cf4f7a21956,4,440.468,442.062,space,1,0,28,28,24,1,Z,space,0.532,,,,,,,,,,,
,,,,,R_93rGtFF6DR5PJVb,001,2025-08-11_14h26.37.782,continuous_performance_test,2024.2.4,Win32,60.0240096,64344914-6a02-4ace-87e5-8cf4f7a21956,4,442.067,443.862,space,1,0,29,29,23,1,Y,space,0.414,,,,,,,,,,,
,,,,,R_93rGtFF6DR5PJVb,001,2025-08-11_14h26.37.782,continuous_performance_test,2024.2.4,Win32,60.0240096,64344914-6a02-4ace-87e5-8cf4f7a21956,4,445.112,447.063,space,1,0,0,0,1,1,B,space,0.566,,443.866,445.063,space,1.149,,,,,,
,,,,,R_93rGtFF6DR5PJVb,001,2025-08-11_14h26.37.782,continuous_performance_test,2024.2.4,Win32,60.0240096,64344914-6a02-4ace-87e5-8cf4f7a21956,4,447.07,448.862,space,1,0,1,1,17,1,R,space,0.365,,,,,,,,,,,
,,,,,R_93rGtFF6DR5PJVb,001,2025-08-11_14h26.37.782,continuous_performance_test,2024.2.4,Win32,60.0240096,64344914-6a02-4ace-87e5-8cf4f7a21956,4,448.869,450.413,space,1,0,2,2,18,1,S,space,0.387,,,,,,,,,,,
,,,,,R_93rGtFF6DR5PJVb,001,2025-08-11_14h26.37.782,continuous_performance_test,2024.2.4,Win32,60.0240096,64344914-6a02-4ace-87e5-8cf4f7a21956,4,450.417,452.012,,1,0,3,3,28,1,X,,,,,,,,,,,,,
,,,,,R_93rGtFF6DR5PJVb,001,2025-08-11_14h26.37.782,continuous_performance_test,2024.2.4,Win32,60.0240096,64344914-6a02-4ace-87e5-8cf4f7a21956,4,452.017,453.563,space,1,0,4,4,0,1,A,space,0.367,,,,,,,,,,,
,,,,,R_93rGtFF6DR5PJVb,001,2025-08-11_14h26.37.782,continuous_performance_test,2024.2.4,Win32,60.0240096,64344914-6a02-4ace-87e5-8cf4f7a21956,4,453.567,455.313,space,1,0,5,5,5,1,F,space,0.399,,,,,,,,,,,
,,,,,R_93rGtFF6DR5PJVb,001,2025-08-11_14h26.37.782,continuous_performance_test,2024.2.4,Win32,60.0240096,64344914-6a02-4ace-87e5-8cf4f7a21956,4,455.318,457.113,space,1,0,6,6,7,1,H,space,0.384,,,,,,,,,,,
,,,,,R_93rGtFF6DR5PJVb,001,2025-08-11_14h26.37.782,continuous_performance_test,2024.2.4,Win32,60.0240096,64344914-6a02-4ace-87e5-8cf4f7a21956,4,457.128,459.112,space,1,0,7,7,10,1,K,space,0.363,,,,,,,,,,,
,,,,,R_93rGtFF6DR5PJVb,001,2025-08-11_14h26.37.782,continuous_performance_test,2024.2.4,Win32,60.0240096,64344914-6a02-4ace-87e5-8cf4f7a21956,4,459.118,460.663,space,1,0,8,8,23,1,Y,space,0.43,,,,,,,,,,,
,,,,,R_93rGtFF6DR5PJVb,001,2025-08-11_14h26.37.782,continuous_performance_test,2024.2.4,Win32,60.0240096,64344914-6a02-4ace-87e5-8cf4f7a21956,4,460.67,462.663,space,1,0,9,9,2,1,C,space,0.382,,,,,,,,,,,
,,,,,R_93rGtFF6DR5PJVb,001,2025-08-11_14h26.37.782,continuous_performance_test,2024.2.4,Win32,60.0240096,64344914-6a02-4ace-87e5-8cf4f7a21956,4,462.67,464.362,,1,0,10,10,29,1,X,,,,,,,,,,,,,
,,,,,R_93rGtFF6DR5PJVb,001,2025-08-11_14h26.37.782,continuous_performance_test,2024.2.4,Win32,60.0240096,64344914-6a02-4ace-87e5-8cf4f7a21956,4,464.369,466.312,space,1,0,11,11,16,1,Q,space,0.37,,,,,,,,,,,
,,,,,R_93rGtFF6DR5PJVb,001,2025-08-11_14h26.37.782,continuous_performance_test,2024.2.4,Win32,60.0240096,64344914-6a02-4ace-87e5-8cf4f7a21956,4,466.318,468.112,space,1,0,12,12,11,1,L,space,0.45,,,,,,,,,,,
,,,,,R_93rGtFF6DR5PJVb,001,2025-08-11_14h26.37.782,continuous_performance_test,2024.2.4,Win32,60.0240096,64344914-6a02-4ace-87e5-8cf4f7a21956,4,468.117,469.913,space,1,0,13,13,12,1,M,space,0.564,,,,,,,,,,,
,,,,,R_93rGtFF6DR5PJVb,001,2025-08-11_14h26.37.782,continuous_performance_test,2024.2.4,Win32,60.0240096,64344914-6a02-4ace-87e5-8cf4f7a21956,4,469.917,471.713,space,1,0,14,14,21,1,V,space,0.402,,,,,,,,,,,
,,,,,R_93rGtFF6DR5PJVb,001,2025-08-11_14h26.37.782,continuous_performance_test,2024.2.4,Win32,60.0240096,64344914-6a02-4ace-87e5-8cf4f7a21956,4,471.719,473.413,space,1,0,15,15,15,1,P,space,0.383,,,,,,,,,,,
,,,,,R_93rGtFF6DR5PJVb,001,2025-08-11_14h26.37.782,continuous_performance_test,2024.2.4,Win32,60.0240096,64344914-6a02-4ace-87e5-8cf4f7a21956,4,473.417,475.413,space,1,0,16,16,9,1,J,space,0.403,,,,,,,,,,,
,,,,,R_93rGtFF6DR5PJVb,001,2025-08-11_14h26.37.782,continuous_performance_test,2024.2.4,Win32,60.0240096,64344914-6a02-4ace-87e5-8cf4f7a21956,4,475.42,477.113,space,1,0,17,17,8,1,I,space,0.45,,,,,,,,,,,
,,,,,R_93rGtFF6DR5PJVb,001,2025-08-11_14h26.37.782,continuous_performance_test,2024.2.4,Win32,60.0240096,64344914-6a02-4ace-87e5-8cf4f7a21956,4,477.118,478.762,space,1,0,18,18,6,1,G,space,0.448,,,,,,,,,,,
,,,,,R_93rGtFF6DR5PJVb,001,2025-08-11_14h26.37.782,continuous_performance_test,2024.2.4,Win32,60.0240096,64344914-6a02-4ace-87e5-8cf4f7a21956,4,478.768,480.312,space,1,0,19,19,13,1,N,space,0.415,,,,,,,,,,,
,,,,,R_93rGtFF6DR5PJVb,001,2025-08-11_14h26.37.782,continuous_performance_test,2024.2.4,Win32,60.0240096,64344914-6a02-4ace-87e5-8cf4f7a21956,4,480.317,482.112,space,1,0,20,20,19,1,T,space,0.449,,,,,,,,,,,
,,,,,R_93rGtFF6DR5PJVb,001,2025-08-11_14h26.37.782,continuous_performance_test,2024.2.4,Win32,60.0240096,64344914-6a02-4ace-87e5-8cf4f7a21956,4,482.115,483.762,,1,0,21,21,27,1,X,,,,,,,,,,,,,
,,,,,R_93rGtFF6DR5PJVb,001,2025-08-11_14h26.37.782,continuous_performance_test,2024.2.4,Win32,60.0240096,64344914-6a02-4ace-87e5-8cf4f7a21956,4,483.766,485.513,space,1,0,22,22,4,1,E,space,0.45,,,,,,,,,,,
,,,,,R_93rGtFF6DR5PJVb,001,2025-08-11_14h26.37.782,continuous_performance_test,2024.2.4,Win32,60.0240096,64344914-6a02-4ace-87e5-8cf4f7a21956,4,485.517,487.413,space,1,0,23,23,14,1,O,space,0.463,,,,,,,,,,,
,,,,,R_93rGtFF6DR5PJVb,001,2025-08-11_14h26.37.782,continuous_performance_test,2024.2.4,Win32,60.0240096,64344914-6a02-4ace-87e5-8cf4f7a21956,4,487.419,489.113,space,1,0,24,24,20,1,U,space,0.521,,,,,,,,,,,
,,,,,R_93rGtFF6DR5PJVb,001,2025-08-11_14h26.37.782,continuous_performance_test,2024.2.4,Win32,60.0240096,64344914-6a02-4ace-87e5-8cf4f7a21956,4,489.118,491.013,space,0,0,25,25,26,1,X,,0.37,,,,,,,,,,,
,,,,,R_93rGtFF6DR5PJVb,001,2025-08-11_14h26.37.782,continuous_performance_test,2024.2.4,Win32,60.0240096,64344914-6a02-4ace-87e5-8cf4f7a21956,4,491.024,492.712,space,1,0,26,26,22,1,W,space,0.431,,,,,,,,,,,
,,,,,R_93rGtFF6DR5PJVb,001,2025-08-11_14h26.37.782,continuous_performance_test,2024.2.4,Win32,60.0240096,64344914-6a02-4ace-87e5-8cf4f7a21956,4,492.719,494.313,space,1,0,27,27,24,1,Z,space,0.481,,,,,,,,,,,
,,,,,R_93rGtFF6DR5PJVb,001,2025-08-11_14h26.37.782,continuous_performance_test,2024.2.4,Win32,60.0240096,64344914-6a02-4ace-87e5-8cf4f7a21956,4,494.319,496.212,,1,0,28,28,25,1,X,,,,,,,,,,,,,
,,,,,R_93rGtFF6DR5PJVb,001,2025-08-11_14h26.37.782,continuous_performance_test,2024.2.4,Win32,60.0240096,64344914-6a02-4ace-87e5-8cf4f7a21956,4,496.219,498.113,space,1,0,29,29,3,1,D,space,0.396,,,,,,,,,,,
,,,,,R_93rGtFF6DR5PJVb,001,2025-08-11_14h26.37.782,continuous_performance_test,2024.2.4,Win32,60.0240096,64344914-6a02-4ace-87e5-8cf4f7a21956,4,507.361,509.313,space,1,0,0,0,4,1,E,space,0.414,,498.117,507.313,space,9.143,,,,,,
,,,,,R_93rGtFF6DR5PJVb,001,2025-08-11_14h26.37.782,continuous_performance_test,2024.2.4,Win32,60.0240096,64344914-6a02-4ace-87e5-8cf4f7a21956,4,509.319,511.313,space,1,0,1,1,7,1,H,space,0.397,,,,,,,,,,,
,,,,,R_93rGtFF6DR5PJVb,001,2025-08-11_14h26.37.782,continuous_performance_test,2024.2.4,Win32,60.0240096,64344914-6a02-4ace-87e5-8cf4f7a21956,4,511.318,513.113,space,1,0,2,2,18,1,S,space,0.35,,,,,,,,,,,
,,,,,R_93rGtFF6DR5PJVb,001,2025-08-11_14h26.37.782,continuous_performance_test,2024.2.4,Win32,60.0240096,64344914-6a02-4ace-87e5-8cf4f7a21956,4,513.119,514.913,space,1,0,3,3,2,1,C,space,0.365,,,,,,,,,,,
,,,,,R_93rGtFF6DR5PJVb,001,2025-08-11_14h26.37.782,continuous_performance_test,2024.2.4,Win32,60.0240096,64344914-6a02-4ace-87e5-8cf4f7a21956,4,514.919,516.612,space,1,0,4,4,16,1,Q,space,0.418,,,,,,,,,,,
,,,,,R_93rGtFF6DR5PJVb,001,2025-08-11_14h26.37.782,continuous_performance_test,2024.2.4,Win32,60.0240096,64344914-6a02-4ace-87e5-8cf4f7a21956,4,516.618,518.312,space,1,0,5,5,19,1,T,space,0.366,,,,,,,,,,,
,,,,,R_93rGtFF6DR5PJVb,001,2025-08-11_14h26.37.782,continuous_performance_test,2024.2.4,Win32,60.0240096,64344914-6a02-4ace-87e5-8cf4f7a21956,4,518.317,520.313,space,1,0,6,6,15,1,P,space,0.332,,,,,,,,,,,
,,,,,R_93rGtFF6DR5PJVb,001,2025-08-11_14h26.37.782,continuous_performance_test,2024.2.4,Win32,60.0240096,64344914-6a02-4ace-87e5-8cf4f7a21956,4,520.318,522.113,space,1,0,7,7,14,1,O,space,0.328,,,,,,,,,,,
,,,,,R_93rGtFF6DR5PJVb,001,2025-08-11_14h26.37.782,continuous_performance_test,2024.2.4,Win32,60.0240096,64344914-6a02-4ace-87e5-8cf4f7a21956,4,522.129,524.113,space,1,0,8,8,20,1,U,space,0.382,,,,,,,,,,,
,,,,,R_93rGtFF6DR5PJVb,001,2025-08-11_14h26.37.782,continuous_performance_test,2024.2.4,Win32,60.0240096,64344914-6a02-4ace-87e5-8cf4f7a21956,4,524.119,525.762,space,0,0,9,9,27,1,X,,0.399,,,,,,,,,,,
,,,,,R_93rGtFF6DR5PJVb,001,2025-08-11_14h26.37.782,continuous_performance_test,2024.2.4,Win32,60.0240096,64344914-6a02-4ace-87e5-8cf4f7a21956,4,525.769,527.612,space,1,0,10,10,6,1,G,space,0.414,,,,,,,,,,,
,,,,,R_93rGtFF6DR5PJVb,001,2025-08-11_14h26.37.782,continuous_performance_test,2024.2.4,Win32,60.0240096,64344914-6a02-4ace-87e5-8cf4f7a21956,4,527.62,529.313,space,1,0,11,11,12,1,M,space,0.001,,,,,,,,,,,
,,,,,R_93rGtFF6DR5PJVb,001,2025-08-11_14h26.37.782,continuous_performance_test,2024.2.4,Win32,60.0240096,64344914-6a02-4ace-87e5-8cf4f7a21956,4,529.32,530.913,space,1,0,12,12,5,1,F,space,0.382,,,,,,,,,,,
,,,,,R_93rGtFF6DR5PJVb,001,2025-08-11_14h26.37.782,continuous_performance_test,2024.2.4,Win32,60.0240096,64344914-6a02-4ace-87e5-8cf4f7a21956,4,530.919,532.863,space,1,0,13,13,11,1,L,space,0.347,,,,,,,,,,,
,,,,,R_93rGtFF6DR5PJVb,001,2025-08-11_14h26.37.782,continuous_performance_test,2024.2.4,Win32,60.0240096,64344914-6a02-4ace-87e5-8cf4f7a21956,4,532.869,534.413,space,1,0,14,14,17,1,R,space,0.398,,,,,,,,,,,
,,,,,R_93rGtFF6DR5PJVb,001,2025-08-11_14h26.37.782,continuous_performance_test,2024.2.4,Win32,60.0240096,64344914-6a02-4ace-87e5-8cf4f7a21956,4,534.418,536.313,space,1,0,15,15,1,1,B,space,0.349,,,,,,,,,,,
,,,,,R_93rGtFF6DR5PJVb,001,2025-08-11_14h26.37.782,continuous_performance_test,2024.2.4,Win32,60.0240096,64344914-6a02-4ace-87e5-8cf4f7a21956,4,536.32,538.112,space,1,0,16,16,10,1,K,space,0.318,,,,,,,,,,,
,,,,,R_93rGtFF6DR5PJVb,001,2025-08-11_14h26.37.782,continuous_performance_test,2024.2.4,Win32,60.0240096,64344914-6a02-4ace-87e5-8cf4f7a21956,4,538.118,539.713,space,1,0,17,17,9,1,J,space,0.399,,,,,,,,,,,
,,,,,R_93rGtFF6DR5PJVb,001,2025-08-11_14h26.37.782,continuous_performance_test,2024.2.4,Win32,60.0240096,64344914-6a02-4ace-87e5-8cf4f7a21956,4,539.719,541.413,,1,0,18,18,29,1,X,,,,,,,,,,,,,
,,,,,R_93rGtFF6DR5PJVb,001,2025-08-11_14h26.37.782,continuous_performance_test,2024.2.4,Win32,60.0240096,64344914-6a02-4ace-87e5-8cf4f7a21956,4,541.415,543.263,,1,0,19,19,26,1,X,,,,,,,,,,,,,
,,,,,R_93rGtFF6DR5PJVb,001,2025-08-11_14h26.37.782,continuous_performance_test,2024.2.4,Win32,60.0240096,64344914-6a02-4ace-87e5-8cf4f7a21956,4,543.268,544.963,space,1,0,20,20,8,1,I,space,0.433,,,,,,,,,,,
,,,,,R_93rGtFF6DR5PJVb,001,2025-08-11_14h26.37.782,continuous_performance_test,2024.2.4,Win32,60.0240096,64344914-6a02-4ace-87e5-8cf4f7a21956,4,544.968,546.713,space,1,0,21,21,3,1,D,space,0.382,,,,,,,,,,,
,,,,,R_93rGtFF6DR5PJVb,001,2025-08-11_14h26.37.782,continuous_performance_test,2024.2.4,Win32,60.0240096,64344914-6a02-4ace-87e5-8cf4f7a21956,4,546.718,548.513,space,1,0,22,22,21,1,V,space,0.382,,,,,,,,,,,
,,,,,R_93rGtFF6DR5PJVb,001,2025-08-11_14h26.37.782,continuous_performance_test,2024.2.4,Win32,60.0240096,64344914-6a02-4ace-87e5-8cf4f7a21956,4,548.517,550.513,space,1,0,23,23,0,1,A,space,0.416,,,,,,,,,,,
,,,,,R_93rGtFF6DR5PJVb,001,2025-08-11_14h26.37.782,continuous_performance_test,2024.2.4,Win32,60.0240096,64344914-6a02-4ace-87e5-8cf4f7a21956,4,550.517,552.313,space,1,0,24,24,13,1,N,space,0.412,,,,,,,,,,,
,,,,,R_93rGtFF6DR5PJVb,001,2025-08-11_14h26.37.782,continuous_performance_test,2024.2.4,Win32,60.0240096,64344914-6a02-4ace-87e5-8cf4f7a21956,4,552.318,554.313,,1,0,25,25,25,1,X,,,,,,,,,,,,,
,,,,,R_93rGtFF6DR5PJVb,001,2025-08-11_14h26.37.782,continuous_performance_test,2024.2.4,Win32,60.0240096,64344914-6a02-4ace-87e5-8cf4f7a21956,4,554.318,555.963,space,1,0,26,26,22,1,W,space,0.537,,,,,,,,,,,
,,,,,R_93rGtFF6DR5PJVb,001,2025-08-11_14h26.37.782,continuous_performance_test,2024.2.4,Win32,60.0240096,64344914-6a02-4ace-87e5-8cf4f7a21956,4,555.968,557.714,space,1,0,27,27,23,1,Y,space,0.438,,,,,,,,,,,
,,,,,R_93rGtFF6DR5PJVb,001,2025-08-11_14h26.37.782,continuous_performance_test,2024.2.4,Win32,60.0240096,64344914-6a02-4ace-87e5-8cf4f7a21956,4,557.723,559.663,space,1,0,28,28,24,1,Z,space,0.382,,,,,,,,,,,
,,,,,R_93rGtFF6DR5PJVb,001,2025-08-11_14h26.37.782,continuous_performance_test,2024.2.4,Win32,60.0240096,64344914-6a02-4ace-87e5-8cf4f7a21956,4,559.668,561.463,space,0,0,29,29,28,1,X,,0.446,,,,,,,,,,,
,,,,,R_93rGtFF6DR5PJVb,001,2025-08-11_14h26.37.782,continuous_performance_test,2024.2.4,Win32,60.0240096,64344914-6a02-4ace-87e5-8cf4f7a21956,4,568.712,570.613,space,1,0,0,0,15,1,P,space,0.413,,561.468,568.663,space,7.152,,,,,,
,,,,,R_93rGtFF6DR5PJVb,001,2025-08-11_14h26.37.782,continuous_performance_test,2024.2.4,Win32,60.0240096,64344914-6a02-4ace-87e5-8cf4f7a21956,4,570.619,572.263,space,1,0,1,1,14,1,O,space,0.382,,,,,,,,,,,
,,,,,R_93rGtFF6DR5PJVb,001,2025-08-11_14h26.37.782,continuous_performance_test,2024.2.4,Win32,60.0240096,64344914-6a02-4ace-87e5-8cf4f7a21956,4,572.269,573.863,space,1,0,2,2,13,1,N,space,0.371,,,,,,,,,,,
,,,,,R_93rGtFF6DR5PJVb,001,2025-08-11_14h26.37.782,continuous_performance_test,2024.2.4,Win32,60.0240096,64344914-6a02-4ace-87e5-8cf4f7a21956,4,573.866,575.713,space,1,0,3,3,1,1,B,space,0.429,,,,,,,,,,,
,,,,,R_93rGtFF6DR5PJVb,001,2025-08-11_14h26.37.782,continuous_performance_test,2024.2.4,Win32,60.0240096,64344914-6a02-4ace-87e5-8cf4f7a21956,4,575.719,577.463,space,1,0,4,4,18,1,S,space,0.383,,,,,,,,,,,
,,,,,R_93rGtFF6DR5PJVb,001,2025-08-11_14h26.37.782,continuous_performance_test,2024.2.4,Win32,60.0240096,64344914-6a02-4ace-87e5-8cf4f7a21956,4,577.469,579.164,space,1,0,5,5,12,1,M,space,0.098,,,,,,,,,,,
,,,,,R_93rGtFF6DR5PJVb,001,2025-08-11_14h26.37.782,continuous_performance_test,2024.2.4,Win32,60.0240096,64344914-6a02-4ace-87e5-8cf4f7a21956,4,579.171,580.963,space,1,0,6,6,5,1,F,space,0.465,,,,,,,,,,,
,,,,,R_93rGtFF6DR5PJVb,001,2025-08-11_14h26.37.782,continuous_performance_test,2024.2.4,Win32,60.0240096,64344914-6a02-4ace-87e5-8cf4f7a21956,4,580.97,582.963,space,1,0,7,7,22,1,W,space,0.388,,,,,,,,,,,
,,,,,R_93rGtFF6DR5PJVb,001,2025-08-11_14h26.37.782,continuous_performance_test,2024.2.4,Win32,60.0240096,64344914-6a02-4ace-87e5-8cf4f7a21956,4,582.97,584.663,space,1,0,8,8,7,1,H,space,0.382,,,,,,,,,,,
,,,,,R_93rGtFF6DR5PJVb,001,2025-08-11_14h26.37.782,continuous_performance_test,2024.2.4,Win32,60.0240096,64344914-6a02-4ace-87e5-8cf4f7a21956,4,584.668,586.363,space,1,0,9,9,16,1,Q,space,0.382,,,,,,,,,,,
,,,,,R_93rGtFF6DR5PJVb,001,2025-08-11_14h26.37.782,continuous_performance_test,2024.2.4,Win32,60.0240096,64344914-6a02-4ace-87e5-8cf4f7a21956,4,586.368,588.375,space,1,0,10,10,2,1,C,space,0.334,,,,,,,,,,,
,,,,,R_93rGtFF6DR5PJVb,001,2025-08-11_14h26.37.782,continuous_performance_test,2024.2.4,Win32,60.0240096,64344914-6a02-4ace-87e5-8cf4f7a21956,4,588.391,590.129,space,1,0,11,11,4,1,E,space,0.346,,,,,,,,,,,
,,,,,R_93rGtFF6DR5PJVb,001,2025-08-11_14h26.37.782,continuous_performance_test,2024.2.4,Win32,60.0240096,64344914-6a02-4ace-87e5-8cf4f7a21956,4,590.137,591.829,space,1,0,12,12,19,1,T,space,0.363,,,,,,,,,,,
,,,,,R_93rGtFF6DR5PJVb,001,2025-08-11_14h26.37.782,continuous_performance_test,2024.2.4,Win32,60.0240096,64344914-6a02-4ace-87e5-8cf4f7a21956,4,591.836,593.78,space,1,0,13,13,21,1,V,space,0.33,,,,,,,,,,,
,,,,,R_93rGtFF6DR5PJVb,001,2025-08-11_14h26.37.782,continuous_performance_test,2024.2.4,Win32,60.0240096,64344914-6a02-4ace-87e5-8cf4f7a21956,4,593.787,595.63,space,1,0,14,14,10,1,K,space,0.418,,,,,,,,,,,
,,,,,R_93rGtFF6DR5PJVb,001,2025-08-11_14h26.37.782,continuous_performance_test,2024.2.4,Win32,60.0240096,64344914-6a02-4ace-87e5-8cf4f7a21956,4,595.635,597.18,space,1,0,15,15,23,1,Y,space,0.415,,,,,,,,,,,
,,,,,R_93rGtFF6DR5PJVb,001,2025-08-11_14h26.37.782,continuous_performance_test,2024.2.4,Win32,60.0240096,64344914-6a02-4ace-87e5-8cf4f7a21956,4,597.186,599.03,space,1,0,16,16,9,1,J,space,0.398,,,,,,,,,,,
,,,,,R_93rGtFF6DR5PJVb,001,2025-08-11_14h26.37.782,continuous_performance_test,2024.2.4,Win32,60.0240096,64344914-6a02-4ace-87e5-8cf4f7a21956,4,599.036,600.58,,1,0,17,17,25,1,X,,,,,,,,,,,,,
,,,,,R_93rGtFF6DR5PJVb,001,2025-08-11_14h26.37.782,continuous_performance_test,2024.2.4,Win32,60.0240096,64344914-6a02-4ace-87e5-8cf4f7a21956,4,600.585,602.53,space,1,0,18,18,11,1,L,space,0.381,,,,,,,,,,,
,,,,,R_93rGtFF6DR5PJVb,001,2025-08-11_14h26.37.782,continuous_performance_test,2024.2.4,Win32,60.0240096,64344914-6a02-4ace-87e5-8cf4f7a21956,4,602.537,604.53,space,0,0,19,19,29,1,X,,0.349,,,,,,,,,,,
,,,,,R_93rGtFF6DR5PJVb,001,2025-08-11_14h26.37.782,continuous_performance_test,2024.2.4,Win32,60.0240096,64344914-6a02-4ace-87e5-8cf4f7a21956,4,604.535,606.28,space,1,0,20,20,3,1,D,space,0.417,,,,,,,,,,,
,,,,,R_93rGtFF6DR5PJVb,001,2025-08-11_14h26.37.782,continuous_performance_test,2024.2.4,Win32,60.0240096,64344914-6a02-4ace-87e5-8cf4f7a21956,4,606.284,607.83,space,1,0,21,21,24,1,Z,space,0.364,,,,,,,,,,,
,,,,,R_93rGtFF6DR5PJVb,001,2025-08-11_14h26.37.782,continuous_performance_test,2024.2.4,Win32,60.0240096,64344914-6a02-4ace-87e5-8cf4f7a21956,4,607.835,609.529,,1,0,22,22,28,1,X,,,,,,,,,,,,,
,,,,,R_93rGtFF6DR5PJVb,001,2025-08-11_14h26.37.782,continuous_performance_test,2024.2.4,Win32,60.0240096,64344914-6a02-4ace-87e5-8cf4f7a21956,4,609.534,611.279,space,1,0,23,23,0,1,A,space,0.431,,,,,,,,,,,
,,,,,R_93rGtFF6DR5PJVb,001,2025-08-11_14h26.37.782,continuous_performance_test,2024.2.4,Win32,60.0240096,64344914-6a02-4ace-87e5-8cf4f7a21956,4,611.285,613.029,,1,0,24,24,27,1,X,,,,,,,,,,,,,
,,,,,R_93rGtFF6DR5PJVb,001,2025-08-11_14h26.37.782,continuous_performance_test,2024.2.4,Win32,60.0240096,64344914-6a02-4ace-87e5-8cf4f7a21956,4,613.032,615.029,space,1,0,25,25,17,1,R,space,0.433,,,,,,,,,,,
,,,,,R_93rGtFF6DR5PJVb,001,2025-08-11_14h26.37.782,continuous_performance_test,2024.2.4,Win32,60.0240096,64344914-6a02-4ace-87e5-8cf4f7a21956,4,615.03,616.73,space,1,0,26,26,8,1,I,space,0.399,,,,,,,,,,,
,,,,,R_93rGtFF6DR5PJVb,001,2025-08-11_14h26.37.782,continuous_performance_test,2024.2.4,Win32,60.0240096,64344914-6a02-4ace-87e5-8cf4f7a21956,4,616.735,618.58,,1,0,27,27,26,1,X,,,,,,,,,,,,,
,,,,,R_93rGtFF6DR5PJVb,001,2025-08-11_14h26.37.782,continuous_performance_test,2024.2.4,Win32,60.0240096,64344914-6a02-4ace-87e5-8cf4f7a21956,4,618.585,620.33,space,1,0,28,28,20,1,U,space,0.432,,,,,,,,,,,
,,,,,R_93rGtFF6DR5PJVb,001,2025-08-11_14h26.37.782,continuous_performance_test,2024.2.4,Win32,60.0240096,64344914-6a02-4ace-87e5-8cf4f7a21956,4,620.334,622.28,space,1,0,29,29,6,1,G,space,0.615,,,,,,,,,,,
,,,,,R_93rGtFF6DR5PJVb,001,2025-08-11_14h26.37.782,continuous_performance_test,2024.2.4,Win32,60.0240096,64344914-6a02-4ace-87e5-8cf4f7a21956,4,,,,,,,,,,,,,,622.289,622.293,,,,622.293,631.713,space,9.385,
