Instructions.started,Instructions.stopped,key_resp.keys,key_resp.rt,key_resp.duration,participant,session,date,expName,psychopyVersion,OS,frameRate,realeye-tester-id,realeye-tester-quality_grade,Trial_noX.started,Trial_noX.stopped,response.keys,response.corr,response.rt,response.duration,trials_noX.thisRepN,trials_noX.thisTrialN,trials_noX.thisN,trials_noX.thisIndex,trials_noX.ran,letter,corrAns,BlockBreak.started,BlockBreak.stopped,key_instruct.keys,key_instruct.rt,key_instruct.duration,End_NoX.started,End_NoX.stopped,key_resp_end_noX.keys,key_resp_end_noX.rt,key_resp_end_noX.duration
0.0003,17.093,space,17.0699,,R_95QHNdZ2cS7FP3c,001,2025-08-04_18h58.14.520,continuous_performance_test,2024.2.4,MacIntel,59.88023952,af1bdd26-a6ec-44eb-9e2d-1c76b0140555,4,,,,,,,,,,,,,,,,,,,,,,,
,,,,,R_95QHNdZ2cS7FP3c,001,2025-08-04_18h58.14.520,continuous_performance_test,2024.2.4,MacIntel,59.88023952,af1bdd26-a6ec-44eb-9e2d-1c76b0140555,4,17.1222,19.1264,space,1,0.3951,,0,0,0,11,1,L,space,,,,,,,,,,
,,,,,R_95QHNdZ2cS7FP3c,001,2025-08-04_18h58.14.520,continuous_performance_test,2024.2.4,MacIntel,59.88023952,af1bdd26-a6ec-44eb-9e2d-1c76b0140555,4,19.1291,20.7257,space,1,0.295,,0,1,1,19,1,T,space,,,,,,,,,,
,,,,,R_95QHNdZ2cS7FP3c,001,2025-08-04_18h58.14.520,continuous_performance_test,2024.2.4,MacIntel,59.88023952,af1bdd26-a6ec-44eb-9e2d-1c76b0140555,4,20.7265,22.3763,space,0,0.3352,,0,2,2,25,1,X,,,,,,,,,,,
,,,,,R_95QHNdZ2cS7FP3c,001,2025-08-04_18h58.14.520,continuous_performance_test,2024.2.4,MacIntel,59.88023952,af1bdd26-a6ec-44eb-9e2d-1c76b0140555,4,22.3784,23.9253,space,1,0.3684,,0,3,3,13,1,N,space,,,,,,,,,,
,,,,,R_95QHNdZ2cS7FP3c,001,2025-08-04_18h58.14.520,continuous_performance_test,2024.2.4,MacIntel,59.88023952,af1bdd26-a6ec-44eb-9e2d-1c76b0140555,4,23.9275,25.5254,space,1,0.281,,0,4,4,0,1,A,space,,,,,,,,,,
,,,,,R_95QHNdZ2cS7FP3c,001,2025-08-04_18h58.14.520,continuous_performance_test,2024.2.4,MacIntel,59.88023952,af1bdd26-a6ec-44eb-9e2d-1c76b0140555,4,25.5271,27.1261,space,1,0.2717,,0,5,5,2,1,C,space,,,,,,,,,,
,,,,,R_95QHNdZ2cS7FP3c,001,2025-08-04_18h58.14.520,continuous_performance_test,2024.2.4,MacIntel,59.88023952,af1bdd26-a6ec-44eb-9e2d-1c76b0140555,4,27.1283,28.6765,space,1,0.3499,,0,6,6,6,1,G,space,,,,,,,,,,
,,,,,R_95QHNdZ2cS7FP3c,001,2025-08-04_18h58.14.520,continuous_performance_test,2024.2.4,MacIntel,59.88023952,af1bdd26-a6ec-44eb-9e2d-1c76b0140555,4,28.6786,30.3267,space,1,0.3063,,0,7,7,7,1,H,space,,,,,,,,,,
,,,,,R_95QHNdZ2cS7FP3c,001,2025-08-04_18h58.14.520,continuous_performance_test,2024.2.4,MacIntel,59.88023952,af1bdd26-a6ec-44eb-9e2d-1c76b0140555,4,30.329,32.2768,space,1,0.3534,,0,8,8,1,1,B,space,,,,,,,,,,
,,,,,R_95QHNdZ2cS7FP3c,001,2025-08-04_18h58.14.520,continuous_performance_test,2024.2.4,MacIntel,59.88023952,af1bdd26-a6ec-44eb-9e2d-1c76b0140555,4,32.2786,34.0268,space,1,0.3363,,0,9,9,8,1,I,space,,,,,,,,,,
,,,,,R_95QHNdZ2cS7FP3c,001,2025-08-04_18h58.14.520,continuous_performance_test,2024.2.4,MacIntel,59.88023952,af1bdd26-a6ec-44eb-9e2d-1c76b0140555,4,34.0289,35.777,space,1,0.2701,,0,10,10,21,1,V,space,,,,,,,,,,
,,,,,R_95QHNdZ2cS7FP3c,001,2025-08-04_18h58.14.520,continuous_performance_test,2024.2.4,MacIntel,59.88023952,af1bdd26-a6ec-44eb-9e2d-1c76b0140555,4,35.7784,37.3269,space,1,0.3372,,0,11,11,9,1,J,space,,,,,,,,,,
,,,,,R_95QHNdZ2cS7FP3c,001,2025-08-04_18h58.14.520,continuous_performance_test,2024.2.4,MacIntel,59.88023952,af1bdd26-a6ec-44eb-9e2d-1c76b0140555,4,37.3285,38.8773,space,0,0.32,,0,12,12,28,1,X,,,,,,,,,,,
,,,,,R_95QHNdZ2cS7FP3c,001,2025-08-04_18h58.14.520,continuous_performance_test,2024.2.4,MacIntel,59.88023952,af1bdd26-a6ec-44eb-9e2d-1c76b0140555,4,38.879,40.8773,,0,,,0,13,13,4,1,E,space,,,,,,,,,,
,,,,,R_95QHNdZ2cS7FP3c,001,2025-08-04_18h58.14.520,continuous_performance_test,2024.2.4,MacIntel,59.88023952,af1bdd26-a6ec-44eb-9e2d-1c76b0140555,4,40.8793,42.8775,space,0,0.2663,,0,14,14,27,1,X,,,,,,,,,,,
,,,,,R_95QHNdZ2cS7FP3c,001,2025-08-04_18h58.14.520,continuous_performance_test,2024.2.4,MacIntel,59.88023952,af1bdd26-a6ec-44eb-9e2d-1c76b0140555,4,42.8796,44.4771,space,1,0.5312,,0,15,15,23,1,Y,space,,,,,,,,,,
,,,,,R_95QHNdZ2cS7FP3c,001,2025-08-04_18h58.14.520,continuous_performance_test,2024.2.4,MacIntel,59.88023952,af1bdd26-a6ec-44eb-9e2d-1c76b0140555,4,44.4791,46.3277,space,1,0.2651,,0,16,16,22,1,W,space,,,,,,,,,,
,,,,,R_95QHNdZ2cS7FP3c,001,2025-08-04_18h58.14.520,continuous_performance_test,2024.2.4,MacIntel,59.88023952,af1bdd26-a6ec-44eb-9e2d-1c76b0140555,4,46.3296,48.3279,space,1,0.2403,,0,17,17,14,1,O,space,,,,,,,,,,
,,,,,R_95QHNdZ2cS7FP3c,001,2025-08-04_18h58.14.520,continuous_performance_test,2024.2.4,MacIntel,59.88023952,af1bdd26-a6ec-44eb-9e2d-1c76b0140555,4,48.3299,50.028,space,1,0.2723,,0,18,18,17,1,R,space,,,,,,,,,,
,,,,,R_95QHNdZ2cS7FP3c,001,2025-08-04_18h58.14.520,continuous_performance_test,2024.2.4,MacIntel,59.88023952,af1bdd26-a6ec-44eb-9e2d-1c76b0140555,4,50.03,51.8282,space,1,0.2363,,0,19,19,12,1,M,space,,,,,,,,,,
,,,,,R_95QHNdZ2cS7FP3c,001,2025-08-04_18h58.14.520,continuous_performance_test,2024.2.4,MacIntel,59.88023952,af1bdd26-a6ec-44eb-9e2d-1c76b0140555,4,51.8298,53.6276,space,0,0.2503,,0,20,20,29,1,X,,,,,,,,,,,
,,,,,R_95QHNdZ2cS7FP3c,001,2025-08-04_18h58.14.520,continuous_performance_test,2024.2.4,MacIntel,59.88023952,af1bdd26-a6ec-44eb-9e2d-1c76b0140555,4,53.6289,55.4773,,1,,,0,21,21,26,1,X,,,,,,,,,,,
,,,,,R_95QHNdZ2cS7FP3c,001,2025-08-04_18h58.14.520,continuous_performance_test,2024.2.4,MacIntel,59.88023952,af1bdd26-a6ec-44eb-9e2d-1c76b0140555,4,55.4793,57.0784,space,1,0.2949,,0,22,22,10,1,K,space,,,,,,,,,,
,,,,,R_95QHNdZ2cS7FP3c,001,2025-08-04_18h58.14.520,continuous_performance_test,2024.2.4,MacIntel,59.88023952,af1bdd26-a6ec-44eb-9e2d-1c76b0140555,4,57.0801,58.928,space,1,0.3176,,0,23,23,20,1,U,space,,,,,,,,,,
,,,,,R_95QHNdZ2cS7FP3c,001,2025-08-04_18h58.14.520,continuous_performance_test,2024.2.4,MacIntel,59.88023952,af1bdd26-a6ec-44eb-9e2d-1c76b0140555,4,58.9298,60.5774,space,1,0.454,,0,24,24,16,1,Q,space,,,,,,,,,,
,,,,,R_95QHNdZ2cS7FP3c,001,2025-08-04_18h58.14.520,continuous_performance_test,2024.2.4,MacIntel,59.88023952,af1bdd26-a6ec-44eb-9e2d-1c76b0140555,4,60.579,62.3285,space,1,0.2986,,0,25,25,18,1,S,space,,,,,,,,,,
,,,,,R_95QHNdZ2cS7FP3c,001,2025-08-04_18h58.14.520,continuous_performance_test,2024.2.4,MacIntel,59.88023952,af1bdd26-a6ec-44eb-9e2d-1c76b0140555,4,62.3296,63.9326,space,1,0.2706,,0,26,26,5,1,F,space,,,,,,,,,,
,,,,,R_95QHNdZ2cS7FP3c,001,2025-08-04_18h58.14.520,continuous_performance_test,2024.2.4,MacIntel,59.88023952,af1bdd26-a6ec-44eb-9e2d-1c76b0140555,4,63.934,65.8787,space,1,0.2685,,0,27,27,24,1,Z,space,,,,,,,,,,
,,,,,R_95QHNdZ2cS7FP3c,001,2025-08-04_18h58.14.520,continuous_performance_test,2024.2.4,MacIntel,59.88023952,af1bdd26-a6ec-44eb-9e2d-1c76b0140555,4,65.8797,67.5783,space,1,0.2733,,0,28,28,15,1,P,space,,,,,,,,,,
,,,,,R_95QHNdZ2cS7FP3c,001,2025-08-04_18h58.14.520,continuous_performance_test,2024.2.4,MacIntel,59.88023952,af1bdd26-a6ec-44eb-9e2d-1c76b0140555,4,67.5799,69.5284,space,1,0.2469,,0,29,29,3,1,D,space,,,,,,,,,,
,,,,,R_95QHNdZ2cS7FP3c,001,2025-08-04_18h58.14.520,continuous_performance_test,2024.2.4,MacIntel,59.88023952,af1bdd26-a6ec-44eb-9e2d-1c76b0140555,4,81.3711,83.213,space,1,0.3394,,0,0,0,2,1,C,space,69.5288,81.3628,space,11.815,,,,,,
,,,,,R_95QHNdZ2cS7FP3c,001,2025-08-04_18h58.14.520,continuous_performance_test,2024.2.4,MacIntel,59.88023952,af1bdd26-a6ec-44eb-9e2d-1c76b0140555,4,83.2147,85.2129,space,1,0.3205,,0,1,1,6,1,G,space,,,,,,,,,,
,,,,,R_95QHNdZ2cS7FP3c,001,2025-08-04_18h58.14.520,continuous_performance_test,2024.2.4,MacIntel,59.88023952,af1bdd26-a6ec-44eb-9e2d-1c76b0140555,4,85.2141,86.9128,space,1,0.2852,,0,2,2,4,1,E,space,,,,,,,,,,
,,,,,R_95QHNdZ2cS7FP3c,001,2025-08-04_18h58.14.520,continuous_performance_test,2024.2.4,MacIntel,59.88023952,af1bdd26-a6ec-44eb-9e2d-1c76b0140555,4,86.9145,88.8637,space,1,0.2366,,0,3,3,14,1,O,space,,,,,,,,,,
,,,,,R_95QHNdZ2cS7FP3c,001,2025-08-04_18h58.14.520,continuous_performance_test,2024.2.4,MacIntel,59.88023952,af1bdd26-a6ec-44eb-9e2d-1c76b0140555,4,88.8647,90.4639,space,1,0.2909,,0,4,4,16,1,Q,space,,,,,,,,,,
,,,,,R_95QHNdZ2cS7FP3c,001,2025-08-04_18h58.14.520,continuous_performance_test,2024.2.4,MacIntel,59.88023952,af1bdd26-a6ec-44eb-9e2d-1c76b0140555,4,90.4654,92.114,space,1,0.3062,,0,5,5,15,1,P,space,,,,,,,,,,
,,,,,R_95QHNdZ2cS7FP3c,001,2025-08-04_18h58.14.520,continuous_performance_test,2024.2.4,MacIntel,59.88023952,af1bdd26-a6ec-44eb-9e2d-1c76b0140555,4,92.1157,94.0139,,1,,,0,6,6,29,1,X,,,,,,,,,,,
,,,,,R_95QHNdZ2cS7FP3c,001,2025-08-04_18h58.14.520,continuous_performance_test,2024.2.4,MacIntel,59.88023952,af1bdd26-a6ec-44eb-9e2d-1c76b0140555,4,94.015,95.5634,space,0,0.2438,,0,7,7,25,1,X,,,,,,,,,,,
,,,,,R_95QHNdZ2cS7FP3c,001,2025-08-04_18h58.14.520,continuous_performance_test,2024.2.4,MacIntel,59.88023952,af1bdd26-a6ec-44eb-9e2d-1c76b0140555,4,95.5647,97.3639,space,1,0.2522,,0,8,8,23,1,Y,space,,,,,,,,,,
,,,,,R_95QHNdZ2cS7FP3c,001,2025-08-04_18h58.14.520,continuous_performance_test,2024.2.4,MacIntel,59.88023952,af1bdd26-a6ec-44eb-9e2d-1c76b0140555,4,97.3658,98.9638,space,1,0.334,,0,9,9,1,1,B,space,,,,,,,,,,
,,,,,R_95QHNdZ2cS7FP3c,001,2025-08-04_18h58.14.520,continuous_performance_test,2024.2.4,MacIntel,59.88023952,af1bdd26-a6ec-44eb-9e2d-1c76b0140555,4,98.9649,100.5136,space,1,0.2873,,0,10,10,12,1,M,space,,,,,,,,,,
,,,,,R_95QHNdZ2cS7FP3c,001,2025-08-04_18h58.14.520,continuous_performance_test,2024.2.4,MacIntel,59.88023952,af1bdd26-a6ec-44eb-9e2d-1c76b0140555,4,100.5146,102.0639,space,0,0.2351,,0,11,11,26,1,X,,,,,,,,,,,
,,,,,R_95QHNdZ2cS7FP3c,001,2025-08-04_18h58.14.520,continuous_performance_test,2024.2.4,MacIntel,59.88023952,af1bdd26-a6ec-44eb-9e2d-1c76b0140555,4,102.0655,103.8144,space,1,0.2208,,0,12,12,13,1,N,space,,,,,,,,,,
,,,,,R_95QHNdZ2cS7FP3c,001,2025-08-04_18h58.14.520,continuous_performance_test,2024.2.4,MacIntel,59.88023952,af1bdd26-a6ec-44eb-9e2d-1c76b0140555,4,103.8168,105.6141,space,1,0.2303,,0,13,13,20,1,U,space,,,,,,,,,,
,,,,,R_95QHNdZ2cS7FP3c,001,2025-08-04_18h58.14.520,continuous_performance_test,2024.2.4,MacIntel,59.88023952,af1bdd26-a6ec-44eb-9e2d-1c76b0140555,4,105.6164,107.2651,space,1,0.3014,,0,14,14,22,1,W,space,,,,,,,,,,
,,,,,R_95QHNdZ2cS7FP3c,001,2025-08-04_18h58.14.520,continuous_performance_test,2024.2.4,MacIntel,59.88023952,af1bdd26-a6ec-44eb-9e2d-1c76b0140555,4,107.2665,109.2154,space,1,0.9157,,0,15,15,17,1,R,space,,,,,,,,,,
,,,,,R_95QHNdZ2cS7FP3c,001,2025-08-04_18h58.14.520,continuous_performance_test,2024.2.4,MacIntel,59.88023952,af1bdd26-a6ec-44eb-9e2d-1c76b0140555,4,109.2168,110.8155,space,1,0.3889,,0,16,16,0,1,A,space,,,,,,,,,,
,,,,,R_95QHNdZ2cS7FP3c,001,2025-08-04_18h58.14.520,continuous_performance_test,2024.2.4,MacIntel,59.88023952,af1bdd26-a6ec-44eb-9e2d-1c76b0140555,4,110.817,112.8155,space,1,0.3156,,0,17,17,11,1,L,space,,,,,,,,,,
,,,,,R_95QHNdZ2cS7FP3c,001,2025-08-04_18h58.14.520,continuous_performance_test,2024.2.4,MacIntel,59.88023952,af1bdd26-a6ec-44eb-9e2d-1c76b0140555,4,112.8168,114.5157,space,1,0.3304,,0,18,18,9,1,J,space,,,,,,,,,,
,,,,,R_95QHNdZ2cS7FP3c,001,2025-08-04_18h58.14.520,continuous_performance_test,2024.2.4,MacIntel,59.88023952,af1bdd26-a6ec-44eb-9e2d-1c76b0140555,4,114.5174,116.2656,space,0,0.2973,,0,19,19,27,1,X,,,,,,,,,,,
,,,,,R_95QHNdZ2cS7FP3c,001,2025-08-04_18h58.14.520,continuous_performance_test,2024.2.4,MacIntel,59.88023952,af1bdd26-a6ec-44eb-9e2d-1c76b0140555,4,116.2668,117.8148,space,1,0.3822,,0,20,20,10,1,K,space,,,,,,,,,,
,,,,,R_95QHNdZ2cS7FP3c,001,2025-08-04_18h58.14.520,continuous_performance_test,2024.2.4,MacIntel,59.88023952,af1bdd26-a6ec-44eb-9e2d-1c76b0140555,4,117.8159,119.5161,space,1,0.249,,0,21,21,24,1,Z,space,,,,,,,,,,
,,,,,R_95QHNdZ2cS7FP3c,001,2025-08-04_18h58.14.520,continuous_performance_test,2024.2.4,MacIntel,59.88023952,af1bdd26-a6ec-44eb-9e2d-1c76b0140555,4,119.5172,121.2661,space,1,0.3244,,0,22,22,5,1,F,space,,,,,,,,,,
,,,,,R_95QHNdZ2cS7FP3c,001,2025-08-04_18h58.14.520,continuous_performance_test,2024.2.4,MacIntel,59.88023952,af1bdd26-a6ec-44eb-9e2d-1c76b0140555,4,121.2677,122.8152,,1,,,0,23,23,28,1,X,,,,,,,,,,,
,,,,,R_95QHNdZ2cS7FP3c,001,2025-08-04_18h58.14.520,continuous_performance_test,2024.2.4,MacIntel,59.88023952,af1bdd26-a6ec-44eb-9e2d-1c76b0140555,4,122.8167,124.5163,space,1,0.2373,,0,24,24,21,1,V,space,,,,,,,,,,
,,,,,R_95QHNdZ2cS7FP3c,001,2025-08-04_18h58.14.520,continuous_performance_test,2024.2.4,MacIntel,59.88023952,af1bdd26-a6ec-44eb-9e2d-1c76b0140555,4,124.5181,126.4667,space,1,0.2564,,0,25,25,8,1,I,space,,,,,,,,,,
,,,,,R_95QHNdZ2cS7FP3c,001,2025-08-04_18h58.14.520,continuous_performance_test,2024.2.4,MacIntel,59.88023952,af1bdd26-a6ec-44eb-9e2d-1c76b0140555,4,126.4683,128.1661,space,1,0.3131,,0,26,26,19,1,T,space,,,,,,,,,,
,,,,,R_95QHNdZ2cS7FP3c,001,2025-08-04_18h58.14.520,continuous_performance_test,2024.2.4,MacIntel,59.88023952,af1bdd26-a6ec-44eb-9e2d-1c76b0140555,4,128.1675,130.1669,space,1,0.2314,,0,27,27,7,1,H,space,,,,,,,,,,
,,,,,R_95QHNdZ2cS7FP3c,001,2025-08-04_18h58.14.520,continuous_performance_test,2024.2.4,MacIntel,59.88023952,af1bdd26-a6ec-44eb-9e2d-1c76b0140555,4,130.1684,132.1171,space,1,0.2569,,0,28,28,3,1,D,space,,,,,,,,,,
,,,,,R_95QHNdZ2cS7FP3c,001,2025-08-04_18h58.14.520,continuous_performance_test,2024.2.4,MacIntel,59.88023952,af1bdd26-a6ec-44eb-9e2d-1c76b0140555,4,132.1189,134.0161,space,1,0.3175,,0,29,29,18,1,S,space,,,,,,,,,,
,,,,,R_95QHNdZ2cS7FP3c,001,2025-08-04_18h58.14.520,continuous_performance_test,2024.2.4,MacIntel,59.88023952,af1bdd26-a6ec-44eb-9e2d-1c76b0140555,4,141.5405,143.1344,space,1,0.4387,,0,0,0,21,1,V,space,134.0177,141.534,space,7.5007,,,,,,
,,,,,R_95QHNdZ2cS7FP3c,001,2025-08-04_18h58.14.520,continuous_performance_test,2024.2.4,MacIntel,59.88023952,af1bdd26-a6ec-44eb-9e2d-1c76b0140555,4,143.1362,144.9346,space,0,0.265,,0,1,1,29,1,X,,,,,,,,,,,
,,,,,R_95QHNdZ2cS7FP3c,001,2025-08-04_18h58.14.520,continuous_performance_test,2024.2.4,MacIntel,59.88023952,af1bdd26-a6ec-44eb-9e2d-1c76b0140555,4,144.9356,146.8336,space,0,0.2582,,0,2,2,26,1,X,,,,,,,,,,,
,,,,,R_95QHNdZ2cS7FP3c,001,2025-08-04_18h58.14.520,continuous_performance_test,2024.2.4,MacIntel,59.88023952,af1bdd26-a6ec-44eb-9e2d-1c76b0140555,4,146.8351,148.5842,space,1,0.4494,,0,3,3,20,1,U,space,,,,,,,,,,
,,,,,R_95QHNdZ2cS7FP3c,001,2025-08-04_18h58.14.520,continuous_performance_test,2024.2.4,MacIntel,59.88023952,af1bdd26-a6ec-44eb-9e2d-1c76b0140555,4,148.5874,150.4349,space,1,0.3014,,0,4,4,8,1,I,space,,,,,,,,,,
,,,,,R_95QHNdZ2cS7FP3c,001,2025-08-04_18h58.14.520,continuous_performance_test,2024.2.4,MacIntel,59.88023952,af1bdd26-a6ec-44eb-9e2d-1c76b0140555,4,150.4365,152.0841,,0,,,0,5,5,24,1,Z,space,,,,,,,,,,
,,,,,R_95QHNdZ2cS7FP3c,001,2025-08-04_18h58.14.520,continuous_performance_test,2024.2.4,MacIntel,59.88023952,af1bdd26-a6ec-44eb-9e2d-1c76b0140555,4,152.0852,153.9839,space,1,0.2846,,0,6,6,12,1,M,space,,,,,,,,,,
,,,,,R_95QHNdZ2cS7FP3c,001,2025-08-04_18h58.14.520,continuous_performance_test,2024.2.4,MacIntel,59.88023952,af1bdd26-a6ec-44eb-9e2d-1c76b0140555,4,153.985,155.9354,space,1,0.2738,,0,7,7,17,1,R,space,,,,,,,,,,
,,,,,R_95QHNdZ2cS7FP3c,001,2025-08-04_18h58.14.520,continuous_performance_test,2024.2.4,MacIntel,59.88023952,af1bdd26-a6ec-44eb-9e2d-1c76b0140555,4,155.9367,157.785,space,1,0.254,,0,8,8,23,1,Y,space,,,,,,,,,,
,,,,,R_95QHNdZ2cS7FP3c,001,2025-08-04_18h58.14.520,continuous_performance_test,2024.2.4,MacIntel,59.88023952,af1bdd26-a6ec-44eb-9e2d-1c76b0140555,4,157.7864,159.6856,space,1,0.2706,,0,9,9,14,1,O,space,,,,,,,,,,
,,,,,R_95QHNdZ2cS7FP3c,001,2025-08-04_18h58.14.520,continuous_performance_test,2024.2.4,MacIntel,59.88023952,af1bdd26-a6ec-44eb-9e2d-1c76b0140555,4,159.6869,161.3355,space,1,0.4383,,0,10,10,22,1,W,space,,,,,,,,,,
,,,,,R_95QHNdZ2cS7FP3c,001,2025-08-04_18h58.14.520,continuous_performance_test,2024.2.4,MacIntel,59.88023952,af1bdd26-a6ec-44eb-9e2d-1c76b0140555,4,161.337,162.9856,space,1,0.2703,,0,11,11,0,1,A,space,,,,,,,,,,
,,,,,R_95QHNdZ2cS7FP3c,001,2025-08-04_18h58.14.520,continuous_performance_test,2024.2.4,MacIntel,59.88023952,af1bdd26-a6ec-44eb-9e2d-1c76b0140555,4,162.987,164.7855,space,1,0.2735,,0,12,12,4,1,E,space,,,,,,,,,,
,,,,,R_95QHNdZ2cS7FP3c,001,2025-08-04_18h58.14.520,continuous_performance_test,2024.2.4,MacIntel,59.88023952,af1bdd26-a6ec-44eb-9e2d-1c76b0140555,4,164.7868,166.4355,space,0,0.2517,,0,13,13,27,1,X,,,,,,,,,,,
,,,,,R_95QHNdZ2cS7FP3c,001,2025-08-04_18h58.14.520,continuous_performance_test,2024.2.4,MacIntel,59.88023952,af1bdd26-a6ec-44eb-9e2d-1c76b0140555,4,166.4371,168.3856,space,1,0.3562,,0,14,14,19,1,T,space,,,,,,,,,,
,,,,,R_95QHNdZ2cS7FP3c,001,2025-08-04_18h58.14.520,continuous_performance_test,2024.2.4,MacIntel,59.88023952,af1bdd26-a6ec-44eb-9e2d-1c76b0140555,4,168.3876,170.1855,space,1,0.2396,,0,15,15,18,1,S,space,,,,,,,,,,
,,,,,R_95QHNdZ2cS7FP3c,001,2025-08-04_18h58.14.520,continuous_performance_test,2024.2.4,MacIntel,59.88023952,af1bdd26-a6ec-44eb-9e2d-1c76b0140555,4,170.187,172.1355,space,0,0.2723,,0,16,16,28,1,X,,,,,,,,,,,
,,,,,R_95QHNdZ2cS7FP3c,001,2025-08-04_18h58.14.520,continuous_performance_test,2024.2.4,MacIntel,59.88023952,af1bdd26-a6ec-44eb-9e2d-1c76b0140555,4,172.137,173.7355,space,1,0.3872,,0,17,17,1,1,B,space,,,,,,,,,,
,,,,,R_95QHNdZ2cS7FP3c,001,2025-08-04_18h58.14.520,continuous_performance_test,2024.2.4,MacIntel,59.88023952,af1bdd26-a6ec-44eb-9e2d-1c76b0140555,4,173.737,175.6357,space,1,0.3839,,0,18,18,6,1,G,space,,,,,,,,,,
,,,,,R_95QHNdZ2cS7FP3c,001,2025-08-04_18h58.14.520,continuous_performance_test,2024.2.4,MacIntel,59.88023952,af1bdd26-a6ec-44eb-9e2d-1c76b0140555,4,175.6368,177.387,space,1,0.3354,,0,19,19,11,1,L,space,,,,,,,,,,
,,,,,R_95QHNdZ2cS7FP3c,001,2025-08-04_18h58.14.520,continuous_performance_test,2024.2.4,MacIntel,59.88023952,af1bdd26-a6ec-44eb-9e2d-1c76b0140555,4,177.3887,178.9369,space,1,0.3043,,0,20,20,3,1,D,space,,,,,,,,,,
,,,,,R_95QHNdZ2cS7FP3c,001,2025-08-04_18h58.14.520,continuous_performance_test,2024.2.4,MacIntel,59.88023952,af1bdd26-a6ec-44eb-9e2d-1c76b0140555,4,178.9384,180.7871,space,1,0.3809,,0,21,21,2,1,C,space,,,,,,,,,,
,,,,,R_95QHNdZ2cS7FP3c,001,2025-08-04_18h58.14.520,continuous_performance_test,2024.2.4,MacIntel,59.88023952,af1bdd26-a6ec-44eb-9e2d-1c76b0140555,4,180.7885,182.7371,space,1,0.2395,,0,22,22,7,1,H,space,,,,,,,,,,
,,,,,R_95QHNdZ2cS7FP3c,001,2025-08-04_18h58.14.520,continuous_performance_test,2024.2.4,MacIntel,59.88023952,af1bdd26-a6ec-44eb-9e2d-1c76b0140555,4,182.7394,184.7372,space,1,0.4044,,0,23,23,16,1,Q,space,,,,,,,,,,
,,,,,R_95QHNdZ2cS7FP3c,001,2025-08-04_18h58.14.520,continuous_performance_test,2024.2.4,MacIntel,59.88023952,af1bdd26-a6ec-44eb-9e2d-1c76b0140555,4,184.7386,186.2865,space,1,0.537,,0,24,24,5,1,F,space,,,,,,,,,,
,,,,,R_95QHNdZ2cS7FP3c,001,2025-08-04_18h58.14.520,continuous_performance_test,2024.2.4,MacIntel,59.88023952,af1bdd26-a6ec-44eb-9e2d-1c76b0140555,4,186.2877,188.2872,space,0,0.3227,,0,25,25,25,1,X,,,,,,,,,,,
,,,,,R_95QHNdZ2cS7FP3c,001,2025-08-04_18h58.14.520,continuous_performance_test,2024.2.4,MacIntel,59.88023952,af1bdd26-a6ec-44eb-9e2d-1c76b0140555,4,188.2885,189.9876,space,1,0.7537,,0,26,26,15,1,P,space,,,,,,,,,,
,,,,,R_95QHNdZ2cS7FP3c,001,2025-08-04_18h58.14.520,continuous_performance_test,2024.2.4,MacIntel,59.88023952,af1bdd26-a6ec-44eb-9e2d-1c76b0140555,4,189.989,191.8878,space,1,0.5557,,0,27,27,13,1,N,space,,,,,,,,,,
,,,,,R_95QHNdZ2cS7FP3c,001,2025-08-04_18h58.14.520,continuous_performance_test,2024.2.4,MacIntel,59.88023952,af1bdd26-a6ec-44eb-9e2d-1c76b0140555,4,191.8891,193.488,space,1,0.402,,0,28,28,9,1,J,space,,,,,,,,,,
,,,,,R_95QHNdZ2cS7FP3c,001,2025-08-04_18h58.14.520,continuous_performance_test,2024.2.4,MacIntel,59.88023952,af1bdd26-a6ec-44eb-9e2d-1c76b0140555,4,193.4893,195.3381,space,1,0.3187,,0,29,29,10,1,K,space,,,,,,,,,,
,,,,,R_95QHNdZ2cS7FP3c,001,2025-08-04_18h58.14.520,continuous_performance_test,2024.2.4,MacIntel,59.88023952,af1bdd26-a6ec-44eb-9e2d-1c76b0140555,4,208.7636,210.7551,space,1,0.5902,,0,0,0,3,1,D,space,195.3395,208.7558,space,13.3935,,,,,,
,,,,,R_95QHNdZ2cS7FP3c,001,2025-08-04_18h58.14.520,continuous_performance_test,2024.2.4,MacIntel,59.88023952,af1bdd26-a6ec-44eb-9e2d-1c76b0140555,4,210.7567,212.6559,space,0,0.2696,,0,1,1,26,1,X,,,,,,,,,,,
,,,,,R_95QHNdZ2cS7FP3c,001,2025-08-04_18h58.14.520,continuous_performance_test,2024.2.4,MacIntel,59.88023952,af1bdd26-a6ec-44eb-9e2d-1c76b0140555,4,212.6573,214.505,space,1,0.4061,,0,2,2,21,1,V,space,,,,,,,,,,
,,,,,R_95QHNdZ2cS7FP3c,001,2025-08-04_18h58.14.520,continuous_performance_test,2024.2.4,MacIntel,59.88023952,af1bdd26-a6ec-44eb-9e2d-1c76b0140555,4,214.5063,216.3557,space,1,0.3354,,0,3,3,23,1,Y,space,,,,,,,,,,
,,,,,R_95QHNdZ2cS7FP3c,001,2025-08-04_18h58.14.520,continuous_performance_test,2024.2.4,MacIntel,59.88023952,af1bdd26-a6ec-44eb-9e2d-1c76b0140555,4,216.357,218.256,space,1,0.3343,,0,4,4,4,1,E,space,,,,,,,,,,
,,,,,R_95QHNdZ2cS7FP3c,001,2025-08-04_18h58.14.520,continuous_performance_test,2024.2.4,MacIntel,59.88023952,af1bdd26-a6ec-44eb-9e2d-1c76b0140555,4,218.2572,219.906,space,1,0.3522,,0,5,5,19,1,T,space,,,,,,,,,,
,,,,,R_95QHNdZ2cS7FP3c,001,2025-08-04_18h58.14.520,continuous_performance_test,2024.2.4,MacIntel,59.88023952,af1bdd26-a6ec-44eb-9e2d-1c76b0140555,4,219.9074,221.606,space,0,0.2508,,0,6,6,27,1,X,,,,,,,,,,,
,,,,,R_95QHNdZ2cS7FP3c,001,2025-08-04_18h58.14.520,continuous_performance_test,2024.2.4,MacIntel,59.88023952,af1bdd26-a6ec-44eb-9e2d-1c76b0140555,4,221.6073,223.556,space,1,0.2627,,0,7,7,1,1,B,space,,,,,,,,,,
,,,,,R_95QHNdZ2cS7FP3c,001,2025-08-04_18h58.14.520,continuous_performance_test,2024.2.4,MacIntel,59.88023952,af1bdd26-a6ec-44eb-9e2d-1c76b0140555,4,223.5575,225.1562,space,1,0.5069,,0,8,8,14,1,O,space,,,,,,,,,,
,,,,,R_95QHNdZ2cS7FP3c,001,2025-08-04_18h58.14.520,continuous_performance_test,2024.2.4,MacIntel,59.88023952,af1bdd26-a6ec-44eb-9e2d-1c76b0140555,4,225.1575,227.0063,space,1,0.4031,,0,9,9,8,1,I,space,,,,,,,,,,
,,,,,R_95QHNdZ2cS7FP3c,001,2025-08-04_18h58.14.520,continuous_performance_test,2024.2.4,MacIntel,59.88023952,af1bdd26-a6ec-44eb-9e2d-1c76b0140555,4,227.0076,228.7562,space,1,0.3458,,0,10,10,24,1,Z,space,,,,,,,,,,
,,,,,R_95QHNdZ2cS7FP3c,001,2025-08-04_18h58.14.520,continuous_performance_test,2024.2.4,MacIntel,59.88023952,af1bdd26-a6ec-44eb-9e2d-1c76b0140555,4,228.7576,230.6572,space,1,0.3248,,0,11,11,7,1,H,space,,,,,,,,,,
,,,,,R_95QHNdZ2cS7FP3c,001,2025-08-04_18h58.14.520,continuous_performance_test,2024.2.4,MacIntel,59.88023952,af1bdd26-a6ec-44eb-9e2d-1c76b0140555,4,230.6591,232.6062,space,1,0.3646,,0,12,12,11,1,L,space,,,,,,,,,,
,,,,,R_95QHNdZ2cS7FP3c,001,2025-08-04_18h58.14.520,continuous_performance_test,2024.2.4,MacIntel,59.88023952,af1bdd26-a6ec-44eb-9e2d-1c76b0140555,4,232.6088,234.5562,space,1,0.2763,,0,13,13,6,1,G,space,,,,,,,,,,
,,,,,R_95QHNdZ2cS7FP3c,001,2025-08-04_18h58.14.520,continuous_performance_test,2024.2.4,MacIntel,59.88023952,af1bdd26-a6ec-44eb-9e2d-1c76b0140555,4,234.5573,236.4072,space,1,0.357,,0,14,14,0,1,A,space,,,,,,,,,,
,,,,,R_95QHNdZ2cS7FP3c,001,2025-08-04_18h58.14.520,continuous_performance_test,2024.2.4,MacIntel,59.88023952,af1bdd26-a6ec-44eb-9e2d-1c76b0140555,4,236.4083,238.2571,space,1,0.3845,,0,15,15,22,1,W,space,,,,,,,,,,
,,,,,R_95QHNdZ2cS7FP3c,001,2025-08-04_18h58.14.520,continuous_performance_test,2024.2.4,MacIntel,59.88023952,af1bdd26-a6ec-44eb-9e2d-1c76b0140555,4,238.2579,239.9067,space,1,0.3539,,0,16,16,17,1,R,space,,,,,,,,,,
,,,,,R_95QHNdZ2cS7FP3c,001,2025-08-04_18h58.14.520,continuous_performance_test,2024.2.4,MacIntel,59.88023952,af1bdd26-a6ec-44eb-9e2d-1c76b0140555,4,239.9076,241.5067,,1,,,0,17,17,28,1,X,,,,,,,,,,,
,,,,,R_95QHNdZ2cS7FP3c,001,2025-08-04_18h58.14.520,continuous_performance_test,2024.2.4,MacIntel,59.88023952,af1bdd26-a6ec-44eb-9e2d-1c76b0140555,4,241.508,243.4577,space,1,0.3156,,0,18,18,16,1,Q,space,,,,,,,,,,
,,,,,R_95QHNdZ2cS7FP3c,001,2025-08-04_18h58.14.520,continuous_performance_test,2024.2.4,MacIntel,59.88023952,af1bdd26-a6ec-44eb-9e2d-1c76b0140555,4,243.4591,245.058,space,0,0.3,,0,19,19,29,1,X,,,,,,,,,,,
,,,,,R_95QHNdZ2cS7FP3c,001,2025-08-04_18h58.14.520,continuous_performance_test,2024.2.4,MacIntel,59.88023952,af1bdd26-a6ec-44eb-9e2d-1c76b0140555,4,245.0595,246.9082,space,1,0.3705,,0,20,20,12,1,M,space,,,,,,,,,,
,,,,,R_95QHNdZ2cS7FP3c,001,2025-08-04_18h58.14.520,continuous_performance_test,2024.2.4,MacIntel,59.88023952,af1bdd26-a6ec-44eb-9e2d-1c76b0140555,4,246.9095,248.508,space,1,0.2971,,0,21,21,20,1,U,space,,,,,,,,,,
,,,,,R_95QHNdZ2cS7FP3c,001,2025-08-04_18h58.14.520,continuous_performance_test,2024.2.4,MacIntel,59.88023952,af1bdd26-a6ec-44eb-9e2d-1c76b0140555,4,248.5093,250.5075,space,1,0.2808,,0,22,22,9,1,J,space,,,,,,,,,,
,,,,,R_95QHNdZ2cS7FP3c,001,2025-08-04_18h58.14.520,continuous_performance_test,2024.2.4,MacIntel,59.88023952,af1bdd26-a6ec-44eb-9e2d-1c76b0140555,4,250.5089,252.0578,space,1,0.3628,,0,23,23,13,1,N,space,,,,,,,,,,
,,,,,R_95QHNdZ2cS7FP3c,001,2025-08-04_18h58.14.520,continuous_performance_test,2024.2.4,MacIntel,59.88023952,af1bdd26-a6ec-44eb-9e2d-1c76b0140555,4,252.0587,253.7587,space,1,0.3131,,0,24,24,5,1,F,space,,,,,,,,,,
,,,,,R_95QHNdZ2cS7FP3c,001,2025-08-04_18h58.14.520,continuous_performance_test,2024.2.4,MacIntel,59.88023952,af1bdd26-a6ec-44eb-9e2d-1c76b0140555,4,253.7604,255.4589,space,1,0.2909,,0,25,25,18,1,S,space,,,,,,,,,,
,,,,,R_95QHNdZ2cS7FP3c,001,2025-08-04_18h58.14.520,continuous_performance_test,2024.2.4,MacIntel,59.88023952,af1bdd26-a6ec-44eb-9e2d-1c76b0140555,4,255.4601,257.409,space,1,0.2707,,0,26,26,15,1,P,space,,,,,,,,,,
,,,,,R_95QHNdZ2cS7FP3c,001,2025-08-04_18h58.14.520,continuous_performance_test,2024.2.4,MacIntel,59.88023952,af1bdd26-a6ec-44eb-9e2d-1c76b0140555,4,257.4102,259.308,space,1,0.2694,,0,27,27,10,1,K,space,,,,,,,,,,
,,,,,R_95QHNdZ2cS7FP3c,001,2025-08-04_18h58.14.520,continuous_performance_test,2024.2.4,MacIntel,59.88023952,af1bdd26-a6ec-44eb-9e2d-1c76b0140555,4,259.3093,261.1093,space,1,0.2786,,0,28,28,2,1,C,space,,,,,,,,,,
,,,,,R_95QHNdZ2cS7FP3c,001,2025-08-04_18h58.14.520,continuous_performance_test,2024.2.4,MacIntel,59.88023952,af1bdd26-a6ec-44eb-9e2d-1c76b0140555,4,261.1106,262.8086,space,0,0.3313,,0,29,29,25,1,X,,,,,,,,,,,
,,,,,R_95QHNdZ2cS7FP3c,001,2025-08-04_18h58.14.520,continuous_performance_test,2024.2.4,MacIntel,59.88023952,af1bdd26-a6ec-44eb-9e2d-1c76b0140555,4,277.8212,279.4602,space,1,0.6206,,0,0,0,2,1,C,space,262.81,277.8105,,,,,,,,
,,,,,R_95QHNdZ2cS7FP3c,001,2025-08-04_18h58.14.520,continuous_performance_test,2024.2.4,MacIntel,59.88023952,af1bdd26-a6ec-44eb-9e2d-1c76b0140555,4,279.4616,281.4597,space,1,0.3696,,0,1,1,19,1,T,space,,,,,,,,,,
,,,,,R_95QHNdZ2cS7FP3c,001,2025-08-04_18h58.14.520,continuous_performance_test,2024.2.4,MacIntel,59.88023952,af1bdd26-a6ec-44eb-9e2d-1c76b0140555,4,281.4611,283.1607,space,1,0.2656,,0,2,2,24,1,Z,space,,,,,,,,,,
,,,,,R_95QHNdZ2cS7FP3c,001,2025-08-04_18h58.14.520,continuous_performance_test,2024.2.4,MacIntel,59.88023952,af1bdd26-a6ec-44eb-9e2d-1c76b0140555,4,283.1621,284.7603,space,1,0.3537,,0,3,3,10,1,K,space,,,,,,,,,,
,,,,,R_95QHNdZ2cS7FP3c,001,2025-08-04_18h58.14.520,continuous_performance_test,2024.2.4,MacIntel,59.88023952,af1bdd26-a6ec-44eb-9e2d-1c76b0140555,4,284.7615,286.661,space,1,0.2885,,0,4,4,5,1,F,space,,,,,,,,,,
,,,,,R_95QHNdZ2cS7FP3c,001,2025-08-04_18h58.14.520,continuous_performance_test,2024.2.4,MacIntel,59.88023952,af1bdd26-a6ec-44eb-9e2d-1c76b0140555,4,286.6624,288.2606,space,1,0.462,,0,5,5,6,1,G,space,,,,,,,,,,
,,,,,R_95QHNdZ2cS7FP3c,001,2025-08-04_18h58.14.520,continuous_performance_test,2024.2.4,MacIntel,59.88023952,af1bdd26-a6ec-44eb-9e2d-1c76b0140555,4,288.2628,290.1603,space,1,0.3162,,0,6,6,8,1,I,space,,,,,,,,,,
,,,,,R_95QHNdZ2cS7FP3c,001,2025-08-04_18h58.14.520,continuous_performance_test,2024.2.4,MacIntel,59.88023952,af1bdd26-a6ec-44eb-9e2d-1c76b0140555,4,290.1616,291.8613,space,0,0.3687,,0,7,7,29,1,X,,,,,,,,,,,
,,,,,R_95QHNdZ2cS7FP3c,001,2025-08-04_18h58.14.520,continuous_performance_test,2024.2.4,MacIntel,59.88023952,af1bdd26-a6ec-44eb-9e2d-1c76b0140555,4,291.8626,293.6616,space,1,0.2934,,0,8,8,13,1,N,space,,,,,,,,,,
,,,,,R_95QHNdZ2cS7FP3c,001,2025-08-04_18h58.14.520,continuous_performance_test,2024.2.4,MacIntel,59.88023952,af1bdd26-a6ec-44eb-9e2d-1c76b0140555,4,293.6643,295.3617,space,1,0.3876,,0,9,9,1,1,B,space,,,,,,,,,,
,,,,,R_95QHNdZ2cS7FP3c,001,2025-08-04_18h58.14.520,continuous_performance_test,2024.2.4,MacIntel,59.88023952,af1bdd26-a6ec-44eb-9e2d-1c76b0140555,4,295.363,297.2118,space,1,0.232,,0,10,10,9,1,J,space,,,,,,,,,,
,,,,,R_95QHNdZ2cS7FP3c,001,2025-08-04_18h58.14.520,continuous_performance_test,2024.2.4,MacIntel,59.88023952,af1bdd26-a6ec-44eb-9e2d-1c76b0140555,4,297.2132,299.0609,space,1,0.218,,0,11,11,17,1,R,space,,,,,,,,,,
,,,,,R_95QHNdZ2cS7FP3c,001,2025-08-04_18h58.14.520,continuous_performance_test,2024.2.4,MacIntel,59.88023952,af1bdd26-a6ec-44eb-9e2d-1c76b0140555,4,299.0624,300.7617,space,1,0.2696,,0,12,12,14,1,O,space,,,,,,,,,,
,,,,,R_95QHNdZ2cS7FP3c,001,2025-08-04_18h58.14.520,continuous_performance_test,2024.2.4,MacIntel,59.88023952,af1bdd26-a6ec-44eb-9e2d-1c76b0140555,4,300.7634,302.462,space,0,0.219,,0,13,13,27,1,X,,,,,,,,,,,
,,,,,R_95QHNdZ2cS7FP3c,001,2025-08-04_18h58.14.520,continuous_performance_test,2024.2.4,MacIntel,59.88023952,af1bdd26-a6ec-44eb-9e2d-1c76b0140555,4,302.4636,304.0617,space,1,0.2901,,0,14,14,16,1,Q,space,,,,,,,,,,
,,,,,R_95QHNdZ2cS7FP3c,001,2025-08-04_18h58.14.520,continuous_performance_test,2024.2.4,MacIntel,59.88023952,af1bdd26-a6ec-44eb-9e2d-1c76b0140555,4,304.063,305.9124,space,0,0.2983,,0,15,15,25,1,X,,,,,,,,,,,
,,,,,R_95QHNdZ2cS7FP3c,001,2025-08-04_18h58.14.520,continuous_performance_test,2024.2.4,MacIntel,59.88023952,af1bdd26-a6ec-44eb-9e2d-1c76b0140555,4,305.9137,307.8625,space,1,0.5688,,0,16,16,22,1,W,space,,,,,,,,,,
,,,,,R_95QHNdZ2cS7FP3c,001,2025-08-04_18h58.14.520,continuous_performance_test,2024.2.4,MacIntel,59.88023952,af1bdd26-a6ec-44eb-9e2d-1c76b0140555,4,307.864,309.6626,space,1,0.3433,,0,17,17,15,1,P,space,,,,,,,,,,
,,,,,R_95QHNdZ2cS7FP3c,001,2025-08-04_18h58.14.520,continuous_performance_test,2024.2.4,MacIntel,59.88023952,af1bdd26-a6ec-44eb-9e2d-1c76b0140555,4,309.6639,311.2628,space,1,0.3335,,0,18,18,18,1,S,space,,,,,,,,,,
,,,,,R_95QHNdZ2cS7FP3c,001,2025-08-04_18h58.14.520,continuous_performance_test,2024.2.4,MacIntel,59.88023952,af1bdd26-a6ec-44eb-9e2d-1c76b0140555,4,311.264,313.2121,space,1,0.3038,,0,19,19,20,1,U,space,,,,,,,,,,
,,,,,R_95QHNdZ2cS7FP3c,001,2025-08-04_18h58.14.520,continuous_performance_test,2024.2.4,MacIntel,59.88023952,af1bdd26-a6ec-44eb-9e2d-1c76b0140555,4,313.2132,315.113,space,1,0.3883,,0,20,20,11,1,L,space,,,,,,,,,,
,,,,,R_95QHNdZ2cS7FP3c,001,2025-08-04_18h58.14.520,continuous_performance_test,2024.2.4,MacIntel,59.88023952,af1bdd26-a6ec-44eb-9e2d-1c76b0140555,4,315.1143,316.8619,space,1,0.4374,,0,21,21,23,1,Y,space,,,,,,,,,,
,,,,,R_95QHNdZ2cS7FP3c,001,2025-08-04_18h58.14.520,continuous_performance_test,2024.2.4,MacIntel,59.88023952,af1bdd26-a6ec-44eb-9e2d-1c76b0140555,4,316.8633,318.7636,space,1,0.395,,0,22,22,0,1,A,space,,,,,,,,,,
,,,,,R_95QHNdZ2cS7FP3c,001,2025-08-04_18h58.14.520,continuous_performance_test,2024.2.4,MacIntel,59.88023952,af1bdd26-a6ec-44eb-9e2d-1c76b0140555,4,318.7662,320.3621,,1,,,0,23,23,28,1,X,,,,,,,,,,,
,,,,,R_95QHNdZ2cS7FP3c,001,2025-08-04_18h58.14.520,continuous_performance_test,2024.2.4,MacIntel,59.88023952,af1bdd26-a6ec-44eb-9e2d-1c76b0140555,4,320.3632,322.2632,space,0,0.2915,,0,24,24,26,1,X,,,,,,,,,,,
,,,,,R_95QHNdZ2cS7FP3c,001,2025-08-04_18h58.14.520,continuous_performance_test,2024.2.4,MacIntel,59.88023952,af1bdd26-a6ec-44eb-9e2d-1c76b0140555,4,322.2645,323.9635,space,1,0.3021,,0,25,25,7,1,H,space,,,,,,,,,,
,,,,,R_95QHNdZ2cS7FP3c,001,2025-08-04_18h58.14.520,continuous_performance_test,2024.2.4,MacIntel,59.88023952,af1bdd26-a6ec-44eb-9e2d-1c76b0140555,4,323.9649,325.7627,space,1,0.2628,,0,26,26,4,1,E,space,,,,,,,,,,
,,,,,R_95QHNdZ2cS7FP3c,001,2025-08-04_18h58.14.520,continuous_performance_test,2024.2.4,MacIntel,59.88023952,af1bdd26-a6ec-44eb-9e2d-1c76b0140555,4,325.7646,327.664,space,1,0.3014,,0,27,27,12,1,M,space,,,,,,,,,,
,,,,,R_95QHNdZ2cS7FP3c,001,2025-08-04_18h58.14.520,continuous_performance_test,2024.2.4,MacIntel,59.88023952,af1bdd26-a6ec-44eb-9e2d-1c76b0140555,4,327.6652,329.2628,space,1,0.27,,0,28,28,21,1,V,space,,,,,,,,,,
,,,,,R_95QHNdZ2cS7FP3c,001,2025-08-04_18h58.14.520,continuous_performance_test,2024.2.4,MacIntel,59.88023952,af1bdd26-a6ec-44eb-9e2d-1c76b0140555,4,329.2636,331.0141,space,1,0.2826,,0,29,29,3,1,D,space,,,,,,,,,,
,,,,,R_95QHNdZ2cS7FP3c,001,2025-08-04_18h58.14.520,continuous_performance_test,2024.2.4,MacIntel,59.88023952,af1bdd26-a6ec-44eb-9e2d-1c76b0140555,4,340.9702,342.9146,space,1,0.2971,,0,0,0,4,1,E,space,331.0154,340.9638,space,9.9293,,,,,,
,,,,,R_95QHNdZ2cS7FP3c,001,2025-08-04_18h58.14.520,continuous_performance_test,2024.2.4,MacIntel,59.88023952,af1bdd26-a6ec-44eb-9e2d-1c76b0140555,4,342.9159,344.5646,space,0,0.3035,,0,1,1,25,1,X,,,,,,,,,,,
,,,,,R_95QHNdZ2cS7FP3c,001,2025-08-04_18h58.14.520,continuous_performance_test,2024.2.4,MacIntel,59.88023952,af1bdd26-a6ec-44eb-9e2d-1c76b0140555,4,344.5657,346.3651,space,1,0.3385,,0,2,2,15,1,P,space,,,,,,,,,,
,,,,,R_95QHNdZ2cS7FP3c,001,2025-08-04_18h58.14.520,continuous_performance_test,2024.2.4,MacIntel,59.88023952,af1bdd26-a6ec-44eb-9e2d-1c76b0140555,4,346.3664,348.3651,space,1,0.2967,,0,3,3,22,1,W,space,,,,,,,,,,
,,,,,R_95QHNdZ2cS7FP3c,001,2025-08-04_18h58.14.520,continuous_performance_test,2024.2.4,MacIntel,59.88023952,af1bdd26-a6ec-44eb-9e2d-1c76b0140555,4,348.3665,350.0142,space,1,0.5139,,0,4,4,20,1,U,space,,,,,,,,,,
,,,,,R_95QHNdZ2cS7FP3c,001,2025-08-04_18h58.14.520,continuous_performance_test,2024.2.4,MacIntel,59.88023952,af1bdd26-a6ec-44eb-9e2d-1c76b0140555,4,350.0156,351.6655,space,1,0.372,,0,5,5,14,1,O,space,,,,,,,,,,
,,,,,R_95QHNdZ2cS7FP3c,001,2025-08-04_18h58.14.520,continuous_performance_test,2024.2.4,MacIntel,59.88023952,af1bdd26-a6ec-44eb-9e2d-1c76b0140555,4,351.6667,353.2645,space,1,0.3819,,0,6,6,21,1,V,space,,,,,,,,,,
,,,,,R_95QHNdZ2cS7FP3c,001,2025-08-04_18h58.14.520,continuous_performance_test,2024.2.4,MacIntel,59.88023952,af1bdd26-a6ec-44eb-9e2d-1c76b0140555,4,353.2663,355.2153,space,0,0.3192,,0,7,7,27,1,X,,,,,,,,,,,
,,,,,R_95QHNdZ2cS7FP3c,001,2025-08-04_18h58.14.520,continuous_performance_test,2024.2.4,MacIntel,59.88023952,af1bdd26-a6ec-44eb-9e2d-1c76b0140555,4,355.2166,356.9653,space,1,0.5064,,0,8,8,11,1,L,space,,,,,,,,,,
,,,,,R_95QHNdZ2cS7FP3c,001,2025-08-04_18h58.14.520,continuous_performance_test,2024.2.4,MacIntel,59.88023952,af1bdd26-a6ec-44eb-9e2d-1c76b0140555,4,356.9666,358.9653,space,1,0.3188,,0,9,9,7,1,H,space,,,,,,,,,,
,,,,,R_95QHNdZ2cS7FP3c,001,2025-08-04_18h58.14.520,continuous_performance_test,2024.2.4,MacIntel,59.88023952,af1bdd26-a6ec-44eb-9e2d-1c76b0140555,4,358.9674,360.8653,,1,,,0,10,10,26,1,X,,,,,,,,,,,
,,,,,R_95QHNdZ2cS7FP3c,001,2025-08-04_18h58.14.520,continuous_performance_test,2024.2.4,MacIntel,59.88023952,af1bdd26-a6ec-44eb-9e2d-1c76b0140555,4,360.8666,362.5649,space,1,0.2986,,0,11,11,19,1,T,space,,,,,,,,,,
,,,,,R_95QHNdZ2cS7FP3c,001,2025-08-04_18h58.14.520,continuous_performance_test,2024.2.4,MacIntel,59.88023952,af1bdd26-a6ec-44eb-9e2d-1c76b0140555,4,362.5659,364.316,space,1,0.3608,,0,12,12,0,1,A,space,,,,,,,,,,
,,,,,R_95QHNdZ2cS7FP3c,001,2025-08-04_18h58.14.520,continuous_performance_test,2024.2.4,MacIntel,59.88023952,af1bdd26-a6ec-44eb-9e2d-1c76b0140555,4,364.3169,366.1165,space,1,0.2675,,0,13,13,13,1,N,space,,,,,,,,,,
,,,,,R_95QHNdZ2cS7FP3c,001,2025-08-04_18h58.14.520,continuous_performance_test,2024.2.4,MacIntel,59.88023952,af1bdd26-a6ec-44eb-9e2d-1c76b0140555,4,366.1178,367.7163,space,1,0.5045,,0,14,14,8,1,I,space,,,,,,,,,,
,,,,,R_95QHNdZ2cS7FP3c,001,2025-08-04_18h58.14.520,continuous_performance_test,2024.2.4,MacIntel,59.88023952,af1bdd26-a6ec-44eb-9e2d-1c76b0140555,4,367.7178,369.3667,space,1,0.3526,,0,15,15,6,1,G,space,,,,,,,,,,
,,,,,R_95QHNdZ2cS7FP3c,001,2025-08-04_18h58.14.520,continuous_performance_test,2024.2.4,MacIntel,59.88023952,af1bdd26-a6ec-44eb-9e2d-1c76b0140555,4,369.3682,371.1668,space,1,0.3362,,0,16,16,9,1,J,space,,,,,,,,,,
,,,,,R_95QHNdZ2cS7FP3c,001,2025-08-04_18h58.14.520,continuous_performance_test,2024.2.4,MacIntel,59.88023952,af1bdd26-a6ec-44eb-9e2d-1c76b0140555,4,371.1682,373.0161,space,1,0.3049,,0,17,17,10,1,K,space,,,,,,,,,,
,,,,,R_95QHNdZ2cS7FP3c,001,2025-08-04_18h58.14.520,continuous_performance_test,2024.2.4,MacIntel,59.88023952,af1bdd26-a6ec-44eb-9e2d-1c76b0140555,4,373.0174,374.6672,space,0,0.3865,,0,18,18,29,1,X,,,,,,,,,,,
,,,,,R_95QHNdZ2cS7FP3c,001,2025-08-04_18h58.14.520,continuous_performance_test,2024.2.4,MacIntel,59.88023952,af1bdd26-a6ec-44eb-9e2d-1c76b0140555,4,374.6696,376.4173,space,1,0.313,,0,19,19,16,1,Q,space,,,,,,,,,,
,,,,,R_95QHNdZ2cS7FP3c,001,2025-08-04_18h58.14.520,continuous_performance_test,2024.2.4,MacIntel,59.88023952,af1bdd26-a6ec-44eb-9e2d-1c76b0140555,4,376.4188,378.2174,space,1,0.3022,,0,20,20,18,1,S,space,,,,,,,,,,
,,,,,R_95QHNdZ2cS7FP3c,001,2025-08-04_18h58.14.520,continuous_performance_test,2024.2.4,MacIntel,59.88023952,af1bdd26-a6ec-44eb-9e2d-1c76b0140555,4,378.2186,380.0665,space,1,0.3572,,0,21,21,1,1,B,space,,,,,,,,,,
,,,,,R_95QHNdZ2cS7FP3c,001,2025-08-04_18h58.14.520,continuous_performance_test,2024.2.4,MacIntel,59.88023952,af1bdd26-a6ec-44eb-9e2d-1c76b0140555,4,380.0678,381.9175,space,1,0.2711,,0,22,22,5,1,F,space,,,,,,,,,,
,,,,,R_95QHNdZ2cS7FP3c,001,2025-08-04_18h58.14.520,continuous_performance_test,2024.2.4,MacIntel,59.88023952,af1bdd26-a6ec-44eb-9e2d-1c76b0140555,4,381.9189,383.5174,space,1,0.5238,,0,23,23,2,1,C,space,,,,,,,,,,
,,,,,R_95QHNdZ2cS7FP3c,001,2025-08-04_18h58.14.520,continuous_performance_test,2024.2.4,MacIntel,59.88023952,af1bdd26-a6ec-44eb-9e2d-1c76b0140555,4,383.5187,385.4173,space,1,0.2477,,0,24,24,12,1,M,space,,,,,,,,,,
,,,,,R_95QHNdZ2cS7FP3c,001,2025-08-04_18h58.14.520,continuous_performance_test,2024.2.4,MacIntel,59.88023952,af1bdd26-a6ec-44eb-9e2d-1c76b0140555,4,385.4186,386.9679,space,1,0.4041,,0,25,25,3,1,D,space,,,,,,,,,,
,,,,,R_95QHNdZ2cS7FP3c,001,2025-08-04_18h58.14.520,continuous_performance_test,2024.2.4,MacIntel,59.88023952,af1bdd26-a6ec-44eb-9e2d-1c76b0140555,4,386.9692,388.8667,space,0,0.2725,,0,26,26,28,1,X,,,,,,,,,,,
,,,,,R_95QHNdZ2cS7FP3c,001,2025-08-04_18h58.14.520,continuous_performance_test,2024.2.4,MacIntel,59.88023952,af1bdd26-a6ec-44eb-9e2d-1c76b0140555,4,388.8676,390.6681,space,1,0.432,,0,27,27,23,1,Y,space,,,,,,,,,,
,,,,,R_95QHNdZ2cS7FP3c,001,2025-08-04_18h58.14.520,continuous_performance_test,2024.2.4,MacIntel,59.88023952,af1bdd26-a6ec-44eb-9e2d-1c76b0140555,4,390.6694,392.6683,space,1,0.5032,,0,28,28,17,1,R,space,,,,,,,,,,
,,,,,R_95QHNdZ2cS7FP3c,001,2025-08-04_18h58.14.520,continuous_performance_test,2024.2.4,MacIntel,59.88023952,af1bdd26-a6ec-44eb-9e2d-1c76b0140555,4,392.6696,394.3685,space,1,0.3997,,0,29,29,24,1,Z,space,,,,,,,,,,
,,,,,R_95QHNdZ2cS7FP3c,001,2025-08-04_18h58.14.520,continuous_performance_test,2024.2.4,MacIntel,59.88023952,af1bdd26-a6ec-44eb-9e2d-1c76b0140555,4,409.3796,411.2187,,0,,,0,0,0,15,1,P,space,394.3698,409.3695,,,,,,,,
,,,,,R_95QHNdZ2cS7FP3c,001,2025-08-04_18h58.14.520,continuous_performance_test,2024.2.4,MacIntel,59.88023952,af1bdd26-a6ec-44eb-9e2d-1c76b0140555,4,411.22,412.7687,,0,,,0,1,1,19,1,T,space,,,,,,,,,,
,,,,,R_95QHNdZ2cS7FP3c,001,2025-08-04_18h58.14.520,continuous_performance_test,2024.2.4,MacIntel,59.88023952,af1bdd26-a6ec-44eb-9e2d-1c76b0140555,4,412.7705,414.3699,space,1,0.4208,,0,2,2,11,1,L,space,,,,,,,,,,
,,,,,R_95QHNdZ2cS7FP3c,001,2025-08-04_18h58.14.520,continuous_performance_test,2024.2.4,MacIntel,59.88023952,af1bdd26-a6ec-44eb-9e2d-1c76b0140555,4,414.3711,416.0195,space,1,0.341,,0,3,3,3,1,D,space,,,,,,,,,,
,,,,,R_95QHNdZ2cS7FP3c,001,2025-08-04_18h58.14.520,continuous_performance_test,2024.2.4,MacIntel,59.88023952,af1bdd26-a6ec-44eb-9e2d-1c76b0140555,4,416.0208,417.7202,space,1,0.4373,,0,4,4,8,1,I,space,,,,,,,,,,
,,,,,R_95QHNdZ2cS7FP3c,001,2025-08-04_18h58.14.520,continuous_performance_test,2024.2.4,MacIntel,59.88023952,af1bdd26-a6ec-44eb-9e2d-1c76b0140555,4,417.7215,419.4703,space,1,0.4288,,0,5,5,10,1,K,space,,,,,,,,,,
,,,,,R_95QHNdZ2cS7FP3c,001,2025-08-04_18h58.14.520,continuous_performance_test,2024.2.4,MacIntel,59.88023952,af1bdd26-a6ec-44eb-9e2d-1c76b0140555,4,419.4718,421.0203,space,1,0.3841,,0,6,6,24,1,Z,space,,,,,,,,,,
,,,,,R_95QHNdZ2cS7FP3c,001,2025-08-04_18h58.14.520,continuous_performance_test,2024.2.4,MacIntel,59.88023952,af1bdd26-a6ec-44eb-9e2d-1c76b0140555,4,421.0217,423.0203,space,1,0.3087,,0,7,7,6,1,G,space,,,,,,,,,,
,,,,,R_95QHNdZ2cS7FP3c,001,2025-08-04_18h58.14.520,continuous_performance_test,2024.2.4,MacIntel,59.88023952,af1bdd26-a6ec-44eb-9e2d-1c76b0140555,4,423.0218,425.0203,space,1,0.3034,,0,8,8,21,1,V,space,,,,,,,,,,
,,,,,R_95QHNdZ2cS7FP3c,001,2025-08-04_18h58.14.520,continuous_performance_test,2024.2.4,MacIntel,59.88023952,af1bdd26-a6ec-44eb-9e2d-1c76b0140555,4,425.0216,426.7697,space,0,0.3123,,0,9,9,26,1,X,,,,,,,,,,,
,,,,,R_95QHNdZ2cS7FP3c,001,2025-08-04_18h58.14.520,continuous_performance_test,2024.2.4,MacIntel,59.88023952,af1bdd26-a6ec-44eb-9e2d-1c76b0140555,4,426.7716,428.4708,space,1,0.3787,,0,10,10,18,1,S,space,,,,,,,,,,
,,,,,R_95QHNdZ2cS7FP3c,001,2025-08-04_18h58.14.520,continuous_performance_test,2024.2.4,MacIntel,59.88023952,af1bdd26-a6ec-44eb-9e2d-1c76b0140555,4,428.4722,430.3709,space,1,0.2698,,0,11,11,9,1,J,space,,,,,,,,,,
,,,,,R_95QHNdZ2cS7FP3c,001,2025-08-04_18h58.14.520,continuous_performance_test,2024.2.4,MacIntel,59.88023952,af1bdd26-a6ec-44eb-9e2d-1c76b0140555,4,430.3722,432.2211,space,0,0.2306,,0,12,12,28,1,X,,,,,,,,,,,
,,,,,R_95QHNdZ2cS7FP3c,001,2025-08-04_18h58.14.520,continuous_performance_test,2024.2.4,MacIntel,59.88023952,af1bdd26-a6ec-44eb-9e2d-1c76b0140555,4,432.2229,434.0704,space,1,0.2796,,0,13,13,13,1,N,space,,,,,,,,,,
,,,,,R_95QHNdZ2cS7FP3c,001,2025-08-04_18h58.14.520,continuous_performance_test,2024.2.4,MacIntel,59.88023952,af1bdd26-a6ec-44eb-9e2d-1c76b0140555,4,434.0718,435.7705,,1,,,0,14,14,27,1,X,,,,,,,,,,,
,,,,,R_95QHNdZ2cS7FP3c,001,2025-08-04_18h58.14.520,continuous_performance_test,2024.2.4,MacIntel,59.88023952,af1bdd26-a6ec-44eb-9e2d-1c76b0140555,4,435.7719,437.5212,space,1,0.2798,,0,15,15,1,1,B,space,,,,,,,,,,
,,,,,R_95QHNdZ2cS7FP3c,001,2025-08-04_18h58.14.520,continuous_performance_test,2024.2.4,MacIntel,59.88023952,af1bdd26-a6ec-44eb-9e2d-1c76b0140555,4,437.5226,439.1205,space,1,0.4868,,0,16,16,12,1,M,space,,,,,,,,,,
,,,,,R_95QHNdZ2cS7FP3c,001,2025-08-04_18h58.14.520,continuous_performance_test,2024.2.4,MacIntel,59.88023952,af1bdd26-a6ec-44eb-9e2d-1c76b0140555,4,439.1217,440.8214,space,1,0.3639,,0,17,17,20,1,U,space,,,,,,,,,,
,,,,,R_95QHNdZ2cS7FP3c,001,2025-08-04_18h58.14.520,continuous_performance_test,2024.2.4,MacIntel,59.88023952,af1bdd26-a6ec-44eb-9e2d-1c76b0140555,4,440.8227,442.4207,space,1,0.3015,,0,18,18,23,1,Y,space,,,,,,,,,,
,,,,,R_95QHNdZ2cS7FP3c,001,2025-08-04_18h58.14.520,continuous_performance_test,2024.2.4,MacIntel,59.88023952,af1bdd26-a6ec-44eb-9e2d-1c76b0140555,4,442.4222,443.9719,space,1,0.3125,,0,19,19,2,1,C,space,,,,,,,,,,
,,,,,R_95QHNdZ2cS7FP3c,001,2025-08-04_18h58.14.520,continuous_performance_test,2024.2.4,MacIntel,59.88023952,af1bdd26-a6ec-44eb-9e2d-1c76b0140555,4,443.9733,445.5712,space,1,0.4813,,0,20,20,0,1,A,space,,,,,,,,,,
,,,,,R_95QHNdZ2cS7FP3c,001,2025-08-04_18h58.14.520,continuous_performance_test,2024.2.4,MacIntel,59.88023952,af1bdd26-a6ec-44eb-9e2d-1c76b0140555,4,445.5725,447.3721,space,1,0.3902,,0,21,21,14,1,O,space,,,,,,,,,,
,,,,,R_95QHNdZ2cS7FP3c,001,2025-08-04_18h58.14.520,continuous_performance_test,2024.2.4,MacIntel,59.88023952,af1bdd26-a6ec-44eb-9e2d-1c76b0140555,4,447.3741,449.3223,space,1,0.2724,,0,22,22,16,1,Q,space,,,,,,,,,,
,,,,,R_95QHNdZ2cS7FP3c,001,2025-08-04_18h58.14.520,continuous_performance_test,2024.2.4,MacIntel,59.88023952,af1bdd26-a6ec-44eb-9e2d-1c76b0140555,4,449.3242,451.1718,space,1,0.34,,0,23,23,17,1,R,space,,,,,,,,,,
,,,,,R_95QHNdZ2cS7FP3c,001,2025-08-04_18h58.14.520,continuous_performance_test,2024.2.4,MacIntel,59.88023952,af1bdd26-a6ec-44eb-9e2d-1c76b0140555,4,451.1737,452.922,space,1,0.3358,,0,24,24,5,1,F,space,,,,,,,,,,
,,,,,R_95QHNdZ2cS7FP3c,001,2025-08-04_18h58.14.520,continuous_performance_test,2024.2.4,MacIntel,59.88023952,af1bdd26-a6ec-44eb-9e2d-1c76b0140555,4,452.9238,454.5713,space,0,0.3851,,0,25,25,29,1,X,,,,,,,,,,,
,,,,,R_95QHNdZ2cS7FP3c,001,2025-08-04_18h58.14.520,continuous_performance_test,2024.2.4,MacIntel,59.88023952,af1bdd26-a6ec-44eb-9e2d-1c76b0140555,4,454.5728,456.4718,space,1,0.3057,,0,26,26,7,1,H,space,,,,,,,,,,
,,,,,R_95QHNdZ2cS7FP3c,001,2025-08-04_18h58.14.520,continuous_performance_test,2024.2.4,MacIntel,59.88023952,af1bdd26-a6ec-44eb-9e2d-1c76b0140555,4,456.4737,458.2218,space,1,0.3248,,0,27,27,4,1,E,space,,,,,,,,,,
,,,,,R_95QHNdZ2cS7FP3c,001,2025-08-04_18h58.14.520,continuous_performance_test,2024.2.4,MacIntel,59.88023952,af1bdd26-a6ec-44eb-9e2d-1c76b0140555,4,458.2236,459.873,,1,,,0,28,28,25,1,X,,,,,,,,,,,
,,,,,R_95QHNdZ2cS7FP3c,001,2025-08-04_18h58.14.520,continuous_performance_test,2024.2.4,MacIntel,59.88023952,af1bdd26-a6ec-44eb-9e2d-1c76b0140555,4,459.875,461.6231,space,1,0.0253,,0,29,29,22,1,W,space,,,,,,,,,,
,,,,,R_95QHNdZ2cS7FP3c,001,2025-08-04_18h58.14.520,continuous_performance_test,2024.2.4,MacIntel,59.88023952,af1bdd26-a6ec-44eb-9e2d-1c76b0140555,4,474.9274,476.5242,space,1,0.4575,,0,0,0,3,1,D,space,461.6252,474.9229,space,13.2765,,,,,,
,,,,,R_95QHNdZ2cS7FP3c,001,2025-08-04_18h58.14.520,continuous_performance_test,2024.2.4,MacIntel,59.88023952,af1bdd26-a6ec-44eb-9e2d-1c76b0140555,4,476.5262,478.4239,space,1,0.3229,,0,1,1,5,1,F,space,,,,,,,,,,
,,,,,R_95QHNdZ2cS7FP3c,001,2025-08-04_18h58.14.520,continuous_performance_test,2024.2.4,MacIntel,59.88023952,af1bdd26-a6ec-44eb-9e2d-1c76b0140555,4,478.4259,480.0238,space,1,0.3733,,0,2,2,0,1,A,space,,,,,,,,,,
,,,,,R_95QHNdZ2cS7FP3c,001,2025-08-04_18h58.14.520,continuous_performance_test,2024.2.4,MacIntel,59.88023952,af1bdd26-a6ec-44eb-9e2d-1c76b0140555,4,480.0262,481.8743,space,1,0.2949,,0,3,3,12,1,M,space,,,,,,,,,,
,,,,,R_95QHNdZ2cS7FP3c,001,2025-08-04_18h58.14.520,continuous_performance_test,2024.2.4,MacIntel,59.88023952,af1bdd26-a6ec-44eb-9e2d-1c76b0140555,4,481.8761,483.4742,space,1,0.328,,0,4,4,7,1,H,space,,,,,,,,,,
,,,,,R_95QHNdZ2cS7FP3c,001,2025-08-04_18h58.14.520,continuous_performance_test,2024.2.4,MacIntel,59.88023952,af1bdd26-a6ec-44eb-9e2d-1c76b0140555,4,483.4756,485.0747,space,1,0.4507,,0,5,5,13,1,N,space,,,,,,,,,,
,,,,,R_95QHNdZ2cS7FP3c,001,2025-08-04_18h58.14.520,continuous_performance_test,2024.2.4,MacIntel,59.88023952,af1bdd26-a6ec-44eb-9e2d-1c76b0140555,4,485.0768,486.6236,space,1,0.482,,0,6,6,24,1,Z,space,,,,,,,,,,
,,,,,R_95QHNdZ2cS7FP3c,001,2025-08-04_18h58.14.520,continuous_performance_test,2024.2.4,MacIntel,59.88023952,af1bdd26-a6ec-44eb-9e2d-1c76b0140555,4,486.6252,488.2242,space,1,0.3088,,0,7,7,4,1,E,space,,,,,,,,,,
,,,,,R_95QHNdZ2cS7FP3c,001,2025-08-04_18h58.14.520,continuous_performance_test,2024.2.4,MacIntel,59.88023952,af1bdd26-a6ec-44eb-9e2d-1c76b0140555,4,488.2261,489.8748,space,1,0.3731,,0,8,8,2,1,C,space,,,,,,,,,,
,,,,,R_95QHNdZ2cS7FP3c,001,2025-08-04_18h58.14.520,continuous_performance_test,2024.2.4,MacIntel,59.88023952,af1bdd26-a6ec-44eb-9e2d-1c76b0140555,4,489.8759,491.5249,space,1,0.3246,,0,9,9,23,1,Y,space,,,,,,,,,,
,,,,,R_95QHNdZ2cS7FP3c,001,2025-08-04_18h58.14.520,continuous_performance_test,2024.2.4,MacIntel,59.88023952,af1bdd26-a6ec-44eb-9e2d-1c76b0140555,4,491.5266,493.1752,space,1,0.3542,,0,10,10,16,1,Q,space,,,,,,,,,,
,,,,,R_95QHNdZ2cS7FP3c,001,2025-08-04_18h58.14.520,continuous_performance_test,2024.2.4,MacIntel,59.88023952,af1bdd26-a6ec-44eb-9e2d-1c76b0140555,4,493.1768,494.9748,space,1,0.2644,,0,11,11,14,1,O,space,,,,,,,,,,
,,,,,R_95QHNdZ2cS7FP3c,001,2025-08-04_18h58.14.520,continuous_performance_test,2024.2.4,MacIntel,59.88023952,af1bdd26-a6ec-44eb-9e2d-1c76b0140555,4,494.9768,496.575,space,1,0.3318,,0,12,12,22,1,W,space,,,,,,,,,,
,,,,,R_95QHNdZ2cS7FP3c,001,2025-08-04_18h58.14.520,continuous_performance_test,2024.2.4,MacIntel,59.88023952,af1bdd26-a6ec-44eb-9e2d-1c76b0140555,4,496.5786,498.3257,space,1,0.2876,,0,13,13,21,1,V,space,,,,,,,,,,
,,,,,R_95QHNdZ2cS7FP3c,001,2025-08-04_18h58.14.520,continuous_performance_test,2024.2.4,MacIntel,59.88023952,af1bdd26-a6ec-44eb-9e2d-1c76b0140555,4,498.3275,500.3257,space,1,0.2642,,0,14,14,11,1,L,space,,,,,,,,,,
,,,,,R_95QHNdZ2cS7FP3c,001,2025-08-04_18h58.14.520,continuous_performance_test,2024.2.4,MacIntel,59.88023952,af1bdd26-a6ec-44eb-9e2d-1c76b0140555,4,500.3272,502.0752,space,1,0.3022,,0,15,15,1,1,B,space,,,,,,,,,,
,,,,,R_95QHNdZ2cS7FP3c,001,2025-08-04_18h58.14.520,continuous_performance_test,2024.2.4,MacIntel,59.88023952,af1bdd26-a6ec-44eb-9e2d-1c76b0140555,4,502.0765,503.9757,space,0,0.272,,0,16,16,27,1,X,,,,,,,,,,,
,,,,,R_95QHNdZ2cS7FP3c,001,2025-08-04_18h58.14.520,continuous_performance_test,2024.2.4,MacIntel,59.88023952,af1bdd26-a6ec-44eb-9e2d-1c76b0140555,4,503.977,505.6257,space,1,0.3833,,0,17,17,17,1,R,space,,,,,,,,,,
,,,,,R_95QHNdZ2cS7FP3c,001,2025-08-04_18h58.14.520,continuous_performance_test,2024.2.4,MacIntel,59.88023952,af1bdd26-a6ec-44eb-9e2d-1c76b0140555,4,505.6274,507.3264,space,1,0.3334,,0,18,18,9,1,J,space,,,,,,,,,,
,,,,,R_95QHNdZ2cS7FP3c,001,2025-08-04_18h58.14.520,continuous_performance_test,2024.2.4,MacIntel,59.88023952,af1bdd26-a6ec-44eb-9e2d-1c76b0140555,4,507.3284,509.3263,space,1,0.4016,,0,19,19,8,1,I,space,,,,,,,,,,
,,,,,R_95QHNdZ2cS7FP3c,001,2025-08-04_18h58.14.520,continuous_performance_test,2024.2.4,MacIntel,59.88023952,af1bdd26-a6ec-44eb-9e2d-1c76b0140555,4,509.3282,510.9267,space,1,0.3522,,0,20,20,15,1,P,space,,,,,,,,,,
,,,,,R_95QHNdZ2cS7FP3c,001,2025-08-04_18h58.14.520,continuous_performance_test,2024.2.4,MacIntel,59.88023952,af1bdd26-a6ec-44eb-9e2d-1c76b0140555,4,510.9285,512.5267,space,1,0.3367,,0,21,21,19,1,T,space,,,,,,,,,,
,,,,,R_95QHNdZ2cS7FP3c,001,2025-08-04_18h58.14.520,continuous_performance_test,2024.2.4,MacIntel,59.88023952,af1bdd26-a6ec-44eb-9e2d-1c76b0140555,4,512.5284,514.3767,space,1,0.4208,,0,22,22,6,1,G,space,,,,,,,,,,
,,,,,R_95QHNdZ2cS7FP3c,001,2025-08-04_18h58.14.520,continuous_performance_test,2024.2.4,MacIntel,59.88023952,af1bdd26-a6ec-44eb-9e2d-1c76b0140555,4,514.3783,516.3771,space,1,0.4076,,0,23,23,18,1,S,space,,,,,,,,,,
,,,,,R_95QHNdZ2cS7FP3c,001,2025-08-04_18h58.14.520,continuous_performance_test,2024.2.4,MacIntel,59.88023952,af1bdd26-a6ec-44eb-9e2d-1c76b0140555,4,516.3791,518.0772,space,0,0.3363,,0,24,24,28,1,X,,,,,,,,,,,
,,,,,R_95QHNdZ2cS7FP3c,001,2025-08-04_18h58.14.520,continuous_performance_test,2024.2.4,MacIntel,59.88023952,af1bdd26-a6ec-44eb-9e2d-1c76b0140555,4,518.0786,519.6764,space,0,0.2118,,0,25,25,26,1,X,,,,,,,,,,,
,,,,,R_95QHNdZ2cS7FP3c,001,2025-08-04_18h58.14.520,continuous_performance_test,2024.2.4,MacIntel,59.88023952,af1bdd26-a6ec-44eb-9e2d-1c76b0140555,4,519.6779,521.5273,,1,,,0,26,26,25,1,X,,,,,,,,,,,
,,,,,R_95QHNdZ2cS7FP3c,001,2025-08-04_18h58.14.520,continuous_performance_test,2024.2.4,MacIntel,59.88023952,af1bdd26-a6ec-44eb-9e2d-1c76b0140555,4,521.5292,523.1769,space,1,0.2901,,0,27,27,20,1,U,space,,,,,,,,,,
,,,,,R_95QHNdZ2cS7FP3c,001,2025-08-04_18h58.14.520,continuous_performance_test,2024.2.4,MacIntel,59.88023952,af1bdd26-a6ec-44eb-9e2d-1c76b0140555,4,523.1788,524.8275,,1,,,0,28,28,29,1,X,,,,,,,,,,,
,,,,,R_95QHNdZ2cS7FP3c,001,2025-08-04_18h58.14.520,continuous_performance_test,2024.2.4,MacIntel,59.88023952,af1bdd26-a6ec-44eb-9e2d-1c76b0140555,4,524.8296,526.8277,space,1,0.3078,,0,29,29,10,1,K,space,,,,,,,,,,
,,,,,R_95QHNdZ2cS7FP3c,001,2025-08-04_18h58.14.520,continuous_performance_test,2024.2.4,MacIntel,59.88023952,af1bdd26-a6ec-44eb-9e2d-1c76b0140555,4,538.0007,539.594,space,1,0.6177,,0,0,0,7,1,H,space,526.8297,537.9947,space,11.1526,,,,,,
,,,,,R_95QHNdZ2cS7FP3c,001,2025-08-04_18h58.14.520,continuous_performance_test,2024.2.4,MacIntel,59.88023952,af1bdd26-a6ec-44eb-9e2d-1c76b0140555,4,539.5952,541.3454,space,1,0.3063,,0,1,1,10,1,K,space,,,,,,,,,,
,,,,,R_95QHNdZ2cS7FP3c,001,2025-08-04_18h58.14.520,continuous_performance_test,2024.2.4,MacIntel,59.88023952,af1bdd26-a6ec-44eb-9e2d-1c76b0140555,4,541.3473,543.2955,space,1,0.3026,,0,2,2,0,1,A,space,,,,,,,,,,
,,,,,R_95QHNdZ2cS7FP3c,001,2025-08-04_18h58.14.520,continuous_performance_test,2024.2.4,MacIntel,59.88023952,af1bdd26-a6ec-44eb-9e2d-1c76b0140555,4,543.2976,544.9949,space,1,0.3701,,0,3,3,6,1,G,space,,,,,,,,,,
,,,,,R_95QHNdZ2cS7FP3c,001,2025-08-04_18h58.14.520,continuous_performance_test,2024.2.4,MacIntel,59.88023952,af1bdd26-a6ec-44eb-9e2d-1c76b0140555,4,544.9968,546.8457,space,0,0.3024,,0,4,4,29,1,X,,,,,,,,,,,
,,,,,R_95QHNdZ2cS7FP3c,001,2025-08-04_18h58.14.520,continuous_performance_test,2024.2.4,MacIntel,59.88023952,af1bdd26-a6ec-44eb-9e2d-1c76b0140555,4,546.8477,548.3958,space,1,0.6147,,0,5,5,21,1,V,space,,,,,,,,,,
,,,,,R_95QHNdZ2cS7FP3c,001,2025-08-04_18h58.14.520,continuous_performance_test,2024.2.4,MacIntel,59.88023952,af1bdd26-a6ec-44eb-9e2d-1c76b0140555,4,548.3977,550.0451,space,1,0.3393,,0,6,6,11,1,L,space,,,,,,,,,,
,,,,,R_95QHNdZ2cS7FP3c,001,2025-08-04_18h58.14.520,continuous_performance_test,2024.2.4,MacIntel,59.88023952,af1bdd26-a6ec-44eb-9e2d-1c76b0140555,4,550.0473,551.595,space,1,0.3022,,0,7,7,13,1,N,space,,,,,,,,,,
,,,,,R_95QHNdZ2cS7FP3c,001,2025-08-04_18h58.14.520,continuous_performance_test,2024.2.4,MacIntel,59.88023952,af1bdd26-a6ec-44eb-9e2d-1c76b0140555,4,551.5963,553.5453,space,1,0.3865,,0,8,8,12,1,M,space,,,,,,,,,,
,,,,,R_95QHNdZ2cS7FP3c,001,2025-08-04_18h58.14.520,continuous_performance_test,2024.2.4,MacIntel,59.88023952,af1bdd26-a6ec-44eb-9e2d-1c76b0140555,4,553.547,555.5455,space,1,0.3141,,0,9,9,1,1,B,space,,,,,,,,,,
,,,,,R_95QHNdZ2cS7FP3c,001,2025-08-04_18h58.14.520,continuous_performance_test,2024.2.4,MacIntel,59.88023952,af1bdd26-a6ec-44eb-9e2d-1c76b0140555,4,555.5475,557.2464,space,1,0.3361,,0,10,10,3,1,D,space,,,,,,,,,,
,,,,,R_95QHNdZ2cS7FP3c,001,2025-08-04_18h58.14.520,continuous_performance_test,2024.2.4,MacIntel,59.88023952,af1bdd26-a6ec-44eb-9e2d-1c76b0140555,4,557.2484,558.9965,space,0,0.3224,,0,11,11,26,1,X,,,,,,,,,,,
,,,,,R_95QHNdZ2cS7FP3c,001,2025-08-04_18h58.14.520,continuous_performance_test,2024.2.4,MacIntel,59.88023952,af1bdd26-a6ec-44eb-9e2d-1c76b0140555,4,558.9985,560.7962,space,1,0.2845,,0,12,12,2,1,C,space,,,,,,,,,,
,,,,,R_95QHNdZ2cS7FP3c,001,2025-08-04_18h58.14.520,continuous_performance_test,2024.2.4,MacIntel,59.88023952,af1bdd26-a6ec-44eb-9e2d-1c76b0140555,4,560.7982,562.5967,space,1,0.3581,,0,13,13,23,1,Y,space,,,,,,,,,,
,,,,,R_95QHNdZ2cS7FP3c,001,2025-08-04_18h58.14.520,continuous_performance_test,2024.2.4,MacIntel,59.88023952,af1bdd26-a6ec-44eb-9e2d-1c76b0140555,4,562.5979,564.3972,space,1,0.455,,0,14,14,22,1,W,space,,,,,,,,,,
,,,,,R_95QHNdZ2cS7FP3c,001,2025-08-04_18h58.14.520,continuous_performance_test,2024.2.4,MacIntel,59.88023952,af1bdd26-a6ec-44eb-9e2d-1c76b0140555,4,564.399,565.9461,space,0,0.3741,,0,15,15,28,1,X,,,,,,,,,,,
,,,,,R_95QHNdZ2cS7FP3c,001,2025-08-04_18h58.14.520,continuous_performance_test,2024.2.4,MacIntel,59.88023952,af1bdd26-a6ec-44eb-9e2d-1c76b0140555,4,565.9478,567.5463,space,1,0.7148,,0,16,16,4,1,E,space,,,,,,,,,,
,,,,,R_95QHNdZ2cS7FP3c,001,2025-08-04_18h58.14.520,continuous_performance_test,2024.2.4,MacIntel,59.88023952,af1bdd26-a6ec-44eb-9e2d-1c76b0140555,4,567.5476,569.547,space,1,0.4557,,0,17,17,14,1,O,space,,,,,,,,,,
,,,,,R_95QHNdZ2cS7FP3c,001,2025-08-04_18h58.14.520,continuous_performance_test,2024.2.4,MacIntel,59.88023952,af1bdd26-a6ec-44eb-9e2d-1c76b0140555,4,569.548,571.4475,space,1,0.359,,0,18,18,18,1,S,space,,,,,,,,,,
,,,,,R_95QHNdZ2cS7FP3c,001,2025-08-04_18h58.14.520,continuous_performance_test,2024.2.4,MacIntel,59.88023952,af1bdd26-a6ec-44eb-9e2d-1c76b0140555,4,571.4489,573.1477,space,1,0.391,,0,19,19,9,1,J,space,,,,,,,,,,
,,,,,R_95QHNdZ2cS7FP3c,001,2025-08-04_18h58.14.520,continuous_performance_test,2024.2.4,MacIntel,59.88023952,af1bdd26-a6ec-44eb-9e2d-1c76b0140555,4,573.1495,575.1477,space,1,0.3564,,0,20,20,17,1,R,space,,,,,,,,,,
,,,,,R_95QHNdZ2cS7FP3c,001,2025-08-04_18h58.14.520,continuous_performance_test,2024.2.4,MacIntel,59.88023952,af1bdd26-a6ec-44eb-9e2d-1c76b0140555,4,575.1497,577.0472,space,1,0.3697,,0,21,21,20,1,U,space,,,,,,,,,,
,,,,,R_95QHNdZ2cS7FP3c,001,2025-08-04_18h58.14.520,continuous_performance_test,2024.2.4,MacIntel,59.88023952,af1bdd26-a6ec-44eb-9e2d-1c76b0140555,4,577.049,578.597,space,1,0.2898,,0,22,22,16,1,Q,space,,,,,,,,,,
,,,,,R_95QHNdZ2cS7FP3c,001,2025-08-04_18h58.14.520,continuous_performance_test,2024.2.4,MacIntel,59.88023952,af1bdd26-a6ec-44eb-9e2d-1c76b0140555,4,578.5989,580.398,space,0,0.3044,,0,23,23,25,1,X,,,,,,,,,,,
,,,,,R_95QHNdZ2cS7FP3c,001,2025-08-04_18h58.14.520,continuous_performance_test,2024.2.4,MacIntel,59.88023952,af1bdd26-a6ec-44eb-9e2d-1c76b0140555,4,580.4,582.0482,space,1,0.29,,0,24,24,24,1,Z,space,,,,,,,,,,
,,,,,R_95QHNdZ2cS7FP3c,001,2025-08-04_18h58.14.520,continuous_performance_test,2024.2.4,MacIntel,59.88023952,af1bdd26-a6ec-44eb-9e2d-1c76b0140555,4,582.0501,583.6471,space,1,0.4071,,0,25,25,8,1,I,space,,,,,,,,,,
,,,,,R_95QHNdZ2cS7FP3c,001,2025-08-04_18h58.14.520,continuous_performance_test,2024.2.4,MacIntel,59.88023952,af1bdd26-a6ec-44eb-9e2d-1c76b0140555,4,583.6483,585.6485,space,1,0.403,,0,26,26,15,1,P,space,,,,,,,,,,
,,,,,R_95QHNdZ2cS7FP3c,001,2025-08-04_18h58.14.520,continuous_performance_test,2024.2.4,MacIntel,59.88023952,af1bdd26-a6ec-44eb-9e2d-1c76b0140555,4,585.6499,587.2486,space,1,0.423,,0,27,27,19,1,T,space,,,,,,,,,,
,,,,,R_95QHNdZ2cS7FP3c,001,2025-08-04_18h58.14.520,continuous_performance_test,2024.2.4,MacIntel,59.88023952,af1bdd26-a6ec-44eb-9e2d-1c76b0140555,4,587.2505,588.8979,,1,,,0,28,28,27,1,X,,,,,,,,,,,
,,,,,R_95QHNdZ2cS7FP3c,001,2025-08-04_18h58.14.520,continuous_performance_test,2024.2.4,MacIntel,59.88023952,af1bdd26-a6ec-44eb-9e2d-1c76b0140555,4,588.8999,590.4478,space,1,0.3978,,0,29,29,5,1,F,space,,,,,,,,,,
,,,,,R_95QHNdZ2cS7FP3c,001,2025-08-04_18h58.14.520,continuous_performance_test,2024.2.4,MacIntel,59.88023952,af1bdd26-a6ec-44eb-9e2d-1c76b0140555,4,592.9352,594.9325,space,1,0.6027,,0,0,0,0,1,A,space,590.4498,592.9311,space,2.4704,,,,,,
,,,,,R_95QHNdZ2cS7FP3c,001,2025-08-04_18h58.14.520,continuous_performance_test,2024.2.4,MacIntel,59.88023952,af1bdd26-a6ec-44eb-9e2d-1c76b0140555,4,594.9344,596.7319,,1,,,0,1,1,25,1,X,,,,,,,,,,,
,,,,,R_95QHNdZ2cS7FP3c,001,2025-08-04_18h58.14.520,continuous_performance_test,2024.2.4,MacIntel,59.88023952,af1bdd26-a6ec-44eb-9e2d-1c76b0140555,4,596.7333,598.7316,,1,,,0,2,2,27,1,X,,,,,,,,,,,
,,,,,R_95QHNdZ2cS7FP3c,001,2025-08-04_18h58.14.520,continuous_performance_test,2024.2.4,MacIntel,59.88023952,af1bdd26-a6ec-44eb-9e2d-1c76b0140555,4,598.7331,600.732,space,0,0.3441,,0,3,3,29,1,X,,,,,,,,,,,
,,,,,R_95QHNdZ2cS7FP3c,001,2025-08-04_18h58.14.520,continuous_performance_test,2024.2.4,MacIntel,59.88023952,af1bdd26-a6ec-44eb-9e2d-1c76b0140555,4,600.7342,602.5329,space,1,0.4619,,0,4,4,12,1,M,space,,,,,,,,,,
,,,,,R_95QHNdZ2cS7FP3c,001,2025-08-04_18h58.14.520,continuous_performance_test,2024.2.4,MacIntel,59.88023952,af1bdd26-a6ec-44eb-9e2d-1c76b0140555,4,602.5348,604.383,space,1,0.3458,,0,5,5,2,1,C,space,,,,,,,,,,
,,,,,R_95QHNdZ2cS7FP3c,001,2025-08-04_18h58.14.520,continuous_performance_test,2024.2.4,MacIntel,59.88023952,af1bdd26-a6ec-44eb-9e2d-1c76b0140555,4,604.3849,605.982,space,1,0.6791,,0,6,6,4,1,E,space,,,,,,,,,,
,,,,,R_95QHNdZ2cS7FP3c,001,2025-08-04_18h58.14.520,continuous_performance_test,2024.2.4,MacIntel,59.88023952,af1bdd26-a6ec-44eb-9e2d-1c76b0140555,4,605.9836,607.7833,space,1,0.2829,,0,7,7,3,1,D,space,,,,,,,,,,
,,,,,R_95QHNdZ2cS7FP3c,001,2025-08-04_18h58.14.520,continuous_performance_test,2024.2.4,MacIntel,59.88023952,af1bdd26-a6ec-44eb-9e2d-1c76b0140555,4,607.7848,609.632,space,0,0.3128,,0,8,8,26,1,X,,,,,,,,,,,
,,,,,R_95QHNdZ2cS7FP3c,001,2025-08-04_18h58.14.520,continuous_performance_test,2024.2.4,MacIntel,59.88023952,af1bdd26-a6ec-44eb-9e2d-1c76b0140555,4,609.6332,611.5337,space,1,0.404,,0,9,9,17,1,R,space,,,,,,,,,,
,,,,,R_95QHNdZ2cS7FP3c,001,2025-08-04_18h58.14.520,continuous_performance_test,2024.2.4,MacIntel,59.88023952,af1bdd26-a6ec-44eb-9e2d-1c76b0140555,4,611.5355,613.5338,space,1,0.4065,,0,10,10,20,1,U,space,,,,,,,,,,
,,,,,R_95QHNdZ2cS7FP3c,001,2025-08-04_18h58.14.520,continuous_performance_test,2024.2.4,MacIntel,59.88023952,af1bdd26-a6ec-44eb-9e2d-1c76b0140555,4,613.5356,615.5338,space,1,0.4065,,0,11,11,21,1,V,space,,,,,,,,,,
,,,,,R_95QHNdZ2cS7FP3c,001,2025-08-04_18h58.14.520,continuous_performance_test,2024.2.4,MacIntel,59.88023952,af1bdd26-a6ec-44eb-9e2d-1c76b0140555,4,615.5356,617.2339,space,1,0.3982,,0,12,12,11,1,L,space,,,,,,,,,,
,,,,,R_95QHNdZ2cS7FP3c,001,2025-08-04_18h58.14.520,continuous_performance_test,2024.2.4,MacIntel,59.88023952,af1bdd26-a6ec-44eb-9e2d-1c76b0140555,4,617.2358,618.8837,space,1,0.3875,,0,13,13,19,1,T,space,,,,,,,,,,
,,,,,R_95QHNdZ2cS7FP3c,001,2025-08-04_18h58.14.520,continuous_performance_test,2024.2.4,MacIntel,59.88023952,af1bdd26-a6ec-44eb-9e2d-1c76b0140555,4,618.8856,620.483,space,1,0.4865,,0,14,14,23,1,Y,space,,,,,,,,,,
,,,,,R_95QHNdZ2cS7FP3c,001,2025-08-04_18h58.14.520,continuous_performance_test,2024.2.4,MacIntel,59.88023952,af1bdd26-a6ec-44eb-9e2d-1c76b0140555,4,620.4849,622.2332,space,1,0.5036,,0,15,15,8,1,I,space,,,,,,,,,,
,,,,,R_95QHNdZ2cS7FP3c,001,2025-08-04_18h58.14.520,continuous_performance_test,2024.2.4,MacIntel,59.88023952,af1bdd26-a6ec-44eb-9e2d-1c76b0140555,4,622.235,624.2344,space,1,0.4525,,0,16,16,14,1,O,space,,,,,,,,,,
,,,,,R_95QHNdZ2cS7FP3c,001,2025-08-04_18h58.14.520,continuous_performance_test,2024.2.4,MacIntel,59.88023952,af1bdd26-a6ec-44eb-9e2d-1c76b0140555,4,624.2365,625.9846,space,1,0.4231,,0,17,17,9,1,J,space,,,,,,,,,,
,,,,,R_95QHNdZ2cS7FP3c,001,2025-08-04_18h58.14.520,continuous_performance_test,2024.2.4,MacIntel,59.88023952,af1bdd26-a6ec-44eb-9e2d-1c76b0140555,4,625.9864,627.9336,space,1,0.473,,0,18,18,1,1,B,space,,,,,,,,,,
,,,,,R_95QHNdZ2cS7FP3c,001,2025-08-04_18h58.14.520,continuous_performance_test,2024.2.4,MacIntel,59.88023952,af1bdd26-a6ec-44eb-9e2d-1c76b0140555,4,627.9356,629.4839,space,1,0.6457,,0,19,19,24,1,Z,space,,,,,,,,,,
,,,,,R_95QHNdZ2cS7FP3c,001,2025-08-04_18h58.14.520,continuous_performance_test,2024.2.4,MacIntel,59.88023952,af1bdd26-a6ec-44eb-9e2d-1c76b0140555,4,629.4856,631.2849,space,1,0.3131,,0,20,20,16,1,Q,space,,,,,,,,,,
,,,,,R_95QHNdZ2cS7FP3c,001,2025-08-04_18h58.14.520,continuous_performance_test,2024.2.4,MacIntel,59.88023952,af1bdd26-a6ec-44eb-9e2d-1c76b0140555,4,631.2868,632.9348,space,1,0.4366,,0,21,21,22,1,W,space,,,,,,,,,,
,,,,,R_95QHNdZ2cS7FP3c,001,2025-08-04_18h58.14.520,continuous_performance_test,2024.2.4,MacIntel,59.88023952,af1bdd26-a6ec-44eb-9e2d-1c76b0140555,4,632.9366,634.8851,space,1,0.5206,,0,22,22,10,1,K,space,,,,,,,,,,
,,,,,R_95QHNdZ2cS7FP3c,001,2025-08-04_18h58.14.520,continuous_performance_test,2024.2.4,MacIntel,59.88023952,af1bdd26-a6ec-44eb-9e2d-1c76b0140555,4,634.8869,636.4351,space,1,0.4833,,0,23,23,18,1,S,space,,,,,,,,,,
,,,,,R_95QHNdZ2cS7FP3c,001,2025-08-04_18h58.14.520,continuous_performance_test,2024.2.4,MacIntel,59.88023952,af1bdd26-a6ec-44eb-9e2d-1c76b0140555,4,636.4369,638.2855,space,1,0.3283,,0,24,24,13,1,N,space,,,,,,,,,,
,,,,,R_95QHNdZ2cS7FP3c,001,2025-08-04_18h58.14.520,continuous_performance_test,2024.2.4,MacIntel,59.88023952,af1bdd26-a6ec-44eb-9e2d-1c76b0140555,4,638.2872,639.9849,space,1,0.4076,,0,25,25,15,1,P,space,,,,,,,,,,
,,,,,R_95QHNdZ2cS7FP3c,001,2025-08-04_18h58.14.520,continuous_performance_test,2024.2.4,MacIntel,59.88023952,af1bdd26-a6ec-44eb-9e2d-1c76b0140555,4,639.9871,641.6859,space,1,0.454,,0,26,26,7,1,H,space,,,,,,,,,,
,,,,,R_95QHNdZ2cS7FP3c,001,2025-08-04_18h58.14.520,continuous_performance_test,2024.2.4,MacIntel,59.88023952,af1bdd26-a6ec-44eb-9e2d-1c76b0140555,4,641.6885,643.4359,space,1,0.4149,,0,27,27,5,1,F,space,,,,,,,,,,
,,,,,R_95QHNdZ2cS7FP3c,001,2025-08-04_18h58.14.520,continuous_performance_test,2024.2.4,MacIntel,59.88023952,af1bdd26-a6ec-44eb-9e2d-1c76b0140555,4,643.4377,644.9848,space,1,0.4812,,0,28,28,6,1,G,space,,,,,,,,,,
,,,,,R_95QHNdZ2cS7FP3c,001,2025-08-04_18h58.14.520,continuous_performance_test,2024.2.4,MacIntel,59.88023952,af1bdd26-a6ec-44eb-9e2d-1c76b0140555,4,644.9867,646.8351,,1,,,0,29,29,28,1,X,,,,,,,,,,,
,,,,,R_95QHNdZ2cS7FP3c,001,2025-08-04_18h58.14.520,continuous_performance_test,2024.2.4,MacIntel,59.88023952,af1bdd26-a6ec-44eb-9e2d-1c76b0140555,4,,,,,,,,,,,,,,646.8369,646.8379,,,,646.8382,651.253,space,4.3903,
