Instructions.started,Instructions.stopped,key_resp.keys,key_resp.rt,key_resp.duration,participant,session,date,expName,psychopyVersion,OS,frameRate,realeye-tester-id,realeye-tester-quality_grade,Trial_noX.started,Trial_noX.stopped,response.keys,response.corr,response.rt,response.duration,trials_noX.thisRepN,trials_noX.thisTrialN,trials_noX.thisN,trials_noX.thisIndex,trials_noX.ran,letter,corrAns,BlockBreak.started,BlockBreak.stopped,key_instruct.keys,key_instruct.rt,key_instruct.duration,End_NoX.started,End_NoX.stopped,key_resp_end_noX.keys,key_resp_end_noX.rt,key_resp_end_noX.duration
0.0003,23.7032,space,23.6801,,R_97PUwAZE9KbMe7d,001,2025-08-03_09h53.57.562,continuous_performance_test,2024.2.4,Win32,142.8571429,af687d87-e30c-4236-b3eb-061ff0b46d33,4,,,,,,,,,,,,,,,,,,,,,,,
,,,,,R_97PUwAZE9KbMe7d,001,2025-08-03_09h53.57.562,continuous_performance_test,2024.2.4,Win32,142.8571429,af687d87-e30c-4236-b3eb-061ff0b46d33,4,23.7254,25.4725,space,1,0.3973,,0,0,0,22,1,W,space,,,,,,,,,,
,,,,,R_97PUwAZE9KbMe7d,001,2025-08-03_09h53.57.562,continuous_performance_test,2024.2.4,Win32,142.8571429,af687d87-e30c-4236-b3eb-061ff0b46d33,4,25.4743,27.4717,space,1,0.2581,,0,1,1,3,1,D,space,,,,,,,,,,
,,,,,R_97PUwAZE9KbMe7d,001,2025-08-03_09h53.57.562,continuous_performance_test,2024.2.4,Win32,142.8571429,af687d87-e30c-4236-b3eb-061ff0b46d33,4,27.4737,29.3673,space,1,0.2931,,0,2,2,6,1,G,space,,,,,,,,,,
,,,,,R_97PUwAZE9KbMe7d,001,2025-08-03_09h53.57.562,continuous_performance_test,2024.2.4,Win32,142.8571429,af687d87-e30c-4236-b3eb-061ff0b46d33,4,29.3698,31.3669,space,1,0.2642,,0,3,3,24,1,Z,space,,,,,,,,,,
,,,,,R_97PUwAZE9KbMe7d,001,2025-08-03_09h53.57.562,continuous_performance_test,2024.2.4,Win32,142.8571429,af687d87-e30c-4236-b3eb-061ff0b46d33,4,31.3696,33.214,space,1,0.3347,,0,4,4,11,1,L,space,,,,,,,,,,
,,,,,R_97PUwAZE9KbMe7d,001,2025-08-03_09h53.57.562,continuous_performance_test,2024.2.4,Win32,142.8571429,af687d87-e30c-4236-b3eb-061ff0b46d33,4,33.2161,35.0122,space,0,0.2791,,0,5,5,29,1,X,,,,,,,,,,,
,,,,,R_97PUwAZE9KbMe7d,001,2025-08-03_09h53.57.562,continuous_performance_test,2024.2.4,Win32,142.8571429,af687d87-e30c-4236-b3eb-061ff0b46d33,4,35.0145,36.7622,space,1,0.4322,,0,6,6,12,1,M,space,,,,,,,,,,
,,,,,R_97PUwAZE9KbMe7d,001,2025-08-03_09h53.57.562,continuous_performance_test,2024.2.4,Win32,142.8571429,af687d87-e30c-4236-b3eb-061ff0b46d33,4,36.7651,38.7619,space,1,0.3207,,0,7,7,13,1,N,space,,,,,,,,,,
,,,,,R_97PUwAZE9KbMe7d,001,2025-08-03_09h53.57.562,continuous_performance_test,2024.2.4,Win32,142.8571429,af687d87-e30c-4236-b3eb-061ff0b46d33,4,38.7641,40.463,,1,,,0,8,8,25,1,X,,,,,,,,,,,
,,,,,R_97PUwAZE9KbMe7d,001,2025-08-03_09h53.57.562,continuous_performance_test,2024.2.4,Win32,142.8571429,af687d87-e30c-4236-b3eb-061ff0b46d33,4,40.4656,42.3099,space,1,0.3418,,0,9,9,1,1,B,space,,,,,,,,,,
,,,,,R_97PUwAZE9KbMe7d,001,2025-08-03_09h53.57.562,continuous_performance_test,2024.2.4,Win32,142.8571429,af687d87-e30c-4236-b3eb-061ff0b46d33,4,42.312,44.2613,space,1,0.2799,,0,10,10,4,1,E,space,,,,,,,,,,
,,,,,R_97PUwAZE9KbMe7d,001,2025-08-03_09h53.57.562,continuous_performance_test,2024.2.4,Win32,142.8571429,af687d87-e30c-4236-b3eb-061ff0b46d33,4,44.2638,46.108,space,1,0.4116,,0,11,11,2,1,C,space,,,,,,,,,,
,,,,,R_97PUwAZE9KbMe7d,001,2025-08-03_09h53.57.562,continuous_performance_test,2024.2.4,Win32,142.8571429,af687d87-e30c-4236-b3eb-061ff0b46d33,4,46.1101,47.7052,space,1,0.3533,,0,12,12,19,1,T,space,,,,,,,,,,
,,,,,R_97PUwAZE9KbMe7d,001,2025-08-03_09h53.57.562,continuous_performance_test,2024.2.4,Win32,142.8571429,af687d87-e30c-4236-b3eb-061ff0b46d33,4,47.7074,49.4551,space,1,0.44,,0,13,13,23,1,Y,space,,,,,,,,,,
,,,,,R_97PUwAZE9KbMe7d,001,2025-08-03_09h53.57.562,continuous_performance_test,2024.2.4,Win32,142.8571429,af687d87-e30c-4236-b3eb-061ff0b46d33,4,49.4578,51.4548,space,1,0.2797,,0,14,14,5,1,F,space,,,,,,,,,,
,,,,,R_97PUwAZE9KbMe7d,001,2025-08-03_09h53.57.562,continuous_performance_test,2024.2.4,Win32,142.8571429,af687d87-e30c-4236-b3eb-061ff0b46d33,4,51.4574,53.003,space,1,0.2926,,0,15,15,17,1,R,space,,,,,,,,,,
,,,,,R_97PUwAZE9KbMe7d,001,2025-08-03_09h53.57.562,continuous_performance_test,2024.2.4,Win32,142.8571429,af687d87-e30c-4236-b3eb-061ff0b46d33,4,53.0052,55.0027,space,1,0.2163,,0,16,16,0,1,A,space,,,,,,,,,,
,,,,,R_97PUwAZE9KbMe7d,001,2025-08-03_09h53.57.562,continuous_performance_test,2024.2.4,Win32,142.8571429,af687d87-e30c-4236-b3eb-061ff0b46d33,4,55.0048,56.5512,space,1,0.2496,,0,17,17,15,1,P,space,,,,,,,,,,
,,,,,R_97PUwAZE9KbMe7d,001,2025-08-03_09h53.57.562,continuous_performance_test,2024.2.4,Win32,142.8571429,af687d87-e30c-4236-b3eb-061ff0b46d33,4,56.5532,58.0994,space,1,0.3252,,0,18,18,20,1,U,space,,,,,,,,,,
,,,,,R_97PUwAZE9KbMe7d,001,2025-08-03_09h53.57.562,continuous_performance_test,2024.2.4,Win32,142.8571429,af687d87-e30c-4236-b3eb-061ff0b46d33,4,58.1012,60.0509,space,0,0.2249,,0,19,19,27,1,X,,,,,,,,,,,
,,,,,R_97PUwAZE9KbMe7d,001,2025-08-03_09h53.57.562,continuous_performance_test,2024.2.4,Win32,142.8571429,af687d87-e30c-4236-b3eb-061ff0b46d33,4,60.0537,61.9533,space,1,0.259,,0,20,20,9,1,J,space,,,,,,,,,,
,,,,,R_97PUwAZE9KbMe7d,001,2025-08-03_09h53.57.562,continuous_performance_test,2024.2.4,Win32,142.8571429,af687d87-e30c-4236-b3eb-061ff0b46d33,4,61.9552,63.6058,space,1,0.2924,,0,21,21,16,1,Q,space,,,,,,,,,,
,,,,,R_97PUwAZE9KbMe7d,001,2025-08-03_09h53.57.562,continuous_performance_test,2024.2.4,Win32,142.8571429,af687d87-e30c-4236-b3eb-061ff0b46d33,4,63.6081,65.453,space,1,0.2517,,0,22,22,7,1,H,space,,,,,,,,,,
,,,,,R_97PUwAZE9KbMe7d,001,2025-08-03_09h53.57.562,continuous_performance_test,2024.2.4,Win32,142.8571429,af687d87-e30c-4236-b3eb-061ff0b46d33,4,65.4557,67.1538,space,1,0.3413,,0,23,23,14,1,O,space,,,,,,,,,,
,,,,,R_97PUwAZE9KbMe7d,001,2025-08-03_09h53.57.562,continuous_performance_test,2024.2.4,Win32,142.8571429,af687d87-e30c-4236-b3eb-061ff0b46d33,4,67.1561,68.9542,space,1,0.3418,,0,24,24,10,1,K,space,,,,,,,,,,
,,,,,R_97PUwAZE9KbMe7d,001,2025-08-03_09h53.57.562,continuous_performance_test,2024.2.4,Win32,142.8571429,af687d87-e30c-4236-b3eb-061ff0b46d33,4,68.9557,70.7021,space,1,0.3342,,0,25,25,21,1,V,space,,,,,,,,,,
,,,,,R_97PUwAZE9KbMe7d,001,2025-08-03_09h53.57.562,continuous_performance_test,2024.2.4,Win32,142.8571429,af687d87-e30c-4236-b3eb-061ff0b46d33,4,70.7041,72.6534,space,1,0.3409,,0,26,26,18,1,S,space,,,,,,,,,,
,,,,,R_97PUwAZE9KbMe7d,001,2025-08-03_09h53.57.562,continuous_performance_test,2024.2.4,Win32,142.8571429,af687d87-e30c-4236-b3eb-061ff0b46d33,4,72.6553,74.306,space,0,0.3491,,0,27,27,28,1,X,,,,,,,,,,,
,,,,,R_97PUwAZE9KbMe7d,001,2025-08-03_09h53.57.562,continuous_performance_test,2024.2.4,Win32,142.8571429,af687d87-e30c-4236-b3eb-061ff0b46d33,4,74.3074,76.257,space,0,0.2563,,0,28,28,26,1,X,,,,,,,,,,,
,,,,,R_97PUwAZE9KbMe7d,001,2025-08-03_09h53.57.562,continuous_performance_test,2024.2.4,Win32,142.8571429,af687d87-e30c-4236-b3eb-061ff0b46d33,4,76.2592,77.8054,space,1,0.5352,,0,29,29,8,1,I,space,,,,,,,,,,
,,,,,R_97PUwAZE9KbMe7d,001,2025-08-03_09h53.57.562,continuous_performance_test,2024.2.4,Win32,142.8571429,af687d87-e30c-4236-b3eb-061ff0b46d33,4,92.815,94.4144,,0,,,0,0,0,14,1,O,space,77.8065,92.8038,,,,,,,,
,,,,,R_97PUwAZE9KbMe7d,001,2025-08-03_09h53.57.562,continuous_performance_test,2024.2.4,Win32,142.8571429,af687d87-e30c-4236-b3eb-061ff0b46d33,4,94.4164,96.3653,space,1,0.3482,,0,1,1,16,1,Q,space,,,,,,,,,,
,,,,,R_97PUwAZE9KbMe7d,001,2025-08-03_09h53.57.562,continuous_performance_test,2024.2.4,Win32,142.8571429,af687d87-e30c-4236-b3eb-061ff0b46d33,4,96.3669,97.9138,space,1,0.3774,,0,2,2,2,1,C,space,,,,,,,,,,
,,,,,R_97PUwAZE9KbMe7d,001,2025-08-03_09h53.57.562,continuous_performance_test,2024.2.4,Win32,142.8571429,af687d87-e30c-4236-b3eb-061ff0b46d33,4,97.9155,99.9135,space,1,0.445,,0,3,3,21,1,V,space,,,,,,,,,,
,,,,,R_97PUwAZE9KbMe7d,001,2025-08-03_09h53.57.562,continuous_performance_test,2024.2.4,Win32,142.8571429,af687d87-e30c-4236-b3eb-061ff0b46d33,4,99.9153,101.9134,space,0,0.3057,,0,4,4,25,1,X,,,,,,,,,,,
,,,,,R_97PUwAZE9KbMe7d,001,2025-08-03_09h53.57.562,continuous_performance_test,2024.2.4,Win32,142.8571429,af687d87-e30c-4236-b3eb-061ff0b46d33,4,101.915,103.6095,space,1,0.26,,0,5,5,15,1,P,space,,,,,,,,,,
,,,,,R_97PUwAZE9KbMe7d,001,2025-08-03_09h53.57.562,continuous_performance_test,2024.2.4,Win32,142.8571429,af687d87-e30c-4236-b3eb-061ff0b46d33,4,103.6105,105.2603,space,1,0.3755,,0,6,6,23,1,Y,space,,,,,,,,,,
,,,,,R_97PUwAZE9KbMe7d,001,2025-08-03_09h53.57.562,continuous_performance_test,2024.2.4,Win32,142.8571429,af687d87-e30c-4236-b3eb-061ff0b46d33,4,105.262,107.107,space,1,0.3343,,0,7,7,19,1,T,space,,,,,,,,,,
,,,,,R_97PUwAZE9KbMe7d,001,2025-08-03_09h53.57.562,continuous_performance_test,2024.2.4,Win32,142.8571429,af687d87-e30c-4236-b3eb-061ff0b46d33,4,107.1087,109.0585,space,1,0.4941,,0,8,8,12,1,M,space,,,,,,,,,,
,,,,,R_97PUwAZE9KbMe7d,001,2025-08-03_09h53.57.562,continuous_performance_test,2024.2.4,Win32,142.8571429,af687d87-e30c-4236-b3eb-061ff0b46d33,4,109.0599,110.8568,,1,,,0,9,9,26,1,X,,,,,,,,,,,
,,,,,R_97PUwAZE9KbMe7d,001,2025-08-03_09h53.57.562,continuous_performance_test,2024.2.4,Win32,142.8571429,af687d87-e30c-4236-b3eb-061ff0b46d33,4,110.8585,112.6064,space,1,0.3547,,0,10,10,24,1,Z,space,,,,,,,,,,
,,,,,R_97PUwAZE9KbMe7d,001,2025-08-03_09h53.57.562,continuous_performance_test,2024.2.4,Win32,142.8571429,af687d87-e30c-4236-b3eb-061ff0b46d33,4,112.608,114.2593,space,1,0.32,,0,11,11,7,1,H,space,,,,,,,,,,
,,,,,R_97PUwAZE9KbMe7d,001,2025-08-03_09h53.57.562,continuous_performance_test,2024.2.4,Win32,142.8571429,af687d87-e30c-4236-b3eb-061ff0b46d33,4,114.2606,115.9601,space,1,0.3893,,0,12,12,5,1,F,space,,,,,,,,,,
,,,,,R_97PUwAZE9KbMe7d,001,2025-08-03_09h53.57.562,continuous_performance_test,2024.2.4,Win32,142.8571429,af687d87-e30c-4236-b3eb-061ff0b46d33,4,115.9617,117.8072,space,1,0.4106,,0,13,13,3,1,D,space,,,,,,,,,,
,,,,,R_97PUwAZE9KbMe7d,001,2025-08-03_09h53.57.562,continuous_performance_test,2024.2.4,Win32,142.8571429,af687d87-e30c-4236-b3eb-061ff0b46d33,4,117.8087,119.3555,space,1,0.3412,,0,14,14,20,1,U,space,,,,,,,,,,
,,,,,R_97PUwAZE9KbMe7d,001,2025-08-03_09h53.57.562,continuous_performance_test,2024.2.4,Win32,142.8571429,af687d87-e30c-4236-b3eb-061ff0b46d33,4,119.3572,121.1053,space,1,0.3023,,0,15,15,11,1,L,space,,,,,,,,,,
,,,,,R_97PUwAZE9KbMe7d,001,2025-08-03_09h53.57.562,continuous_performance_test,2024.2.4,Win32,142.8571429,af687d87-e30c-4236-b3eb-061ff0b46d33,4,121.107,123.0079,space,1,0.3693,,0,16,16,4,1,E,space,,,,,,,,,,
,,,,,R_97PUwAZE9KbMe7d,001,2025-08-03_09h53.57.562,continuous_performance_test,2024.2.4,Win32,142.8571429,af687d87-e30c-4236-b3eb-061ff0b46d33,4,123.0094,124.9104,space,1,0.2718,,0,17,17,9,1,J,space,,,,,,,,,,
,,,,,R_97PUwAZE9KbMe7d,001,2025-08-03_09h53.57.562,continuous_performance_test,2024.2.4,Win32,142.8571429,af687d87-e30c-4236-b3eb-061ff0b46d33,4,124.912,126.4587,space,1,0.3895,,0,18,18,22,1,W,space,,,,,,,,,,
,,,,,R_97PUwAZE9KbMe7d,001,2025-08-03_09h53.57.562,continuous_performance_test,2024.2.4,Win32,142.8571429,af687d87-e30c-4236-b3eb-061ff0b46d33,4,126.4603,128.4099,space,1,0.2811,,0,19,19,18,1,S,space,,,,,,,,,,
,,,,,R_97PUwAZE9KbMe7d,001,2025-08-03_09h53.57.562,continuous_performance_test,2024.2.4,Win32,142.8571429,af687d87-e30c-4236-b3eb-061ff0b46d33,4,128.4115,130.361,space,0,0.2859,,0,20,20,28,1,X,,,,,,,,,,,
,,,,,R_97PUwAZE9KbMe7d,001,2025-08-03_09h53.57.562,continuous_performance_test,2024.2.4,Win32,142.8571429,af687d87-e30c-4236-b3eb-061ff0b46d33,4,130.3625,132.312,space,1,0.3339,,0,21,21,1,1,B,space,,,,,,,,,,
,,,,,R_97PUwAZE9KbMe7d,001,2025-08-03_09h53.57.562,continuous_performance_test,2024.2.4,Win32,142.8571429,af687d87-e30c-4236-b3eb-061ff0b46d33,4,132.3137,134.0131,space,1,0.3426,,0,22,22,8,1,I,space,,,,,,,,,,
,,,,,R_97PUwAZE9KbMe7d,001,2025-08-03_09h53.57.562,continuous_performance_test,2024.2.4,Win32,142.8571429,af687d87-e30c-4236-b3eb-061ff0b46d33,4,134.0147,135.7631,,1,,,0,23,23,27,1,X,,,,,,,,,,,
,,,,,R_97PUwAZE9KbMe7d,001,2025-08-03_09h53.57.562,continuous_performance_test,2024.2.4,Win32,142.8571429,af687d87-e30c-4236-b3eb-061ff0b46d33,4,135.7647,137.7143,space,1,0.2582,,0,24,24,17,1,R,space,,,,,,,,,,
,,,,,R_97PUwAZE9KbMe7d,001,2025-08-03_09h53.57.562,continuous_performance_test,2024.2.4,Win32,142.8571429,af687d87-e30c-4236-b3eb-061ff0b46d33,4,137.7159,139.4639,space,1,0.2859,,0,25,25,0,1,A,space,,,,,,,,,,
,,,,,R_97PUwAZE9KbMe7d,001,2025-08-03_09h53.57.562,continuous_performance_test,2024.2.4,Win32,142.8571429,af687d87-e30c-4236-b3eb-061ff0b46d33,4,139.4656,141.2136,space,1,0.3272,,0,26,26,6,1,G,space,,,,,,,,,,
,,,,,R_97PUwAZE9KbMe7d,001,2025-08-03_09h53.57.562,continuous_performance_test,2024.2.4,Win32,142.8571429,af687d87-e30c-4236-b3eb-061ff0b46d33,4,141.2153,143.1652,space,1,0.4107,,0,27,27,13,1,N,space,,,,,,,,,,
,,,,,R_97PUwAZE9KbMe7d,001,2025-08-03_09h53.57.562,continuous_performance_test,2024.2.4,Win32,142.8571429,af687d87-e30c-4236-b3eb-061ff0b46d33,4,143.1672,144.9632,,1,,,0,28,28,29,1,X,,,,,,,,,,,
,,,,,R_97PUwAZE9KbMe7d,001,2025-08-03_09h53.57.562,continuous_performance_test,2024.2.4,Win32,142.8571429,af687d87-e30c-4236-b3eb-061ff0b46d33,4,144.9649,146.7619,space,1,0.3551,,0,29,29,10,1,K,space,,,,,,,,,,
,,,,,R_97PUwAZE9KbMe7d,001,2025-08-03_09h53.57.562,continuous_performance_test,2024.2.4,Win32,142.8571429,af687d87-e30c-4236-b3eb-061ff0b46d33,4,154.3287,156.2744,space,1,0.3133,,0,0,0,3,1,D,space,146.7633,154.3234,space,7.5483,,,,,,
,,,,,R_97PUwAZE9KbMe7d,001,2025-08-03_09h53.57.562,continuous_performance_test,2024.2.4,Win32,142.8571429,af687d87-e30c-4236-b3eb-061ff0b46d33,4,156.2758,158.0245,space,1,0.427,,0,1,1,10,1,K,space,,,,,,,,,,
,,,,,R_97PUwAZE9KbMe7d,001,2025-08-03_09h53.57.562,continuous_performance_test,2024.2.4,Win32,142.8571429,af687d87-e30c-4236-b3eb-061ff0b46d33,4,158.0265,159.5726,space,1,0.3479,,0,2,2,23,1,Y,space,,,,,,,,,,
,,,,,R_97PUwAZE9KbMe7d,001,2025-08-03_09h53.57.562,continuous_performance_test,2024.2.4,Win32,142.8571429,af687d87-e30c-4236-b3eb-061ff0b46d33,4,159.5741,161.3226,space,1,0.3138,,0,3,3,16,1,Q,space,,,,,,,,,,
,,,,,R_97PUwAZE9KbMe7d,001,2025-08-03_09h53.57.562,continuous_performance_test,2024.2.4,Win32,142.8571429,af687d87-e30c-4236-b3eb-061ff0b46d33,4,161.3243,163.2185,space,1,0.4036,,0,4,4,0,1,A,space,,,,,,,,,,
,,,,,R_97PUwAZE9KbMe7d,001,2025-08-03_09h53.57.562,continuous_performance_test,2024.2.4,Win32,142.8571429,af687d87-e30c-4236-b3eb-061ff0b46d33,4,163.2198,164.8705,space,1,0.3362,,0,5,5,15,1,P,space,,,,,,,,,,
,,,,,R_97PUwAZE9KbMe7d,001,2025-08-03_09h53.57.562,continuous_performance_test,2024.2.4,Win32,142.8571429,af687d87-e30c-4236-b3eb-061ff0b46d33,4,164.8719,166.8235,space,1,0.3216,,0,6,6,18,1,S,space,,,,,,,,,,
,,,,,R_97PUwAZE9KbMe7d,001,2025-08-03_09h53.57.562,continuous_performance_test,2024.2.4,Win32,142.8571429,af687d87-e30c-4236-b3eb-061ff0b46d33,4,166.8245,168.6689,space,1,0.313,,0,7,7,9,1,J,space,,,,,,,,,,
,,,,,R_97PUwAZE9KbMe7d,001,2025-08-03_09h53.57.562,continuous_performance_test,2024.2.4,Win32,142.8571429,af687d87-e30c-4236-b3eb-061ff0b46d33,4,168.6702,170.6684,space,1,0.2997,,0,8,8,4,1,E,space,,,,,,,,,,
,,,,,R_97PUwAZE9KbMe7d,001,2025-08-03_09h53.57.562,continuous_performance_test,2024.2.4,Win32,142.8571429,af687d87-e30c-4236-b3eb-061ff0b46d33,4,170.67,172.5155,space,1,0.2788,,0,9,9,11,1,L,space,,,,,,,,,,
,,,,,R_97PUwAZE9KbMe7d,001,2025-08-03_09h53.57.562,continuous_performance_test,2024.2.4,Win32,142.8571429,af687d87-e30c-4236-b3eb-061ff0b46d33,4,172.5172,174.317,space,1,0.4173,,0,10,10,14,1,O,space,,,,,,,,,,
,,,,,R_97PUwAZE9KbMe7d,001,2025-08-03_09h53.57.562,continuous_performance_test,2024.2.4,Win32,142.8571429,af687d87-e30c-4236-b3eb-061ff0b46d33,4,174.3179,176.265,,1,,,0,11,11,25,1,X,,,,,,,,,,,
,,,,,R_97PUwAZE9KbMe7d,001,2025-08-03_09h53.57.562,continuous_performance_test,2024.2.4,Win32,142.8571429,af687d87-e30c-4236-b3eb-061ff0b46d33,4,176.2664,178.0107,space,1,0.3835,,0,12,12,12,1,M,space,,,,,,,,,,
,,,,,R_97PUwAZE9KbMe7d,001,2025-08-03_09h53.57.562,continuous_performance_test,2024.2.4,Win32,142.8571429,af687d87-e30c-4236-b3eb-061ff0b46d33,4,178.0116,179.5633,space,1,0.3541,,0,13,13,6,1,G,space,,,,,,,,,,
,,,,,R_97PUwAZE9KbMe7d,001,2025-08-03_09h53.57.562,continuous_performance_test,2024.2.4,Win32,142.8571429,af687d87-e30c-4236-b3eb-061ff0b46d33,4,179.5646,181.2606,space,1,0.2931,,0,14,14,13,1,N,space,,,,,,,,,,
,,,,,R_97PUwAZE9KbMe7d,001,2025-08-03_09h53.57.562,continuous_performance_test,2024.2.4,Win32,142.8571429,af687d87-e30c-4236-b3eb-061ff0b46d33,4,181.2616,183.1601,space,1,0.2856,,0,15,15,5,1,F,space,,,,,,,,,,
,,,,,R_97PUwAZE9KbMe7d,001,2025-08-03_09h53.57.562,continuous_performance_test,2024.2.4,Win32,142.8571429,af687d87-e30c-4236-b3eb-061ff0b46d33,4,183.1614,184.7081,space,1,0.3763,,0,16,16,8,1,I,space,,,,,,,,,,
,,,,,R_97PUwAZE9KbMe7d,001,2025-08-03_09h53.57.562,continuous_performance_test,2024.2.4,Win32,142.8571429,af687d87-e30c-4236-b3eb-061ff0b46d33,4,184.7097,186.6104,space,1,0.404,,0,17,17,2,1,C,space,,,,,,,,,,
,,,,,R_97PUwAZE9KbMe7d,001,2025-08-03_09h53.57.562,continuous_performance_test,2024.2.4,Win32,142.8571429,af687d87-e30c-4236-b3eb-061ff0b46d33,4,186.6121,188.4576,space,0,0.2798,,0,18,18,28,1,X,,,,,,,,,,,
,,,,,R_97PUwAZE9KbMe7d,001,2025-08-03_09h53.57.562,continuous_performance_test,2024.2.4,Win32,142.8571429,af687d87-e30c-4236-b3eb-061ff0b46d33,4,188.4592,190.1594,space,1,0.3343,,0,19,19,17,1,R,space,,,,,,,,,,
,,,,,R_97PUwAZE9KbMe7d,001,2025-08-03_09h53.57.562,continuous_performance_test,2024.2.4,Win32,142.8571429,af687d87-e30c-4236-b3eb-061ff0b46d33,4,190.1607,191.7072,space,1,0.294,,0,20,20,19,1,T,space,,,,,,,,,,
,,,,,R_97PUwAZE9KbMe7d,001,2025-08-03_09h53.57.562,continuous_performance_test,2024.2.4,Win32,142.8571429,af687d87-e30c-4236-b3eb-061ff0b46d33,4,191.7091,193.5054,space,1,0.271,,0,21,21,22,1,W,space,,,,,,,,,,
,,,,,R_97PUwAZE9KbMe7d,001,2025-08-03_09h53.57.562,continuous_performance_test,2024.2.4,Win32,142.8571429,af687d87-e30c-4236-b3eb-061ff0b46d33,4,193.5078,195.1024,space,1,0.2722,,0,22,22,1,1,B,space,,,,,,,,,,
,,,,,R_97PUwAZE9KbMe7d,001,2025-08-03_09h53.57.562,continuous_performance_test,2024.2.4,Win32,142.8571429,af687d87-e30c-4236-b3eb-061ff0b46d33,4,195.1041,197.0004,space,0,0.2507,,0,23,23,26,1,X,,,,,,,,,,,
,,,,,R_97PUwAZE9KbMe7d,001,2025-08-03_09h53.57.562,continuous_performance_test,2024.2.4,Win32,142.8571429,af687d87-e30c-4236-b3eb-061ff0b46d33,4,197.0015,198.6507,space,1,0.2999,,0,24,24,24,1,Z,space,,,,,,,,,,
,,,,,R_97PUwAZE9KbMe7d,001,2025-08-03_09h53.57.562,continuous_performance_test,2024.2.4,Win32,142.8571429,af687d87-e30c-4236-b3eb-061ff0b46d33,4,198.6524,200.5532,,1,,,0,25,25,27,1,X,,,,,,,,,,,
,,,,,R_97PUwAZE9KbMe7d,001,2025-08-03_09h53.57.562,continuous_performance_test,2024.2.4,Win32,142.8571429,af687d87-e30c-4236-b3eb-061ff0b46d33,4,200.5546,202.5534,space,1,0.2787,,0,26,26,7,1,H,space,,,,,,,,,,
,,,,,R_97PUwAZE9KbMe7d,001,2025-08-03_09h53.57.562,continuous_performance_test,2024.2.4,Win32,142.8571429,af687d87-e30c-4236-b3eb-061ff0b46d33,4,202.5556,204.1015,space,1,0.4826,,0,27,27,21,1,V,space,,,,,,,,,,
,,,,,R_97PUwAZE9KbMe7d,001,2025-08-03_09h53.57.562,continuous_performance_test,2024.2.4,Win32,142.8571429,af687d87-e30c-4236-b3eb-061ff0b46d33,4,204.103,206.0039,,1,,,0,28,28,29,1,X,,,,,,,,,,,
,,,,,R_97PUwAZE9KbMe7d,001,2025-08-03_09h53.57.562,continuous_performance_test,2024.2.4,Win32,142.8571429,af687d87-e30c-4236-b3eb-061ff0b46d33,4,206.0059,208.0037,space,1,0.3218,,0,29,29,20,1,U,space,,,,,,,,,,
,,,,,R_97PUwAZE9KbMe7d,001,2025-08-03_09h53.57.562,continuous_performance_test,2024.2.4,Win32,142.8571429,af687d87-e30c-4236-b3eb-061ff0b46d33,4,214.4884,216.0373,space,1,0.3878,,0,0,0,11,1,L,space,208.0051,214.4822,space,6.4667,,,,,,
,,,,,R_97PUwAZE9KbMe7d,001,2025-08-03_09h53.57.562,continuous_performance_test,2024.2.4,Win32,142.8571429,af687d87-e30c-4236-b3eb-061ff0b46d33,4,216.0384,217.7386,space,1,0.3738,,0,1,1,16,1,Q,space,,,,,,,,,,
,,,,,R_97PUwAZE9KbMe7d,001,2025-08-03_09h53.57.562,continuous_performance_test,2024.2.4,Win32,142.8571429,af687d87-e30c-4236-b3eb-061ff0b46d33,4,217.7405,219.5852,space,0,0.2944,,0,2,2,29,1,X,,,,,,,,,,,
,,,,,R_97PUwAZE9KbMe7d,001,2025-08-03_09h53.57.562,continuous_performance_test,2024.2.4,Win32,142.8571429,af687d87-e30c-4236-b3eb-061ff0b46d33,4,219.5867,221.585,space,1,0.2432,,0,3,3,5,1,F,space,,,,,,,,,,
,,,,,R_97PUwAZE9KbMe7d,001,2025-08-03_09h53.57.562,continuous_performance_test,2024.2.4,Win32,142.8571429,af687d87-e30c-4236-b3eb-061ff0b46d33,4,221.5863,223.2306,space,1,0.3113,,0,4,4,19,1,T,space,,,,,,,,,,
,,,,,R_97PUwAZE9KbMe7d,001,2025-08-03_09h53.57.562,continuous_performance_test,2024.2.4,Win32,142.8571429,af687d87-e30c-4236-b3eb-061ff0b46d33,4,223.2319,225.2305,space,1,0.3325,,0,5,5,17,1,R,space,,,,,,,,,,
,,,,,R_97PUwAZE9KbMe7d,001,2025-08-03_09h53.57.562,continuous_performance_test,2024.2.4,Win32,142.8571429,af687d87-e30c-4236-b3eb-061ff0b46d33,4,225.2319,226.9314,space,1,0.3197,,0,6,6,1,1,B,space,,,,,,,,,,
,,,,,R_97PUwAZE9KbMe7d,001,2025-08-03_09h53.57.562,continuous_performance_test,2024.2.4,Win32,142.8571429,af687d87-e30c-4236-b3eb-061ff0b46d33,4,226.9326,228.9313,space,1,0.3394,,0,7,7,2,1,C,space,,,,,,,,,,
,,,,,R_97PUwAZE9KbMe7d,001,2025-08-03_09h53.57.562,continuous_performance_test,2024.2.4,Win32,142.8571429,af687d87-e30c-4236-b3eb-061ff0b46d33,4,228.9326,230.5283,space,1,0.6152,,0,8,8,21,1,V,space,,,,,,,,,,
,,,,,R_97PUwAZE9KbMe7d,001,2025-08-03_09h53.57.562,continuous_performance_test,2024.2.4,Win32,142.8571429,af687d87-e30c-4236-b3eb-061ff0b46d33,4,230.5295,232.1739,,1,,,0,9,9,28,1,X,,,,,,,,,,,
,,,,,R_97PUwAZE9KbMe7d,001,2025-08-03_09h53.57.562,continuous_performance_test,2024.2.4,Win32,142.8571429,af687d87-e30c-4236-b3eb-061ff0b46d33,4,232.1753,233.8197,space,1,0.395,,0,10,10,12,1,M,space,,,,,,,,,,
,,,,,R_97PUwAZE9KbMe7d,001,2025-08-03_09h53.57.562,continuous_performance_test,2024.2.4,Win32,142.8571429,af687d87-e30c-4236-b3eb-061ff0b46d33,4,233.821,235.5694,space,1,0.5267,,0,11,11,8,1,I,space,,,,,,,,,,
,,,,,R_97PUwAZE9KbMe7d,001,2025-08-03_09h53.57.562,continuous_performance_test,2024.2.4,Win32,142.8571429,af687d87-e30c-4236-b3eb-061ff0b46d33,4,235.5709,237.2149,space,1,0.5123,,0,12,12,24,1,Z,space,,,,,,,,,,
,,,,,R_97PUwAZE9KbMe7d,001,2025-08-03_09h53.57.562,continuous_performance_test,2024.2.4,Win32,142.8571429,af687d87-e30c-4236-b3eb-061ff0b46d33,4,237.2165,238.9647,,1,,,0,13,13,27,1,X,,,,,,,,,,,
,,,,,R_97PUwAZE9KbMe7d,001,2025-08-03_09h53.57.562,continuous_performance_test,2024.2.4,Win32,142.8571429,af687d87-e30c-4236-b3eb-061ff0b46d33,4,238.966,240.7632,space,1,0.2971,,0,14,14,20,1,U,space,,,,,,,,,,
,,,,,R_97PUwAZE9KbMe7d,001,2025-08-03_09h53.57.562,continuous_performance_test,2024.2.4,Win32,142.8571429,af687d87-e30c-4236-b3eb-061ff0b46d33,4,240.7645,242.6103,space,1,0.3397,,0,15,15,0,1,A,space,,,,,,,,,,
,,,,,R_97PUwAZE9KbMe7d,001,2025-08-03_09h53.57.562,continuous_performance_test,2024.2.4,Win32,142.8571429,af687d87-e30c-4236-b3eb-061ff0b46d33,4,242.6119,244.3114,space,1,0.2553,,0,16,16,22,1,W,space,,,,,,,,,,
,,,,,R_97PUwAZE9KbMe7d,001,2025-08-03_09h53.57.562,continuous_performance_test,2024.2.4,Win32,142.8571429,af687d87-e30c-4236-b3eb-061ff0b46d33,4,244.3128,246.1097,space,1,0.2973,,0,17,17,10,1,K,space,,,,,,,,,,
,,,,,R_97PUwAZE9KbMe7d,001,2025-08-03_09h53.57.562,continuous_performance_test,2024.2.4,Win32,142.8571429,af687d87-e30c-4236-b3eb-061ff0b46d33,4,246.1111,247.6581,space,0,0.2547,,0,18,18,26,1,X,,,,,,,,,,,
,,,,,R_97PUwAZE9KbMe7d,001,2025-08-03_09h53.57.562,continuous_performance_test,2024.2.4,Win32,142.8571429,af687d87-e30c-4236-b3eb-061ff0b46d33,4,247.6596,249.6577,space,1,0.249,,0,19,19,13,1,N,space,,,,,,,,,,
,,,,,R_97PUwAZE9KbMe7d,001,2025-08-03_09h53.57.562,continuous_performance_test,2024.2.4,Win32,142.8571429,af687d87-e30c-4236-b3eb-061ff0b46d33,4,249.6591,251.5538,space,1,0.3332,,0,20,20,15,1,P,space,,,,,,,,,,
,,,,,R_97PUwAZE9KbMe7d,001,2025-08-03_09h53.57.562,continuous_performance_test,2024.2.4,Win32,142.8571429,af687d87-e30c-4236-b3eb-061ff0b46d33,4,251.5556,253.2545,space,1,0.492,,0,21,21,7,1,H,space,,,,,,,,,,
,,,,,R_97PUwAZE9KbMe7d,001,2025-08-03_09h53.57.562,continuous_performance_test,2024.2.4,Win32,142.8571429,af687d87-e30c-4236-b3eb-061ff0b46d33,4,253.2559,254.9005,space,0,0.3033,,0,22,22,25,1,X,,,,,,,,,,,
,,,,,R_97PUwAZE9KbMe7d,001,2025-08-03_09h53.57.562,continuous_performance_test,2024.2.4,Win32,142.8571429,af687d87-e30c-4236-b3eb-061ff0b46d33,4,254.902,256.796,space,1,0.2781,,0,23,23,23,1,Y,space,,,,,,,,,,
,,,,,R_97PUwAZE9KbMe7d,001,2025-08-03_09h53.57.562,continuous_performance_test,2024.2.4,Win32,142.8571429,af687d87-e30c-4236-b3eb-061ff0b46d33,4,256.7976,258.7954,space,1,0.3198,,0,24,24,18,1,S,space,,,,,,,,,,
,,,,,R_97PUwAZE9KbMe7d,001,2025-08-03_09h53.57.562,continuous_performance_test,2024.2.4,Win32,142.8571429,af687d87-e30c-4236-b3eb-061ff0b46d33,4,258.7966,260.3931,space,1,0.4762,,0,25,25,6,1,G,space,,,,,,,,,,
,,,,,R_97PUwAZE9KbMe7d,001,2025-08-03_09h53.57.562,continuous_performance_test,2024.2.4,Win32,142.8571429,af687d87-e30c-4236-b3eb-061ff0b46d33,4,260.3946,262.1422,space,1,0.3323,,0,26,26,9,1,J,space,,,,,,,,,,
,,,,,R_97PUwAZE9KbMe7d,001,2025-08-03_09h53.57.562,continuous_performance_test,2024.2.4,Win32,142.8571429,af687d87-e30c-4236-b3eb-061ff0b46d33,4,262.1436,263.8919,space,1,0.5203,,0,27,27,4,1,E,space,,,,,,,,,,
,,,,,R_97PUwAZE9KbMe7d,001,2025-08-03_09h53.57.562,continuous_performance_test,2024.2.4,Win32,142.8571429,af687d87-e30c-4236-b3eb-061ff0b46d33,4,263.8932,265.739,space,1,0.4838,,0,28,28,14,1,O,space,,,,,,,,,,
,,,,,R_97PUwAZE9KbMe7d,001,2025-08-03_09h53.57.562,continuous_performance_test,2024.2.4,Win32,142.8571429,af687d87-e30c-4236-b3eb-061ff0b46d33,4,265.7401,267.4402,space,1,0.4246,,0,29,29,3,1,D,space,,,,,,,,,,
,,,,,R_97PUwAZE9KbMe7d,001,2025-08-03_09h53.57.562,continuous_performance_test,2024.2.4,Win32,142.8571429,af687d87-e30c-4236-b3eb-061ff0b46d33,4,269.9626,271.662,space,1,0.4249,,0,0,0,14,1,O,space,267.4417,269.9538,space,2.5043,,,,,,
,,,,,R_97PUwAZE9KbMe7d,001,2025-08-03_09h53.57.562,continuous_performance_test,2024.2.4,Win32,142.8571429,af687d87-e30c-4236-b3eb-061ff0b46d33,4,271.6637,273.2611,space,1,0.3971,,0,1,1,15,1,P,space,,,,,,,,,,
,,,,,R_97PUwAZE9KbMe7d,001,2025-08-03_09h53.57.562,continuous_performance_test,2024.2.4,Win32,142.8571429,af687d87-e30c-4236-b3eb-061ff0b46d33,4,273.2621,274.8662,space,1,0.3085,,0,2,2,0,1,A,space,,,,,,,,,,
,,,,,R_97PUwAZE9KbMe7d,001,2025-08-03_09h53.57.562,continuous_performance_test,2024.2.4,Win32,142.8571429,af687d87-e30c-4236-b3eb-061ff0b46d33,4,274.867,276.7659,space,1,0.2652,,0,3,3,5,1,F,space,,,,,,,,,,
,,,,,R_97PUwAZE9KbMe7d,001,2025-08-03_09h53.57.562,continuous_performance_test,2024.2.4,Win32,142.8571429,af687d87-e30c-4236-b3eb-061ff0b46d33,4,276.7675,278.7655,,1,,,0,4,4,27,1,X,,,,,,,,,,,
,,,,,R_97PUwAZE9KbMe7d,001,2025-08-03_09h53.57.562,continuous_performance_test,2024.2.4,Win32,142.8571429,af687d87-e30c-4236-b3eb-061ff0b46d33,4,278.7671,280.5151,space,1,0.2923,,0,5,5,7,1,H,space,,,,,,,,,,
,,,,,R_97PUwAZE9KbMe7d,001,2025-08-03_09h53.57.562,continuous_performance_test,2024.2.4,Win32,142.8571429,af687d87-e30c-4236-b3eb-061ff0b46d33,4,280.5167,282.2652,space,0,0.2929,,0,6,6,28,1,X,,,,,,,,,,,
,,,,,R_97PUwAZE9KbMe7d,001,2025-08-03_09h53.57.562,continuous_performance_test,2024.2.4,Win32,142.8571429,af687d87-e30c-4236-b3eb-061ff0b46d33,4,282.2666,283.8136,,1,,,0,7,7,25,1,X,,,,,,,,,,,
,,,,,R_97PUwAZE9KbMe7d,001,2025-08-03_09h53.57.562,continuous_performance_test,2024.2.4,Win32,142.8571429,af687d87-e30c-4236-b3eb-061ff0b46d33,4,283.8148,285.612,,1,,,0,8,8,29,1,X,,,,,,,,,,,
,,,,,R_97PUwAZE9KbMe7d,001,2025-08-03_09h53.57.562,continuous_performance_test,2024.2.4,Win32,142.8571429,af687d87-e30c-4236-b3eb-061ff0b46d33,4,285.614,287.5628,space,1,0.4101,,0,9,9,22,1,W,space,,,,,,,,,,
,,,,,R_97PUwAZE9KbMe7d,001,2025-08-03_09h53.57.562,continuous_performance_test,2024.2.4,Win32,142.8571429,af687d87-e30c-4236-b3eb-061ff0b46d33,4,287.5644,289.1116,space,1,0.4185,,0,10,10,24,1,Z,space,,,,,,,,,,
,,,,,R_97PUwAZE9KbMe7d,001,2025-08-03_09h53.57.562,continuous_performance_test,2024.2.4,Win32,142.8571429,af687d87-e30c-4236-b3eb-061ff0b46d33,4,289.1132,290.9582,space,1,0.3264,,0,11,11,16,1,Q,space,,,,,,,,,,
,,,,,R_97PUwAZE9KbMe7d,001,2025-08-03_09h53.57.562,continuous_performance_test,2024.2.4,Win32,142.8571429,af687d87-e30c-4236-b3eb-061ff0b46d33,4,290.9599,292.6593,space,1,0.3063,,0,12,12,6,1,G,space,,,,,,,,,,
,,,,,R_97PUwAZE9KbMe7d,001,2025-08-03_09h53.57.562,continuous_performance_test,2024.2.4,Win32,142.8571429,af687d87-e30c-4236-b3eb-061ff0b46d33,4,292.6611,294.3121,space,1,0.2801,,0,13,13,9,1,J,space,,,,,,,,,,
,,,,,R_97PUwAZE9KbMe7d,001,2025-08-03_09h53.57.562,continuous_performance_test,2024.2.4,Win32,142.8571429,af687d87-e30c-4236-b3eb-061ff0b46d33,4,294.3143,296.3118,space,0,0.2656,,0,14,14,26,1,X,,,,,,,,,,,
,,,,,R_97PUwAZE9KbMe7d,001,2025-08-03_09h53.57.562,continuous_performance_test,2024.2.4,Win32,142.8571429,af687d87-e30c-4236-b3eb-061ff0b46d33,4,296.3135,297.9641,space,1,0.3762,,0,15,15,19,1,T,space,,,,,,,,,,
,,,,,R_97PUwAZE9KbMe7d,001,2025-08-03_09h53.57.562,continuous_performance_test,2024.2.4,Win32,142.8571429,af687d87-e30c-4236-b3eb-061ff0b46d33,4,297.9656,299.6683,space,1,0.3555,,0,16,16,13,1,N,space,,,,,,,,,,
,,,,,R_97PUwAZE9KbMe7d,001,2025-08-03_09h53.57.562,continuous_performance_test,2024.2.4,Win32,142.8571429,af687d87-e30c-4236-b3eb-061ff0b46d33,4,299.6691,301.2695,space,1,0.2578,,0,17,17,21,1,V,space,,,,,,,,,,
,,,,,R_97PUwAZE9KbMe7d,001,2025-08-03_09h53.57.562,continuous_performance_test,2024.2.4,Win32,142.8571429,af687d87-e30c-4236-b3eb-061ff0b46d33,4,301.271,302.9705,space,1,0.2891,,0,18,18,18,1,S,space,,,,,,,,,,
,,,,,R_97PUwAZE9KbMe7d,001,2025-08-03_09h53.57.562,continuous_performance_test,2024.2.4,Win32,142.8571429,af687d87-e30c-4236-b3eb-061ff0b46d33,4,302.9726,304.7202,space,1,0.3017,,0,19,19,1,1,B,space,,,,,,,,,,
,,,,,R_97PUwAZE9KbMe7d,001,2025-08-03_09h53.57.562,continuous_performance_test,2024.2.4,Win32,142.8571429,af687d87-e30c-4236-b3eb-061ff0b46d33,4,304.7225,306.6228,space,1,0.2669,,0,20,20,8,1,I,space,,,,,,,,,,
,,,,,R_97PUwAZE9KbMe7d,001,2025-08-03_09h53.57.562,continuous_performance_test,2024.2.4,Win32,142.8571429,af687d87-e30c-4236-b3eb-061ff0b46d33,4,306.6243,308.6228,space,1,0.2511,,0,21,21,10,1,K,space,,,,,,,,,,
,,,,,R_97PUwAZE9KbMe7d,001,2025-08-03_09h53.57.562,continuous_performance_test,2024.2.4,Win32,142.8571429,af687d87-e30c-4236-b3eb-061ff0b46d33,4,308.6243,310.3266,space,1,0.3128,,0,22,22,2,1,C,space,,,,,,,,,,
,,,,,R_97PUwAZE9KbMe7d,001,2025-08-03_09h53.57.562,continuous_performance_test,2024.2.4,Win32,142.8571429,af687d87-e30c-4236-b3eb-061ff0b46d33,4,310.3275,311.9762,space,1,0.4956,,0,23,23,23,1,Y,space,,,,,,,,,,
,,,,,R_97PUwAZE9KbMe7d,001,2025-08-03_09h53.57.562,continuous_performance_test,2024.2.4,Win32,142.8571429,af687d87-e30c-4236-b3eb-061ff0b46d33,4,311.9779,313.5251,space,1,0.4608,,0,24,24,20,1,U,space,,,,,,,,,,
,,,,,R_97PUwAZE9KbMe7d,001,2025-08-03_09h53.57.562,continuous_performance_test,2024.2.4,Win32,142.8571429,af687d87-e30c-4236-b3eb-061ff0b46d33,4,313.5264,315.2753,space,1,0.3142,,0,25,25,3,1,D,space,,,,,,,,,,
,,,,,R_97PUwAZE9KbMe7d,001,2025-08-03_09h53.57.562,continuous_performance_test,2024.2.4,Win32,142.8571429,af687d87-e30c-4236-b3eb-061ff0b46d33,4,315.2763,317.0735,space,1,0.3048,,0,26,26,11,1,L,space,,,,,,,,,,
,,,,,R_97PUwAZE9KbMe7d,001,2025-08-03_09h53.57.562,continuous_performance_test,2024.2.4,Win32,142.8571429,af687d87-e30c-4236-b3eb-061ff0b46d33,4,317.0746,318.9203,space,1,0.2798,,0,27,27,4,1,E,space,,,,,,,,,,
,,,,,R_97PUwAZE9KbMe7d,001,2025-08-03_09h53.57.562,continuous_performance_test,2024.2.4,Win32,142.8571429,af687d87-e30c-4236-b3eb-061ff0b46d33,4,318.9227,320.621,space,1,0.3332,,0,28,28,12,1,M,space,,,,,,,,,,
,,,,,R_97PUwAZE9KbMe7d,001,2025-08-03_09h53.57.562,continuous_performance_test,2024.2.4,Win32,142.8571429,af687d87-e30c-4236-b3eb-061ff0b46d33,4,320.6227,322.1694,space,1,0.4109,,0,29,29,17,1,R,space,,,,,,,,,,
,,,,,R_97PUwAZE9KbMe7d,001,2025-08-03_09h53.57.562,continuous_performance_test,2024.2.4,Win32,142.8571429,af687d87-e30c-4236-b3eb-061ff0b46d33,4,335.8906,337.6421,space,1,0.2858,,0,0,0,13,1,N,space,322.1709,335.8831,space,13.7002,,,,,,
,,,,,R_97PUwAZE9KbMe7d,001,2025-08-03_09h53.57.562,continuous_performance_test,2024.2.4,Win32,142.8571429,af687d87-e30c-4236-b3eb-061ff0b46d33,4,337.6433,339.1899,space,1,0.3121,,0,1,1,2,1,C,space,,,,,,,,,,
,,,,,R_97PUwAZE9KbMe7d,001,2025-08-03_09h53.57.562,continuous_performance_test,2024.2.4,Win32,142.8571429,af687d87-e30c-4236-b3eb-061ff0b46d33,4,339.191,340.8406,space,1,0.2791,,0,2,2,7,1,H,space,,,,,,,,,,
,,,,,R_97PUwAZE9KbMe7d,001,2025-08-03_09h53.57.562,continuous_performance_test,2024.2.4,Win32,142.8571429,af687d87-e30c-4236-b3eb-061ff0b46d33,4,340.8424,342.3894,,1,,,0,3,3,28,1,X,,,,,,,,,,,
,,,,,R_97PUwAZE9KbMe7d,001,2025-08-03_09h53.57.562,continuous_performance_test,2024.2.4,Win32,142.8571429,af687d87-e30c-4236-b3eb-061ff0b46d33,4,342.3909,344.3889,space,1,0.2867,,0,4,4,4,1,E,space,,,,,,,,,,
,,,,,R_97PUwAZE9KbMe7d,001,2025-08-03_09h53.57.562,continuous_performance_test,2024.2.4,Win32,142.8571429,af687d87-e30c-4236-b3eb-061ff0b46d33,4,344.3903,346.3399,space,1,0.2505,,0,5,5,20,1,U,space,,,,,,,,,,
,,,,,R_97PUwAZE9KbMe7d,001,2025-08-03_09h53.57.562,continuous_performance_test,2024.2.4,Win32,142.8571429,af687d87-e30c-4236-b3eb-061ff0b46d33,4,346.3426,348.291,space,0,0.3274,,0,6,6,26,1,X,,,,,,,,,,,
,,,,,R_97PUwAZE9KbMe7d,001,2025-08-03_09h53.57.562,continuous_performance_test,2024.2.4,Win32,142.8571429,af687d87-e30c-4236-b3eb-061ff0b46d33,4,348.2926,349.8882,space,1,0.445,,0,7,7,23,1,Y,space,,,,,,,,,,
,,,,,R_97PUwAZE9KbMe7d,001,2025-08-03_09h53.57.562,continuous_performance_test,2024.2.4,Win32,142.8571429,af687d87-e30c-4236-b3eb-061ff0b46d33,4,349.8908,351.4852,space,1,0.399,,0,8,8,5,1,F,space,,,,,,,,,,
,,,,,R_97PUwAZE9KbMe7d,001,2025-08-03_09h53.57.562,continuous_performance_test,2024.2.4,Win32,142.8571429,af687d87-e30c-4236-b3eb-061ff0b46d33,4,351.4866,353.4328,space,1,0.4876,,0,9,9,11,1,L,space,,,,,,,,,,
,,,,,R_97PUwAZE9KbMe7d,001,2025-08-03_09h53.57.562,continuous_performance_test,2024.2.4,Win32,142.8571429,af687d87-e30c-4236-b3eb-061ff0b46d33,4,353.4339,355.2798,space,1,0.3707,,0,10,10,10,1,K,space,,,,,,,,,,
,,,,,R_97PUwAZE9KbMe7d,001,2025-08-03_09h53.57.562,continuous_performance_test,2024.2.4,Win32,142.8571429,af687d87-e30c-4236-b3eb-061ff0b46d33,4,355.281,357.2761,space,1,0.4937,,0,11,11,21,1,V,space,,,,,,,,,,
,,,,,R_97PUwAZE9KbMe7d,001,2025-08-03_09h53.57.562,continuous_performance_test,2024.2.4,Win32,142.8571429,af687d87-e30c-4236-b3eb-061ff0b46d33,4,357.2776,358.9248,space,1,0.5849,,0,12,12,22,1,W,space,,,,,,,,,,
,,,,,R_97PUwAZE9KbMe7d,001,2025-08-03_09h53.57.562,continuous_performance_test,2024.2.4,Win32,142.8571429,af687d87-e30c-4236-b3eb-061ff0b46d33,4,358.9257,360.9212,space,1,0.445,,0,13,13,1,1,B,space,,,,,,,,,,
,,,,,R_97PUwAZE9KbMe7d,001,2025-08-03_09h53.57.562,continuous_performance_test,2024.2.4,Win32,142.8571429,af687d87-e30c-4236-b3eb-061ff0b46d33,4,360.9228,362.5183,space,1,0.6432,,0,14,14,24,1,Z,space,,,,,,,,,,
,,,,,R_97PUwAZE9KbMe7d,001,2025-08-03_09h53.57.562,continuous_performance_test,2024.2.4,Win32,142.8571429,af687d87-e30c-4236-b3eb-061ff0b46d33,4,362.5199,364.0668,,1,,,0,15,15,25,1,X,,,,,,,,,,,
,,,,,R_97PUwAZE9KbMe7d,001,2025-08-03_09h53.57.562,continuous_performance_test,2024.2.4,Win32,142.8571429,af687d87-e30c-4236-b3eb-061ff0b46d33,4,364.0681,366.018,space,1,0.4458,,0,16,16,16,1,Q,space,,,,,,,,,,
,,,,,R_97PUwAZE9KbMe7d,001,2025-08-03_09h53.57.562,continuous_performance_test,2024.2.4,Win32,142.8571429,af687d87-e30c-4236-b3eb-061ff0b46d33,4,366.0195,367.716,space,1,0.5075,,0,17,17,12,1,M,space,,,,,,,,,,
,,,,,R_97PUwAZE9KbMe7d,001,2025-08-03_09h53.57.562,continuous_performance_test,2024.2.4,Win32,142.8571429,af687d87-e30c-4236-b3eb-061ff0b46d33,4,367.717,369.3648,space,1,0.4599,,0,18,18,18,1,S,space,,,,,,,,,,
,,,,,R_97PUwAZE9KbMe7d,001,2025-08-03_09h53.57.562,continuous_performance_test,2024.2.4,Win32,142.8571429,af687d87-e30c-4236-b3eb-061ff0b46d33,4,369.3665,370.9131,space,1,0.3333,,0,19,19,15,1,P,space,,,,,,,,,,
,,,,,R_97PUwAZE9KbMe7d,001,2025-08-03_09h53.57.562,continuous_performance_test,2024.2.4,Win32,142.8571429,af687d87-e30c-4236-b3eb-061ff0b46d33,4,370.9146,372.9128,space,1,0.3969,,0,20,20,3,1,D,space,,,,,,,,,,
,,,,,R_97PUwAZE9KbMe7d,001,2025-08-03_09h53.57.562,continuous_performance_test,2024.2.4,Win32,142.8571429,af687d87-e30c-4236-b3eb-061ff0b46d33,4,372.9143,374.6627,space,1,0.3085,,0,21,21,0,1,A,space,,,,,,,,,,
,,,,,R_97PUwAZE9KbMe7d,001,2025-08-03_09h53.57.562,continuous_performance_test,2024.2.4,Win32,142.8571429,af687d87-e30c-4236-b3eb-061ff0b46d33,4,374.6644,376.6105,space,1,0.4037,,0,22,22,9,1,J,space,,,,,,,,,,
,,,,,R_97PUwAZE9KbMe7d,001,2025-08-03_09h53.57.562,continuous_performance_test,2024.2.4,Win32,142.8571429,af687d87-e30c-4236-b3eb-061ff0b46d33,4,376.6117,378.3121,space,0,0.3509,,0,23,23,29,1,X,,,,,,,,,,,
,,,,,R_97PUwAZE9KbMe7d,001,2025-08-03_09h53.57.562,continuous_performance_test,2024.2.4,Win32,142.8571429,af687d87-e30c-4236-b3eb-061ff0b46d33,4,378.3137,380.308,space,1,0.405,,0,24,24,17,1,R,space,,,,,,,,,,
,,,,,R_97PUwAZE9KbMe7d,001,2025-08-03_09h53.57.562,continuous_performance_test,2024.2.4,Win32,142.8571429,af687d87-e30c-4236-b3eb-061ff0b46d33,4,380.3096,382.1549,space,1,0.4315,,0,25,25,6,1,G,space,,,,,,,,,,
,,,,,R_97PUwAZE9KbMe7d,001,2025-08-03_09h53.57.562,continuous_performance_test,2024.2.4,Win32,142.8571429,af687d87-e30c-4236-b3eb-061ff0b46d33,4,382.1573,384.106,space,1,0.4738,,0,26,26,8,1,I,space,,,,,,,,,,
,,,,,R_97PUwAZE9KbMe7d,001,2025-08-03_09h53.57.562,continuous_performance_test,2024.2.4,Win32,142.8571429,af687d87-e30c-4236-b3eb-061ff0b46d33,4,384.1074,386.0568,space,1,0.4723,,0,27,27,19,1,T,space,,,,,,,,,,
,,,,,R_97PUwAZE9KbMe7d,001,2025-08-03_09h53.57.562,continuous_performance_test,2024.2.4,Win32,142.8571429,af687d87-e30c-4236-b3eb-061ff0b46d33,4,386.0584,387.9596,space,1,0.341,,0,28,28,14,1,O,space,,,,,,,,,,
,,,,,R_97PUwAZE9KbMe7d,001,2025-08-03_09h53.57.562,continuous_performance_test,2024.2.4,Win32,142.8571429,af687d87-e30c-4236-b3eb-061ff0b46d33,4,387.9611,389.511,,1,,,0,29,29,27,1,X,,,,,,,,,,,
,,,,,R_97PUwAZE9KbMe7d,001,2025-08-03_09h53.57.562,continuous_performance_test,2024.2.4,Win32,142.8571429,af687d87-e30c-4236-b3eb-061ff0b46d33,4,404.5139,406.5126,space,1,0.2912,,0,0,0,6,1,G,space,389.5118,404.5061,,,,,,,,
,,,,,R_97PUwAZE9KbMe7d,001,2025-08-03_09h53.57.562,continuous_performance_test,2024.2.4,Win32,142.8571429,af687d87-e30c-4236-b3eb-061ff0b46d33,4,406.5143,408.214,space,1,0.2935,,0,1,1,13,1,N,space,,,,,,,,,,
,,,,,R_97PUwAZE9KbMe7d,001,2025-08-03_09h53.57.562,continuous_performance_test,2024.2.4,Win32,142.8571429,af687d87-e30c-4236-b3eb-061ff0b46d33,4,408.2154,410.2136,space,1,0.2652,,0,2,2,17,1,R,space,,,,,,,,,,
,,,,,R_97PUwAZE9KbMe7d,001,2025-08-03_09h53.57.562,continuous_performance_test,2024.2.4,Win32,142.8571429,af687d87-e30c-4236-b3eb-061ff0b46d33,4,410.2153,411.9147,space,1,0.3488,,0,3,3,18,1,S,space,,,,,,,,,,
,,,,,R_97PUwAZE9KbMe7d,001,2025-08-03_09h53.57.562,continuous_performance_test,2024.2.4,Win32,142.8571429,af687d87-e30c-4236-b3eb-061ff0b46d33,4,411.9163,413.6647,space,1,0.3202,,0,4,4,8,1,I,space,,,,,,,,,,
,,,,,R_97PUwAZE9KbMe7d,001,2025-08-03_09h53.57.562,continuous_performance_test,2024.2.4,Win32,142.8571429,af687d87-e30c-4236-b3eb-061ff0b46d33,4,413.6662,415.3171,space,0,0.2726,,0,5,5,29,1,X,,,,,,,,,,,
,,,,,R_97PUwAZE9KbMe7d,001,2025-08-03_09h53.57.562,continuous_performance_test,2024.2.4,Win32,142.8571429,af687d87-e30c-4236-b3eb-061ff0b46d33,4,415.3186,416.8654,space,1,0.39,,0,6,6,12,1,M,space,,,,,,,,,,
,,,,,R_97PUwAZE9KbMe7d,001,2025-08-03_09h53.57.562,continuous_performance_test,2024.2.4,Win32,142.8571429,af687d87-e30c-4236-b3eb-061ff0b46d33,4,416.8669,418.4141,space,1,0.3484,,0,7,7,4,1,E,space,,,,,,,,,,
,,,,,R_97PUwAZE9KbMe7d,001,2025-08-03_09h53.57.562,continuous_performance_test,2024.2.4,Win32,142.8571429,af687d87-e30c-4236-b3eb-061ff0b46d33,4,418.4159,420.3648,space,1,0.3909,,0,8,8,9,1,J,space,,,,,,,,,,
,,,,,R_97PUwAZE9KbMe7d,001,2025-08-03_09h53.57.562,continuous_performance_test,2024.2.4,Win32,142.8571429,af687d87-e30c-4236-b3eb-061ff0b46d33,4,420.3666,422.365,space,1,0.2866,,0,9,9,21,1,V,space,,,,,,,,,,
,,,,,R_97PUwAZE9KbMe7d,001,2025-08-03_09h53.57.562,continuous_performance_test,2024.2.4,Win32,142.8571429,af687d87-e30c-4236-b3eb-061ff0b46d33,4,422.3667,424.1631,space,1,0.3551,,0,10,10,0,1,A,space,,,,,,,,,,
,,,,,R_97PUwAZE9KbMe7d,001,2025-08-03_09h53.57.562,continuous_performance_test,2024.2.4,Win32,142.8571429,af687d87-e30c-4236-b3eb-061ff0b46d33,4,424.1647,425.9616,space,1,0.3482,,0,11,11,3,1,D,space,,,,,,,,,,
,,,,,R_97PUwAZE9KbMe7d,001,2025-08-03_09h53.57.562,continuous_performance_test,2024.2.4,Win32,142.8571429,af687d87-e30c-4236-b3eb-061ff0b46d33,4,425.9631,427.6626,space,1,0.3202,,0,12,12,2,1,C,space,,,,,,,,,,
,,,,,R_97PUwAZE9KbMe7d,001,2025-08-03_09h53.57.562,continuous_performance_test,2024.2.4,Win32,142.8571429,af687d87-e30c-4236-b3eb-061ff0b46d33,4,427.6643,429.5615,,1,,,0,13,13,26,1,X,,,,,,,,,,,
,,,,,R_97PUwAZE9KbMe7d,001,2025-08-03_09h53.57.562,continuous_performance_test,2024.2.4,Win32,142.8571429,af687d87-e30c-4236-b3eb-061ff0b46d33,4,429.5625,431.2111,space,1,0.4173,,0,14,14,16,1,Q,space,,,,,,,,,,
,,,,,R_97PUwAZE9KbMe7d,001,2025-08-03_09h53.57.562,continuous_performance_test,2024.2.4,Win32,142.8571429,af687d87-e30c-4236-b3eb-061ff0b46d33,4,431.2126,432.7593,space,1,0.397,,0,15,15,7,1,H,space,,,,,,,,,,
,,,,,R_97PUwAZE9KbMe7d,001,2025-08-03_09h53.57.562,continuous_performance_test,2024.2.4,Win32,142.8571429,af687d87-e30c-4236-b3eb-061ff0b46d33,4,432.7609,434.3563,,1,,,0,16,16,28,1,X,,,,,,,,,,,
,,,,,R_97PUwAZE9KbMe7d,001,2025-08-03_09h53.57.562,continuous_performance_test,2024.2.4,Win32,142.8571429,af687d87-e30c-4236-b3eb-061ff0b46d33,4,434.3578,436.106,space,1,0.4605,,0,17,17,22,1,W,space,,,,,,,,,,
,,,,,R_97PUwAZE9KbMe7d,001,2025-08-03_09h53.57.562,continuous_performance_test,2024.2.4,Win32,142.8571429,af687d87-e30c-4236-b3eb-061ff0b46d33,4,436.1076,438.0574,space,1,0.3974,,0,18,18,11,1,L,space,,,,,,,,,,
,,,,,R_97PUwAZE9KbMe7d,001,2025-08-03_09h53.57.562,continuous_performance_test,2024.2.4,Win32,142.8571429,af687d87-e30c-4236-b3eb-061ff0b46d33,4,438.059,439.6058,,1,,,0,19,19,27,1,X,,,,,,,,,,,
,,,,,R_97PUwAZE9KbMe7d,001,2025-08-03_09h53.57.562,continuous_performance_test,2024.2.4,Win32,142.8571429,af687d87-e30c-4236-b3eb-061ff0b46d33,4,439.6073,441.508,space,1,0.2381,,0,20,20,5,1,F,space,,,,,,,,,,
,,,,,R_97PUwAZE9KbMe7d,001,2025-08-03_09h53.57.562,continuous_performance_test,2024.2.4,Win32,142.8571429,af687d87-e30c-4236-b3eb-061ff0b46d33,4,441.5097,443.105,space,1,0.3071,,0,21,21,20,1,U,space,,,,,,,,,,
,,,,,R_97PUwAZE9KbMe7d,001,2025-08-03_09h53.57.562,continuous_performance_test,2024.2.4,Win32,142.8571429,af687d87-e30c-4236-b3eb-061ff0b46d33,4,443.1067,444.6537,space,1,0.5079,,0,22,22,14,1,O,space,,,,,,,,,,
,,,,,R_97PUwAZE9KbMe7d,001,2025-08-03_09h53.57.562,continuous_performance_test,2024.2.4,Win32,142.8571429,af687d87-e30c-4236-b3eb-061ff0b46d33,4,444.6553,446.2505,space,1,0.4197,,0,23,23,19,1,T,space,,,,,,,,,,
,,,,,R_97PUwAZE9KbMe7d,001,2025-08-03_09h53.57.562,continuous_performance_test,2024.2.4,Win32,142.8571429,af687d87-e30c-4236-b3eb-061ff0b46d33,4,446.2521,448.0492,space,1,0.3342,,0,24,24,15,1,P,space,,,,,,,,,,
,,,,,R_97PUwAZE9KbMe7d,001,2025-08-03_09h53.57.562,continuous_performance_test,2024.2.4,Win32,142.8571429,af687d87-e30c-4236-b3eb-061ff0b46d33,4,448.0508,450.0001,space,1,0.4386,,0,25,25,24,1,Z,space,,,,,,,,,,
,,,,,R_97PUwAZE9KbMe7d,001,2025-08-03_09h53.57.562,continuous_performance_test,2024.2.4,Win32,142.8571429,af687d87-e30c-4236-b3eb-061ff0b46d33,4,450.0018,451.7498,space,1,0.3214,,0,26,26,23,1,Y,space,,,,,,,,,,
,,,,,R_97PUwAZE9KbMe7d,001,2025-08-03_09h53.57.562,continuous_performance_test,2024.2.4,Win32,142.8571429,af687d87-e30c-4236-b3eb-061ff0b46d33,4,451.7515,453.4513,,1,,,0,27,27,25,1,X,,,,,,,,,,,
,,,,,R_97PUwAZE9KbMe7d,001,2025-08-03_09h53.57.562,continuous_performance_test,2024.2.4,Win32,142.8571429,af687d87-e30c-4236-b3eb-061ff0b46d33,4,453.453,455.4022,space,1,0.385,,0,28,28,1,1,B,space,,,,,,,,,,
,,,,,R_97PUwAZE9KbMe7d,001,2025-08-03_09h53.57.562,continuous_performance_test,2024.2.4,Win32,142.8571429,af687d87-e30c-4236-b3eb-061ff0b46d33,4,455.4036,457.1031,space,1,0.4121,,0,29,29,10,1,K,space,,,,,,,,,,
,,,,,R_97PUwAZE9KbMe7d,001,2025-08-03_09h53.57.562,continuous_performance_test,2024.2.4,Win32,142.8571429,af687d87-e30c-4236-b3eb-061ff0b46d33,4,462.1912,464.0887,space,1,0.292,,0,0,0,17,1,R,space,457.1046,462.1863,space,5.0688,,,,,,
,,,,,R_97PUwAZE9KbMe7d,001,2025-08-03_09h53.57.562,continuous_performance_test,2024.2.4,Win32,142.8571429,af687d87-e30c-4236-b3eb-061ff0b46d33,4,464.0902,465.9355,space,1,0.2995,,0,1,1,7,1,H,space,,,,,,,,,,
,,,,,R_97PUwAZE9KbMe7d,001,2025-08-03_09h53.57.562,continuous_performance_test,2024.2.4,Win32,142.8571429,af687d87-e30c-4236-b3eb-061ff0b46d33,4,465.9374,467.8865,,1,,,0,2,2,25,1,X,,,,,,,,,,,
,,,,,R_97PUwAZE9KbMe7d,001,2025-08-03_09h53.57.562,continuous_performance_test,2024.2.4,Win32,142.8571429,af687d87-e30c-4236-b3eb-061ff0b46d33,4,467.8882,469.435,space,1,0.3415,,0,3,3,15,1,P,space,,,,,,,,,,
,,,,,R_97PUwAZE9KbMe7d,001,2025-08-03_09h53.57.562,continuous_performance_test,2024.2.4,Win32,142.8571429,af687d87-e30c-4236-b3eb-061ff0b46d33,4,469.4367,471.3865,space,1,0.528,,0,4,4,13,1,N,space,,,,,,,,,,
,,,,,R_97PUwAZE9KbMe7d,001,2025-08-03_09h53.57.562,continuous_performance_test,2024.2.4,Win32,142.8571429,af687d87-e30c-4236-b3eb-061ff0b46d33,4,471.3879,472.9381,space,1,0.5207,,0,5,5,23,1,Y,space,,,,,,,,,,
,,,,,R_97PUwAZE9KbMe7d,001,2025-08-03_09h53.57.562,continuous_performance_test,2024.2.4,Win32,142.8571429,af687d87-e30c-4236-b3eb-061ff0b46d33,4,472.9391,474.5386,space,1,0.417,,0,6,6,14,1,O,space,,,,,,,,,,
,,,,,R_97PUwAZE9KbMe7d,001,2025-08-03_09h53.57.562,continuous_performance_test,2024.2.4,Win32,142.8571429,af687d87-e30c-4236-b3eb-061ff0b46d33,4,474.5401,476.2885,space,0,0.3058,,0,7,7,27,1,X,,,,,,,,,,,
,,,,,R_97PUwAZE9KbMe7d,001,2025-08-03_09h53.57.562,continuous_performance_test,2024.2.4,Win32,142.8571429,af687d87-e30c-4236-b3eb-061ff0b46d33,4,476.29,478.1354,space,1,0.3416,,0,8,8,9,1,J,space,,,,,,,,,,
,,,,,R_97PUwAZE9KbMe7d,001,2025-08-03_09h53.57.562,continuous_performance_test,2024.2.4,Win32,142.8571429,af687d87-e30c-4236-b3eb-061ff0b46d33,4,478.1368,479.7324,space,0,0.3413,,0,9,9,28,1,X,,,,,,,,,,,
,,,,,R_97PUwAZE9KbMe7d,001,2025-08-03_09h53.57.562,continuous_performance_test,2024.2.4,Win32,142.8571429,af687d87-e30c-4236-b3eb-061ff0b46d33,4,479.7339,481.7322,space,1,0.4457,,0,10,10,0,1,A,space,,,,,,,,,,
,,,,,R_97PUwAZE9KbMe7d,001,2025-08-03_09h53.57.562,continuous_performance_test,2024.2.4,Win32,142.8571429,af687d87-e30c-4236-b3eb-061ff0b46d33,4,481.7338,483.482,space,1,0.404,,0,11,11,1,1,B,space,,,,,,,,,,
,,,,,R_97PUwAZE9KbMe7d,001,2025-08-03_09h53.57.562,continuous_performance_test,2024.2.4,Win32,142.8571429,af687d87-e30c-4236-b3eb-061ff0b46d33,4,483.4837,485.3843,space,1,0.4246,,0,12,12,16,1,Q,space,,,,,,,,,,
,,,,,R_97PUwAZE9KbMe7d,001,2025-08-03_09h53.57.562,continuous_performance_test,2024.2.4,Win32,142.8571429,af687d87-e30c-4236-b3eb-061ff0b46d33,4,485.3859,487.1845,space,1,0.4177,,0,13,13,8,1,I,space,,,,,,,,,,
,,,,,R_97PUwAZE9KbMe7d,001,2025-08-03_09h53.57.562,continuous_performance_test,2024.2.4,Win32,142.8571429,af687d87-e30c-4236-b3eb-061ff0b46d33,4,487.1854,488.8838,space,1,0.3632,,0,14,14,2,1,C,space,,,,,,,,,,
,,,,,R_97PUwAZE9KbMe7d,001,2025-08-03_09h53.57.562,continuous_performance_test,2024.2.4,Win32,142.8571429,af687d87-e30c-4236-b3eb-061ff0b46d33,4,488.8852,490.7308,space,1,0.3835,,0,15,15,12,1,M,space,,,,,,,,,,
,,,,,R_97PUwAZE9KbMe7d,001,2025-08-03_09h53.57.562,continuous_performance_test,2024.2.4,Win32,142.8571429,af687d87-e30c-4236-b3eb-061ff0b46d33,4,490.7323,492.3833,space,1,0.3687,,0,16,16,21,1,V,space,,,,,,,,,,
,,,,,R_97PUwAZE9KbMe7d,001,2025-08-03_09h53.57.562,continuous_performance_test,2024.2.4,Win32,142.8571429,af687d87-e30c-4236-b3eb-061ff0b46d33,4,492.3846,493.9804,space,1,0.432,,0,17,17,11,1,L,space,,,,,,,,,,
,,,,,R_97PUwAZE9KbMe7d,001,2025-08-03_09h53.57.562,continuous_performance_test,2024.2.4,Win32,142.8571429,af687d87-e30c-4236-b3eb-061ff0b46d33,4,493.9817,495.8762,,1,,,0,18,18,26,1,X,,,,,,,,,,,
,,,,,R_97PUwAZE9KbMe7d,001,2025-08-03_09h53.57.562,continuous_performance_test,2024.2.4,Win32,142.8571429,af687d87-e30c-4236-b3eb-061ff0b46d33,4,495.8779,497.7784,space,1,0.405,,0,19,19,6,1,G,space,,,,,,,,,,
,,,,,R_97PUwAZE9KbMe7d,001,2025-08-03_09h53.57.562,continuous_performance_test,2024.2.4,Win32,142.8571429,af687d87-e30c-4236-b3eb-061ff0b46d33,4,497.7799,499.3757,space,1,0.3643,,0,20,20,19,1,T,space,,,,,,,,,,
,,,,,R_97PUwAZE9KbMe7d,001,2025-08-03_09h53.57.562,continuous_performance_test,2024.2.4,Win32,142.8571429,af687d87-e30c-4236-b3eb-061ff0b46d33,4,499.3775,501.1254,space,1,0.6056,,0,21,21,22,1,W,space,,,,,,,,,,
,,,,,R_97PUwAZE9KbMe7d,001,2025-08-03_09h53.57.562,continuous_performance_test,2024.2.4,Win32,142.8571429,af687d87-e30c-4236-b3eb-061ff0b46d33,4,501.1268,502.8752,space,1,0.4658,,0,22,22,10,1,K,space,,,,,,,,,,
,,,,,R_97PUwAZE9KbMe7d,001,2025-08-03_09h53.57.562,continuous_performance_test,2024.2.4,Win32,142.8571429,af687d87-e30c-4236-b3eb-061ff0b46d33,4,502.8766,504.826,space,1,0.3362,,0,23,23,18,1,S,space,,,,,,,,,,
,,,,,R_97PUwAZE9KbMe7d,001,2025-08-03_09h53.57.562,continuous_performance_test,2024.2.4,Win32,142.8571429,af687d87-e30c-4236-b3eb-061ff0b46d33,4,504.8275,506.4233,space,1,0.4672,,0,24,24,24,1,Z,space,,,,,,,,,,
,,,,,R_97PUwAZE9KbMe7d,001,2025-08-03_09h53.57.562,continuous_performance_test,2024.2.4,Win32,142.8571429,af687d87-e30c-4236-b3eb-061ff0b46d33,4,506.4249,508.1202,space,1,0.2878,,0,25,25,5,1,F,space,,,,,,,,,,
,,,,,R_97PUwAZE9KbMe7d,001,2025-08-03_09h53.57.562,continuous_performance_test,2024.2.4,Win32,142.8571429,af687d87-e30c-4236-b3eb-061ff0b46d33,4,508.1212,510.0688,space,1,0.3682,,0,26,26,20,1,U,space,,,,,,,,,,
,,,,,R_97PUwAZE9KbMe7d,001,2025-08-03_09h53.57.562,continuous_performance_test,2024.2.4,Win32,142.8571429,af687d87-e30c-4236-b3eb-061ff0b46d33,4,510.0703,511.6658,space,1,0.3761,,0,27,27,4,1,E,space,,,,,,,,,,
,,,,,R_97PUwAZE9KbMe7d,001,2025-08-03_09h53.57.562,continuous_performance_test,2024.2.4,Win32,142.8571429,af687d87-e30c-4236-b3eb-061ff0b46d33,4,511.6673,513.3186,,1,,,0,28,28,29,1,X,,,,,,,,,,,
,,,,,R_97PUwAZE9KbMe7d,001,2025-08-03_09h53.57.562,continuous_performance_test,2024.2.4,Win32,142.8571429,af687d87-e30c-4236-b3eb-061ff0b46d33,4,513.3201,515.0681,space,1,0.4813,,0,29,29,3,1,D,space,,,,,,,,,,
,,,,,R_97PUwAZE9KbMe7d,001,2025-08-03_09h53.57.562,continuous_performance_test,2024.2.4,Win32,142.8571429,af687d87-e30c-4236-b3eb-061ff0b46d33,4,520.9491,522.595,space,1,0.4736,,0,0,0,14,1,O,space,515.0696,520.9421,space,5.8621,,,,,,
,,,,,R_97PUwAZE9KbMe7d,001,2025-08-03_09h53.57.562,continuous_performance_test,2024.2.4,Win32,142.8571429,af687d87-e30c-4236-b3eb-061ff0b46d33,4,522.5967,524.5945,space,1,0.4653,,0,1,1,20,1,U,space,,,,,,,,,,
,,,,,R_97PUwAZE9KbMe7d,001,2025-08-03_09h53.57.562,continuous_performance_test,2024.2.4,Win32,142.8571429,af687d87-e30c-4236-b3eb-061ff0b46d33,4,524.5962,526.2473,space,1,0.5572,,0,2,2,13,1,N,space,,,,,,,,,,
,,,,,R_97PUwAZE9KbMe7d,001,2025-08-03_09h53.57.562,continuous_performance_test,2024.2.4,Win32,142.8571429,af687d87-e30c-4236-b3eb-061ff0b46d33,4,526.2488,527.9,space,1,0.4517,,0,3,3,21,1,V,space,,,,,,,,,,
,,,,,R_97PUwAZE9KbMe7d,001,2025-08-03_09h53.57.562,continuous_performance_test,2024.2.4,Win32,142.8571429,af687d87-e30c-4236-b3eb-061ff0b46d33,4,527.9018,529.6984,space,1,0.3778,,0,4,4,9,1,J,space,,,,,,,,,,
,,,,,R_97PUwAZE9KbMe7d,001,2025-08-03_09h53.57.562,continuous_performance_test,2024.2.4,Win32,142.8571429,af687d87-e30c-4236-b3eb-061ff0b46d33,4,529.6999,531.2466,space,1,0.3622,,0,5,5,2,1,C,space,,,,,,,,,,
,,,,,R_97PUwAZE9KbMe7d,001,2025-08-03_09h53.57.562,continuous_performance_test,2024.2.4,Win32,142.8571429,af687d87-e30c-4236-b3eb-061ff0b46d33,4,531.2481,533.0935,space,1,0.2715,,0,6,6,0,1,A,space,,,,,,,,,,
,,,,,R_97PUwAZE9KbMe7d,001,2025-08-03_09h53.57.562,continuous_performance_test,2024.2.4,Win32,142.8571429,af687d87-e30c-4236-b3eb-061ff0b46d33,4,533.0953,534.9403,space,1,0.2927,,0,7,7,17,1,R,space,,,,,,,,,,
,,,,,R_97PUwAZE9KbMe7d,001,2025-08-03_09h53.57.562,continuous_performance_test,2024.2.4,Win32,142.8571429,af687d87-e30c-4236-b3eb-061ff0b46d33,4,534.942,536.7392,space,1,0.2796,,0,8,8,4,1,E,space,,,,,,,,,,
,,,,,R_97PUwAZE9KbMe7d,001,2025-08-03_09h53.57.562,continuous_performance_test,2024.2.4,Win32,142.8571429,af687d87-e30c-4236-b3eb-061ff0b46d33,4,536.7414,538.6901,space,1,0.2713,,0,9,9,12,1,M,space,,,,,,,,,,
,,,,,R_97PUwAZE9KbMe7d,001,2025-08-03_09h53.57.562,continuous_performance_test,2024.2.4,Win32,142.8571429,af687d87-e30c-4236-b3eb-061ff0b46d33,4,538.6917,540.3913,space,1,0.302,,0,10,10,18,1,S,space,,,,,,,,,,
,,,,,R_97PUwAZE9KbMe7d,001,2025-08-03_09h53.57.562,continuous_performance_test,2024.2.4,Win32,142.8571429,af687d87-e30c-4236-b3eb-061ff0b46d33,4,540.3932,542.1936,space,1,0.2875,,0,11,11,16,1,Q,space,,,,,,,,,,
,,,,,R_97PUwAZE9KbMe7d,001,2025-08-03_09h53.57.562,continuous_performance_test,2024.2.4,Win32,142.8571429,af687d87-e30c-4236-b3eb-061ff0b46d33,4,542.1942,543.9399,space,1,0.3343,,0,12,12,5,1,F,space,,,,,,,,,,
,,,,,R_97PUwAZE9KbMe7d,001,2025-08-03_09h53.57.562,continuous_performance_test,2024.2.4,Win32,142.8571429,af687d87-e30c-4236-b3eb-061ff0b46d33,4,543.9425,545.6894,space,1,0.3335,,0,13,13,11,1,L,space,,,,,,,,,,
,,,,,R_97PUwAZE9KbMe7d,001,2025-08-03_09h53.57.562,continuous_performance_test,2024.2.4,Win32,142.8571429,af687d87-e30c-4236-b3eb-061ff0b46d33,4,545.6907,547.2375,space,1,0.3274,,0,14,14,24,1,Z,space,,,,,,,,,,
,,,,,R_97PUwAZE9KbMe7d,001,2025-08-03_09h53.57.562,continuous_performance_test,2024.2.4,Win32,142.8571429,af687d87-e30c-4236-b3eb-061ff0b46d33,4,547.2392,549.2374,space,1,0.3769,,0,15,15,8,1,I,space,,,,,,,,,,
,,,,,R_97PUwAZE9KbMe7d,001,2025-08-03_09h53.57.562,continuous_performance_test,2024.2.4,Win32,142.8571429,af687d87-e30c-4236-b3eb-061ff0b46d33,4,549.2391,550.7859,,1,,,0,16,16,29,1,X,,,,,,,,,,,
,,,,,R_97PUwAZE9KbMe7d,001,2025-08-03_09h53.57.562,continuous_performance_test,2024.2.4,Win32,142.8571429,af687d87-e30c-4236-b3eb-061ff0b46d33,4,550.788,552.7368,space,1,0.4657,,0,17,17,22,1,W,space,,,,,,,,,,
,,,,,R_97PUwAZE9KbMe7d,001,2025-08-03_09h53.57.562,continuous_performance_test,2024.2.4,Win32,142.8571429,af687d87-e30c-4236-b3eb-061ff0b46d33,4,552.7386,554.5842,space,0,0.2995,,0,18,18,28,1,X,,,,,,,,,,,
,,,,,R_97PUwAZE9KbMe7d,001,2025-08-03_09h53.57.562,continuous_performance_test,2024.2.4,Win32,142.8571429,af687d87-e30c-4236-b3eb-061ff0b46d33,4,554.5859,556.535,,1,,,0,19,19,26,1,X,,,,,,,,,,,
,,,,,R_97PUwAZE9KbMe7d,001,2025-08-03_09h53.57.562,continuous_performance_test,2024.2.4,Win32,142.8571429,af687d87-e30c-4236-b3eb-061ff0b46d33,4,556.5371,558.184,space,1,0.4506,,0,20,20,10,1,K,space,,,,,,,,,,
,,,,,R_97PUwAZE9KbMe7d,001,2025-08-03_09h53.57.562,continuous_performance_test,2024.2.4,Win32,142.8571429,af687d87-e30c-4236-b3eb-061ff0b46d33,4,558.1852,559.9829,space,1,0.4379,,0,21,21,7,1,H,space,,,,,,,,,,
,,,,,R_97PUwAZE9KbMe7d,001,2025-08-03_09h53.57.562,continuous_performance_test,2024.2.4,Win32,142.8571429,af687d87-e30c-4236-b3eb-061ff0b46d33,4,559.984,561.9337,space,1,0.3468,,0,22,22,15,1,P,space,,,,,,,,,,
,,,,,R_97PUwAZE9KbMe7d,001,2025-08-03_09h53.57.562,continuous_performance_test,2024.2.4,Win32,142.8571429,af687d87-e30c-4236-b3eb-061ff0b46d33,4,561.9346,563.9339,space,1,0.3612,,0,23,23,3,1,D,space,,,,,,,,,,
,,,,,R_97PUwAZE9KbMe7d,001,2025-08-03_09h53.57.562,continuous_performance_test,2024.2.4,Win32,142.8571429,af687d87-e30c-4236-b3eb-061ff0b46d33,4,563.9355,565.7838,,1,,,0,24,24,27,1,X,,,,,,,,,,,
,,,,,R_97PUwAZE9KbMe7d,001,2025-08-03_09h53.57.562,continuous_performance_test,2024.2.4,Win32,142.8571429,af687d87-e30c-4236-b3eb-061ff0b46d33,4,565.7857,567.7351,space,1,0.4103,,0,25,25,1,1,B,space,,,,,,,,,,
,,,,,R_97PUwAZE9KbMe7d,001,2025-08-03_09h53.57.562,continuous_performance_test,2024.2.4,Win32,142.8571429,af687d87-e30c-4236-b3eb-061ff0b46d33,4,567.7366,569.4845,space,1,0.5032,,0,26,26,6,1,G,space,,,,,,,,,,
,,,,,R_97PUwAZE9KbMe7d,001,2025-08-03_09h53.57.562,continuous_performance_test,2024.2.4,Win32,142.8571429,af687d87-e30c-4236-b3eb-061ff0b46d33,4,569.4862,571.3319,space,1,0.4976,,0,27,27,19,1,T,space,,,,,,,,,,
,,,,,R_97PUwAZE9KbMe7d,001,2025-08-03_09h53.57.562,continuous_performance_test,2024.2.4,Win32,142.8571429,af687d87-e30c-4236-b3eb-061ff0b46d33,4,571.334,572.9286,space,1,0.4747,,0,28,28,23,1,Y,space,,,,,,,,,,
,,,,,R_97PUwAZE9KbMe7d,001,2025-08-03_09h53.57.562,continuous_performance_test,2024.2.4,Win32,142.8571429,af687d87-e30c-4236-b3eb-061ff0b46d33,4,572.9306,574.4772,,1,,,0,29,29,25,1,X,,,,,,,,,,,
,,,,,R_97PUwAZE9KbMe7d,001,2025-08-03_09h53.57.562,continuous_performance_test,2024.2.4,Win32,142.8571429,af687d87-e30c-4236-b3eb-061ff0b46d33,4,580.1761,582.0247,space,1,0.3141,,0,0,0,19,1,T,space,574.4789,580.1717,space,5.6823,,,,,,
,,,,,R_97PUwAZE9KbMe7d,001,2025-08-03_09h53.57.562,continuous_performance_test,2024.2.4,Win32,142.8571429,af687d87-e30c-4236-b3eb-061ff0b46d33,4,582.0264,583.8717,space,1,0.3079,,0,1,1,24,1,Z,space,,,,,,,,,,
,,,,,R_97PUwAZE9KbMe7d,001,2025-08-03_09h53.57.562,continuous_performance_test,2024.2.4,Win32,142.8571429,af687d87-e30c-4236-b3eb-061ff0b46d33,4,583.8732,585.8231,space,1,0.3489,,0,2,2,20,1,U,space,,,,,,,,,,
,,,,,R_97PUwAZE9KbMe7d,001,2025-08-03_09h53.57.562,continuous_performance_test,2024.2.4,Win32,142.8571429,af687d87-e30c-4236-b3eb-061ff0b46d33,4,585.8247,587.7208,space,1,0.3971,,0,3,3,18,1,S,space,,,,,,,,,,
,,,,,R_97PUwAZE9KbMe7d,001,2025-08-03_09h53.57.562,continuous_performance_test,2024.2.4,Win32,142.8571429,af687d87-e30c-4236-b3eb-061ff0b46d33,4,587.722,589.4683,space,1,0.4327,,0,4,4,10,1,K,space,,,,,,,,,,
,,,,,R_97PUwAZE9KbMe7d,001,2025-08-03_09h53.57.562,continuous_performance_test,2024.2.4,Win32,142.8571429,af687d87-e30c-4236-b3eb-061ff0b46d33,4,589.4698,591.2205,space,1,0.4599,,0,5,5,9,1,J,space,,,,,,,,,,
,,,,,R_97PUwAZE9KbMe7d,001,2025-08-03_09h53.57.562,continuous_performance_test,2024.2.4,Win32,142.8571429,af687d87-e30c-4236-b3eb-061ff0b46d33,4,591.2219,592.8706,space,1,0.4205,,0,6,6,11,1,L,space,,,,,,,,,,
,,,,,R_97PUwAZE9KbMe7d,001,2025-08-03_09h53.57.562,continuous_performance_test,2024.2.4,Win32,142.8571429,af687d87-e30c-4236-b3eb-061ff0b46d33,4,592.8723,594.5716,space,1,0.3,,0,7,7,17,1,R,space,,,,,,,,,,
,,,,,R_97PUwAZE9KbMe7d,001,2025-08-03_09h53.57.562,continuous_performance_test,2024.2.4,Win32,142.8571429,af687d87-e30c-4236-b3eb-061ff0b46d33,4,594.5731,596.219,space,1,0.3209,,0,8,8,3,1,D,space,,,,,,,,,,
,,,,,R_97PUwAZE9KbMe7d,001,2025-08-03_09h53.57.562,continuous_performance_test,2024.2.4,Win32,142.8571429,af687d87-e30c-4236-b3eb-061ff0b46d33,4,596.22,598.1684,space,1,0.3221,,0,9,9,14,1,O,space,,,,,,,,,,
,,,,,R_97PUwAZE9KbMe7d,001,2025-08-03_09h53.57.562,continuous_performance_test,2024.2.4,Win32,142.8571429,af687d87-e30c-4236-b3eb-061ff0b46d33,4,598.1702,599.8211,space,0,0.2999,,0,10,10,25,1,X,,,,,,,,,,,
,,,,,R_97PUwAZE9KbMe7d,001,2025-08-03_09h53.57.562,continuous_performance_test,2024.2.4,Win32,142.8571429,af687d87-e30c-4236-b3eb-061ff0b46d33,4,599.8225,601.4737,,1,,,0,11,11,29,1,X,,,,,,,,,,,
,,,,,R_97PUwAZE9KbMe7d,001,2025-08-03_09h53.57.562,continuous_performance_test,2024.2.4,Win32,142.8571429,af687d87-e30c-4236-b3eb-061ff0b46d33,4,601.4756,603.1263,space,1,0.4941,,0,12,12,8,1,I,space,,,,,,,,,,
,,,,,R_97PUwAZE9KbMe7d,001,2025-08-03_09h53.57.562,continuous_performance_test,2024.2.4,Win32,142.8571429,af687d87-e30c-4236-b3eb-061ff0b46d33,4,603.1279,605.126,space,1,0.5576,,0,13,13,15,1,P,space,,,,,,,,,,
,,,,,R_97PUwAZE9KbMe7d,001,2025-08-03_09h53.57.562,continuous_performance_test,2024.2.4,Win32,142.8571429,af687d87-e30c-4236-b3eb-061ff0b46d33,4,605.1281,606.723,space,1,0.4808,,0,14,14,23,1,Y,space,,,,,,,,,,
,,,,,R_97PUwAZE9KbMe7d,001,2025-08-03_09h53.57.562,continuous_performance_test,2024.2.4,Win32,142.8571429,af687d87-e30c-4236-b3eb-061ff0b46d33,4,606.7245,608.32,space,1,0.4102,,0,15,15,2,1,C,space,,,,,,,,,,
,,,,,R_97PUwAZE9KbMe7d,001,2025-08-03_09h53.57.562,continuous_performance_test,2024.2.4,Win32,142.8571429,af687d87-e30c-4236-b3eb-061ff0b46d33,4,608.3217,610.3198,space,1,0.3079,,0,16,16,6,1,G,space,,,,,,,,,,
,,,,,R_97PUwAZE9KbMe7d,001,2025-08-03_09h53.57.562,continuous_performance_test,2024.2.4,Win32,142.8571429,af687d87-e30c-4236-b3eb-061ff0b46d33,4,610.3217,611.8683,space,1,0.3358,,0,17,17,16,1,Q,space,,,,,,,,,,
,,,,,R_97PUwAZE9KbMe7d,001,2025-08-03_09h53.57.562,continuous_performance_test,2024.2.4,Win32,142.8571429,af687d87-e30c-4236-b3eb-061ff0b46d33,4,611.87,613.5693,space,1,0.4302,,0,18,18,21,1,V,space,,,,,,,,,,
,,,,,R_97PUwAZE9KbMe7d,001,2025-08-03_09h53.57.562,continuous_performance_test,2024.2.4,Win32,142.8571429,af687d87-e30c-4236-b3eb-061ff0b46d33,4,613.5709,615.3192,space,1,0.3443,,0,19,19,5,1,F,space,,,,,,,,,,
,,,,,R_97PUwAZE9KbMe7d,001,2025-08-03_09h53.57.562,continuous_performance_test,2024.2.4,Win32,142.8571429,af687d87-e30c-4236-b3eb-061ff0b46d33,4,615.321,617.0198,space,1,0.3348,,0,20,20,7,1,H,space,,,,,,,,,,
,,,,,R_97PUwAZE9KbMe7d,001,2025-08-03_09h53.57.562,continuous_performance_test,2024.2.4,Win32,142.8571429,af687d87-e30c-4236-b3eb-061ff0b46d33,4,617.0214,618.8672,space,1,0.4108,,0,21,21,1,1,B,space,,,,,,,,,,
,,,,,R_97PUwAZE9KbMe7d,001,2025-08-03_09h53.57.562,continuous_performance_test,2024.2.4,Win32,142.8571429,af687d87-e30c-4236-b3eb-061ff0b46d33,4,618.8691,620.7143,space,1,0.3833,,0,22,22,22,1,W,space,,,,,,,,,,
,,,,,R_97PUwAZE9KbMe7d,001,2025-08-03_09h53.57.562,continuous_performance_test,2024.2.4,Win32,142.8571429,af687d87-e30c-4236-b3eb-061ff0b46d33,4,620.7159,622.5125,space,1,0.4191,,0,23,23,0,1,A,space,,,,,,,,,,
,,,,,R_97PUwAZE9KbMe7d,001,2025-08-03_09h53.57.562,continuous_performance_test,2024.2.4,Win32,142.8571429,af687d87-e30c-4236-b3eb-061ff0b46d33,4,622.514,624.1652,space,1,0.4521,,0,24,24,13,1,N,space,,,,,,,,,,
,,,,,R_97PUwAZE9KbMe7d,001,2025-08-03_09h53.57.562,continuous_performance_test,2024.2.4,Win32,142.8571429,af687d87-e30c-4236-b3eb-061ff0b46d33,4,624.167,626.0123,space,0,0.2782,,0,25,25,27,1,X,,,,,,,,,,,
,,,,,R_97PUwAZE9KbMe7d,001,2025-08-03_09h53.57.562,continuous_performance_test,2024.2.4,Win32,142.8571429,af687d87-e30c-4236-b3eb-061ff0b46d33,4,626.0137,627.7133,,1,,,0,26,26,28,1,X,,,,,,,,,,,
,,,,,R_97PUwAZE9KbMe7d,001,2025-08-03_09h53.57.562,continuous_performance_test,2024.2.4,Win32,142.8571429,af687d87-e30c-4236-b3eb-061ff0b46d33,4,627.7148,629.3103,space,1,0.342,,0,27,27,4,1,E,space,,,,,,,,,,
,,,,,R_97PUwAZE9KbMe7d,001,2025-08-03_09h53.57.562,continuous_performance_test,2024.2.4,Win32,142.8571429,af687d87-e30c-4236-b3eb-061ff0b46d33,4,629.312,631.2649,,1,,,0,28,28,26,1,X,,,,,,,,,,,
,,,,,R_97PUwAZE9KbMe7d,001,2025-08-03_09h53.57.562,continuous_performance_test,2024.2.4,Win32,142.8571429,af687d87-e30c-4236-b3eb-061ff0b46d33,4,631.2659,633.2126,space,1,0.4659,,0,29,29,12,1,M,space,,,,,,,,,,
,,,,,R_97PUwAZE9KbMe7d,001,2025-08-03_09h53.57.562,continuous_performance_test,2024.2.4,Win32,142.8571429,af687d87-e30c-4236-b3eb-061ff0b46d33,4,,,,,,,,,,,,,,633.2143,633.2151,,,,633.2155,644.5521,space,11.3223,
