Instructions.started,Instructions.stopped,key_resp.keys,key_resp.rt,key_resp.duration,participant,session,date,expName,psychopyVersion,OS,frameRate,realeye-tester-id,realeye-tester-quality_grade,Trial_noX.started,Trial_noX.stopped,response.keys,response.corr,response.rt,response.duration,trials_noX.thisRepN,trials_noX.thisTrialN,trials_noX.thisN,trials_noX.thisIndex,trials_noX.ran,letter,corrAns,BlockBreak.started,BlockBreak.stopped,key_instruct.keys,key_instruct.rt,key_instruct.duration,End_NoX.started,End_NoX.stopped,key_resp_end_noX.keys,key_resp_end_noX.rt,key_resp_end_noX.duration
0.001,14.635,space,14.551,,R_99uHQVoDICQ66j4,001,2025-07-27_21h05.39.874,continuous_performance_test,2024.2.4,MacIntel,58.82352941,e2b76c18-fa1f-432e-8a8c-9bd46ef1e188,5,,,,,,,,,,,,,,,,,,,,,,,
,,,,,R_99uHQVoDICQ66j4,001,2025-07-27_21h05.39.874,continuous_performance_test,2024.2.4,MacIntel,58.82352941,e2b76c18-fa1f-432e-8a8c-9bd46ef1e188,5,14.674,16.374,space,1,0.378,,0,0,0,0,1,A,space,,,,,,,,,,
,,,,,R_99uHQVoDICQ66j4,001,2025-07-27_21h05.39.874,continuous_performance_test,2024.2.4,MacIntel,58.82352941,e2b76c18-fa1f-432e-8a8c-9bd46ef1e188,5,16.376,18.118,space,1,0.247,,0,1,1,7,1,H,space,,,,,,,,,,
,,,,,R_99uHQVoDICQ66j4,001,2025-07-27_21h05.39.874,continuous_performance_test,2024.2.4,MacIntel,58.82352941,e2b76c18-fa1f-432e-8a8c-9bd46ef1e188,5,18.12,19.715,space,1,0.249,,0,2,2,8,1,I,space,,,,,,,,,,
,,,,,R_99uHQVoDICQ66j4,001,2025-07-27_21h05.39.874,continuous_performance_test,2024.2.4,MacIntel,58.82352941,e2b76c18-fa1f-432e-8a8c-9bd46ef1e188,5,19.717,21.46,space,1,0.351,,0,3,3,24,1,Z,space,,,,,,,,,,
,,,,,R_99uHQVoDICQ66j4,001,2025-07-27_21h05.39.874,continuous_performance_test,2024.2.4,MacIntel,58.82352941,e2b76c18-fa1f-432e-8a8c-9bd46ef1e188,5,21.462,23.206,space,1,0.285,,0,4,4,1,1,B,space,,,,,,,,,,
,,,,,R_99uHQVoDICQ66j4,001,2025-07-27_21h05.39.874,continuous_performance_test,2024.2.4,MacIntel,58.82352941,e2b76c18-fa1f-432e-8a8c-9bd46ef1e188,5,23.208,24.752,space,1,0.282,,0,5,5,18,1,S,space,,,,,,,,,,
,,,,,R_99uHQVoDICQ66j4,001,2025-07-27_21h05.39.874,continuous_performance_test,2024.2.4,MacIntel,58.82352941,e2b76c18-fa1f-432e-8a8c-9bd46ef1e188,5,24.754,26.348,space,1,0.332,,0,6,6,3,1,D,space,,,,,,,,,,
,,,,,R_99uHQVoDICQ66j4,001,2025-07-27_21h05.39.874,continuous_performance_test,2024.2.4,MacIntel,58.82352941,e2b76c18-fa1f-432e-8a8c-9bd46ef1e188,5,26.349,28.193,space,1,0.3,,0,7,7,20,1,U,space,,,,,,,,,,
,,,,,R_99uHQVoDICQ66j4,001,2025-07-27_21h05.39.874,continuous_performance_test,2024.2.4,MacIntel,58.82352941,e2b76c18-fa1f-432e-8a8c-9bd46ef1e188,5,28.195,29.895,space,1,0.345,,0,8,8,10,1,K,space,,,,,,,,,,
,,,,,R_99uHQVoDICQ66j4,001,2025-07-27_21h05.39.874,continuous_performance_test,2024.2.4,MacIntel,58.82352941,e2b76c18-fa1f-432e-8a8c-9bd46ef1e188,5,29.897,31.685,space,1,0.31,,0,9,9,5,1,F,space,,,,,,,,,,
,,,,,R_99uHQVoDICQ66j4,001,2025-07-27_21h05.39.874,continuous_performance_test,2024.2.4,MacIntel,58.82352941,e2b76c18-fa1f-432e-8a8c-9bd46ef1e188,5,31.687,33.281,space,0,0.275,,0,10,10,27,1,X,,,,,,,,,,,
,,,,,R_99uHQVoDICQ66j4,001,2025-07-27_21h05.39.874,continuous_performance_test,2024.2.4,MacIntel,58.82352941,e2b76c18-fa1f-432e-8a8c-9bd46ef1e188,5,33.282,34.929,space,0,0.276,,0,11,11,25,1,X,,,,,,,,,,,
,,,,,R_99uHQVoDICQ66j4,001,2025-07-27_21h05.39.874,continuous_performance_test,2024.2.4,MacIntel,58.82352941,e2b76c18-fa1f-432e-8a8c-9bd46ef1e188,5,34.929,36.678,space,0,0.323,,0,12,12,28,1,X,,,,,,,,,,,
,,,,,R_99uHQVoDICQ66j4,001,2025-07-27_21h05.39.874,continuous_performance_test,2024.2.4,MacIntel,58.82352941,e2b76c18-fa1f-432e-8a8c-9bd46ef1e188,5,36.679,38.435,,0,,,0,13,13,12,1,M,space,,,,,,,,,,
,,,,,R_99uHQVoDICQ66j4,001,2025-07-27_21h05.39.874,continuous_performance_test,2024.2.4,MacIntel,58.82352941,e2b76c18-fa1f-432e-8a8c-9bd46ef1e188,5,38.437,39.983,space,1,0.955,,0,14,14,22,1,W,space,,,,,,,,,,
,,,,,R_99uHQVoDICQ66j4,001,2025-07-27_21h05.39.874,continuous_performance_test,2024.2.4,MacIntel,58.82352941,e2b76c18-fa1f-432e-8a8c-9bd46ef1e188,5,39.985,41.777,space,1,0.301,,0,15,15,6,1,G,space,,,,,,,,,,
,,,,,R_99uHQVoDICQ66j4,001,2025-07-27_21h05.39.874,continuous_performance_test,2024.2.4,MacIntel,58.82352941,e2b76c18-fa1f-432e-8a8c-9bd46ef1e188,5,41.779,43.523,space,1,0.328,,0,16,16,21,1,V,space,,,,,,,,,,
,,,,,R_99uHQVoDICQ66j4,001,2025-07-27_21h05.39.874,continuous_performance_test,2024.2.4,MacIntel,58.82352941,e2b76c18-fa1f-432e-8a8c-9bd46ef1e188,5,43.525,45.07,space,0,0.327,,0,17,17,26,1,X,,,,,,,,,,,
,,,,,R_99uHQVoDICQ66j4,001,2025-07-27_21h05.39.874,continuous_performance_test,2024.2.4,MacIntel,58.82352941,e2b76c18-fa1f-432e-8a8c-9bd46ef1e188,5,45.071,46.62,space,1,0.362,,0,18,18,2,1,C,space,,,,,,,,,,
,,,,,R_99uHQVoDICQ66j4,001,2025-07-27_21h05.39.874,continuous_performance_test,2024.2.4,MacIntel,58.82352941,e2b76c18-fa1f-432e-8a8c-9bd46ef1e188,5,46.621,48.366,space,1,0.359,,0,19,19,19,1,T,space,,,,,,,,,,
,,,,,R_99uHQVoDICQ66j4,001,2025-07-27_21h05.39.874,continuous_performance_test,2024.2.4,MacIntel,58.82352941,e2b76c18-fa1f-432e-8a8c-9bd46ef1e188,5,48.367,49.955,space,1,0.39,,0,20,20,14,1,O,space,,,,,,,,,,
,,,,,R_99uHQVoDICQ66j4,001,2025-07-27_21h05.39.874,continuous_performance_test,2024.2.4,MacIntel,58.82352941,e2b76c18-fa1f-432e-8a8c-9bd46ef1e188,5,49.956,51.85,space,1,0.399,,0,21,21,23,1,Y,space,,,,,,,,,,
,,,,,R_99uHQVoDICQ66j4,001,2025-07-27_21h05.39.874,continuous_performance_test,2024.2.4,MacIntel,58.82352941,e2b76c18-fa1f-432e-8a8c-9bd46ef1e188,5,51.852,53.546,space,1,0.348,,0,22,22,11,1,L,space,,,,,,,,,,
,,,,,R_99uHQVoDICQ66j4,001,2025-07-27_21h05.39.874,continuous_performance_test,2024.2.4,MacIntel,58.82352941,e2b76c18-fa1f-432e-8a8c-9bd46ef1e188,5,53.547,55.192,space,0,0.282,,0,23,23,29,1,X,,,,,,,,,,,
,,,,,R_99uHQVoDICQ66j4,001,2025-07-27_21h05.39.874,continuous_performance_test,2024.2.4,MacIntel,58.82352941,e2b76c18-fa1f-432e-8a8c-9bd46ef1e188,5,55.193,56.938,space,1,0.299,,0,24,24,17,1,R,space,,,,,,,,,,
,,,,,R_99uHQVoDICQ66j4,001,2025-07-27_21h05.39.874,continuous_performance_test,2024.2.4,MacIntel,58.82352941,e2b76c18-fa1f-432e-8a8c-9bd46ef1e188,5,56.939,58.833,space,1,0.315,,0,25,25,9,1,J,space,,,,,,,,,,
,,,,,R_99uHQVoDICQ66j4,001,2025-07-27_21h05.39.874,continuous_performance_test,2024.2.4,MacIntel,58.82352941,e2b76c18-fa1f-432e-8a8c-9bd46ef1e188,5,58.834,60.479,space,1,0.313,,0,26,26,16,1,Q,space,,,,,,,,,,
,,,,,R_99uHQVoDICQ66j4,001,2025-07-27_21h05.39.874,continuous_performance_test,2024.2.4,MacIntel,58.82352941,e2b76c18-fa1f-432e-8a8c-9bd46ef1e188,5,60.481,62.025,space,1,0.349,,0,27,27,15,1,P,space,,,,,,,,,,
,,,,,R_99uHQVoDICQ66j4,001,2025-07-27_21h05.39.874,continuous_performance_test,2024.2.4,MacIntel,58.82352941,e2b76c18-fa1f-432e-8a8c-9bd46ef1e188,5,62.026,63.87,space,1,0.3,,0,28,28,13,1,N,space,,,,,,,,,,
,,,,,R_99uHQVoDICQ66j4,001,2025-07-27_21h05.39.874,continuous_performance_test,2024.2.4,MacIntel,58.82352941,e2b76c18-fa1f-432e-8a8c-9bd46ef1e188,5,63.871,65.416,space,1,0.299,,0,29,29,4,1,E,space,,,,,,,,,,
,,,,,R_99uHQVoDICQ66j4,001,2025-07-27_21h05.39.874,continuous_performance_test,2024.2.4,MacIntel,58.82352941,e2b76c18-fa1f-432e-8a8c-9bd46ef1e188,5,68.693,70.537,space,1,0.317,,0,0,0,21,1,V,space,65.421,68.679,space,3.219,,,,,,
,,,,,R_99uHQVoDICQ66j4,001,2025-07-27_21h05.39.874,continuous_performance_test,2024.2.4,MacIntel,58.82352941,e2b76c18-fa1f-432e-8a8c-9bd46ef1e188,5,70.538,72.232,space,1,0.283,,0,1,1,19,1,T,space,,,,,,,,,,
,,,,,R_99uHQVoDICQ66j4,001,2025-07-27_21h05.39.874,continuous_performance_test,2024.2.4,MacIntel,58.82352941,e2b76c18-fa1f-432e-8a8c-9bd46ef1e188,5,72.234,74.078,space,1,0.383,,0,2,2,0,1,A,space,,,,,,,,,,
,,,,,R_99uHQVoDICQ66j4,001,2025-07-27_21h05.39.874,continuous_performance_test,2024.2.4,MacIntel,58.82352941,e2b76c18-fa1f-432e-8a8c-9bd46ef1e188,5,74.079,75.973,space,1,0.298,,0,3,3,5,1,F,space,,,,,,,,,,
,,,,,R_99uHQVoDICQ66j4,001,2025-07-27_21h05.39.874,continuous_performance_test,2024.2.4,MacIntel,58.82352941,e2b76c18-fa1f-432e-8a8c-9bd46ef1e188,5,75.974,77.868,space,0,0.283,,0,4,4,28,1,X,,,,,,,,,,,
,,,,,R_99uHQVoDICQ66j4,001,2025-07-27_21h05.39.874,continuous_performance_test,2024.2.4,MacIntel,58.82352941,e2b76c18-fa1f-432e-8a8c-9bd46ef1e188,5,77.869,79.764,space,1,0.347,,0,5,5,17,1,R,space,,,,,,,,,,
,,,,,R_99uHQVoDICQ66j4,001,2025-07-27_21h05.39.874,continuous_performance_test,2024.2.4,MacIntel,58.82352941,e2b76c18-fa1f-432e-8a8c-9bd46ef1e188,5,79.765,81.611,space,1,0.386,,0,6,6,13,1,N,space,,,,,,,,,,
,,,,,R_99uHQVoDICQ66j4,001,2025-07-27_21h05.39.874,continuous_performance_test,2024.2.4,MacIntel,58.82352941,e2b76c18-fa1f-432e-8a8c-9bd46ef1e188,5,81.613,83.406,space,1,0.41,,0,7,7,15,1,P,space,,,,,,,,,,
,,,,,R_99uHQVoDICQ66j4,001,2025-07-27_21h05.39.874,continuous_performance_test,2024.2.4,MacIntel,58.82352941,e2b76c18-fa1f-432e-8a8c-9bd46ef1e188,5,83.407,84.954,space,1,0.453,,0,8,8,24,1,Z,space,,,,,,,,,,
,,,,,R_99uHQVoDICQ66j4,001,2025-07-27_21h05.39.874,continuous_performance_test,2024.2.4,MacIntel,58.82352941,e2b76c18-fa1f-432e-8a8c-9bd46ef1e188,5,84.955,86.499,space,1,0.362,,0,9,9,1,1,B,space,,,,,,,,,,
,,,,,R_99uHQVoDICQ66j4,001,2025-07-27_21h05.39.874,continuous_performance_test,2024.2.4,MacIntel,58.82352941,e2b76c18-fa1f-432e-8a8c-9bd46ef1e188,5,86.5,88.251,space,1,0.38,,0,10,10,20,1,U,space,,,,,,,,,,
,,,,,R_99uHQVoDICQ66j4,001,2025-07-27_21h05.39.874,continuous_performance_test,2024.2.4,MacIntel,58.82352941,e2b76c18-fa1f-432e-8a8c-9bd46ef1e188,5,88.252,89.891,space,1,0.391,,0,11,11,10,1,K,space,,,,,,,,,,
,,,,,R_99uHQVoDICQ66j4,001,2025-07-27_21h05.39.874,continuous_performance_test,2024.2.4,MacIntel,58.82352941,e2b76c18-fa1f-432e-8a8c-9bd46ef1e188,5,89.892,91.785,,1,,,0,12,12,27,1,X,,,,,,,,,,,
,,,,,R_99uHQVoDICQ66j4,001,2025-07-27_21h05.39.874,continuous_performance_test,2024.2.4,MacIntel,58.82352941,e2b76c18-fa1f-432e-8a8c-9bd46ef1e188,5,91.786,93.731,space,1,0.417,,0,13,13,6,1,G,space,,,,,,,,,,
,,,,,R_99uHQVoDICQ66j4,001,2025-07-27_21h05.39.874,continuous_performance_test,2024.2.4,MacIntel,58.82352941,e2b76c18-fa1f-432e-8a8c-9bd46ef1e188,5,93.733,95.525,,1,,,0,14,14,25,1,X,,,,,,,,,,,
,,,,,R_99uHQVoDICQ66j4,001,2025-07-27_21h05.39.874,continuous_performance_test,2024.2.4,MacIntel,58.82352941,e2b76c18-fa1f-432e-8a8c-9bd46ef1e188,5,95.526,97.321,space,1,0.452,,0,15,15,23,1,Y,space,,,,,,,,,,
,,,,,R_99uHQVoDICQ66j4,001,2025-07-27_21h05.39.874,continuous_performance_test,2024.2.4,MacIntel,58.82352941,e2b76c18-fa1f-432e-8a8c-9bd46ef1e188,5,97.322,98.917,space,1,0.391,,0,16,16,18,1,S,space,,,,,,,,,,
,,,,,R_99uHQVoDICQ66j4,001,2025-07-27_21h05.39.874,continuous_performance_test,2024.2.4,MacIntel,58.82352941,e2b76c18-fa1f-432e-8a8c-9bd46ef1e188,5,98.918,100.712,space,1,0.342,,0,17,17,16,1,Q,space,,,,,,,,,,
,,,,,R_99uHQVoDICQ66j4,001,2025-07-27_21h05.39.874,continuous_performance_test,2024.2.4,MacIntel,58.82352941,e2b76c18-fa1f-432e-8a8c-9bd46ef1e188,5,100.714,102.514,space,1,0.359,,0,18,18,4,1,E,space,,,,,,,,,,
,,,,,R_99uHQVoDICQ66j4,001,2025-07-27_21h05.39.874,continuous_performance_test,2024.2.4,MacIntel,58.82352941,e2b76c18-fa1f-432e-8a8c-9bd46ef1e188,5,102.514,104.359,space,1,0.374,,0,19,19,2,1,C,space,,,,,,,,,,
,,,,,R_99uHQVoDICQ66j4,001,2025-07-27_21h05.39.874,continuous_performance_test,2024.2.4,MacIntel,58.82352941,e2b76c18-fa1f-432e-8a8c-9bd46ef1e188,5,104.36,105.95,space,1,0.393,,0,20,20,11,1,L,space,,,,,,,,,,
,,,,,R_99uHQVoDICQ66j4,001,2025-07-27_21h05.39.874,continuous_performance_test,2024.2.4,MacIntel,58.82352941,e2b76c18-fa1f-432e-8a8c-9bd46ef1e188,5,105.95,107.551,,1,,,0,21,21,29,1,X,,,,,,,,,,,
,,,,,R_99uHQVoDICQ66j4,001,2025-07-27_21h05.39.874,continuous_performance_test,2024.2.4,MacIntel,58.82352941,e2b76c18-fa1f-432e-8a8c-9bd46ef1e188,5,107.552,109.358,space,1,0.419,,0,22,22,22,1,W,space,,,,,,,,,,
,,,,,R_99uHQVoDICQ66j4,001,2025-07-27_21h05.39.874,continuous_performance_test,2024.2.4,MacIntel,58.82352941,e2b76c18-fa1f-432e-8a8c-9bd46ef1e188,5,109.36,111.356,space,1,0.394,,0,23,23,7,1,H,space,,,,,,,,,,
,,,,,R_99uHQVoDICQ66j4,001,2025-07-27_21h05.39.874,continuous_performance_test,2024.2.4,MacIntel,58.82352941,e2b76c18-fa1f-432e-8a8c-9bd46ef1e188,5,111.358,113.099,space,1,0.349,,0,24,24,9,1,J,space,,,,,,,,,,
,,,,,R_99uHQVoDICQ66j4,001,2025-07-27_21h05.39.874,continuous_performance_test,2024.2.4,MacIntel,58.82352941,e2b76c18-fa1f-432e-8a8c-9bd46ef1e188,5,113.1,114.992,space,1,0.395,,0,25,25,14,1,O,space,,,,,,,,,,
,,,,,R_99uHQVoDICQ66j4,001,2025-07-27_21h05.39.874,continuous_performance_test,2024.2.4,MacIntel,58.82352941,e2b76c18-fa1f-432e-8a8c-9bd46ef1e188,5,114.993,116.539,space,1,0.461,,0,26,26,8,1,I,space,,,,,,,,,,
,,,,,R_99uHQVoDICQ66j4,001,2025-07-27_21h05.39.874,continuous_performance_test,2024.2.4,MacIntel,58.82352941,e2b76c18-fa1f-432e-8a8c-9bd46ef1e188,5,116.54,118.385,space,1,0.409,,0,27,27,3,1,D,space,,,,,,,,,,
,,,,,R_99uHQVoDICQ66j4,001,2025-07-27_21h05.39.874,continuous_performance_test,2024.2.4,MacIntel,58.82352941,e2b76c18-fa1f-432e-8a8c-9bd46ef1e188,5,118.387,120.235,space,1,0.377,,0,28,28,12,1,M,space,,,,,,,,,,
,,,,,R_99uHQVoDICQ66j4,001,2025-07-27_21h05.39.874,continuous_performance_test,2024.2.4,MacIntel,58.82352941,e2b76c18-fa1f-432e-8a8c-9bd46ef1e188,5,120.236,122.18,space,0,0.356,,0,29,29,26,1,X,,,,,,,,,,,
,,,,,R_99uHQVoDICQ66j4,001,2025-07-27_21h05.39.874,continuous_performance_test,2024.2.4,MacIntel,58.82352941,e2b76c18-fa1f-432e-8a8c-9bd46ef1e188,5,126.092,127.784,space,1,0.414,,0,0,0,18,1,S,space,122.181,126.074,space,3.855,,,,,,
,,,,,R_99uHQVoDICQ66j4,001,2025-07-27_21h05.39.874,continuous_performance_test,2024.2.4,MacIntel,58.82352941,e2b76c18-fa1f-432e-8a8c-9bd46ef1e188,5,127.786,129.474,space,1,0.316,,0,1,1,20,1,U,space,,,,,,,,,,
,,,,,R_99uHQVoDICQ66j4,001,2025-07-27_21h05.39.874,continuous_performance_test,2024.2.4,MacIntel,58.82352941,e2b76c18-fa1f-432e-8a8c-9bd46ef1e188,5,129.475,131.22,space,1,0.333,,0,2,2,6,1,G,space,,,,,,,,,,
,,,,,R_99uHQVoDICQ66j4,001,2025-07-27_21h05.39.874,continuous_performance_test,2024.2.4,MacIntel,58.82352941,e2b76c18-fa1f-432e-8a8c-9bd46ef1e188,5,131.222,133.115,space,1,0.452,,0,3,3,15,1,P,space,,,,,,,,,,
,,,,,R_99uHQVoDICQ66j4,001,2025-07-27_21h05.39.874,continuous_performance_test,2024.2.4,MacIntel,58.82352941,e2b76c18-fa1f-432e-8a8c-9bd46ef1e188,5,133.116,134.96,space,1,0.376,,0,4,4,5,1,F,space,,,,,,,,,,
,,,,,R_99uHQVoDICQ66j4,001,2025-07-27_21h05.39.874,continuous_performance_test,2024.2.4,MacIntel,58.82352941,e2b76c18-fa1f-432e-8a8c-9bd46ef1e188,5,134.961,136.96,space,1,0.378,,0,5,5,0,1,A,space,,,,,,,,,,
,,,,,R_99uHQVoDICQ66j4,001,2025-07-27_21h05.39.874,continuous_performance_test,2024.2.4,MacIntel,58.82352941,e2b76c18-fa1f-432e-8a8c-9bd46ef1e188,5,136.961,138.705,space,1,0.434,,0,6,6,4,1,E,space,,,,,,,,,,
,,,,,R_99uHQVoDICQ66j4,001,2025-07-27_21h05.39.874,continuous_performance_test,2024.2.4,MacIntel,58.82352941,e2b76c18-fa1f-432e-8a8c-9bd46ef1e188,5,138.706,140.7,space,1,0.475,,0,7,7,19,1,T,space,,,,,,,,,,
,,,,,R_99uHQVoDICQ66j4,001,2025-07-27_21h05.39.874,continuous_performance_test,2024.2.4,MacIntel,58.82352941,e2b76c18-fa1f-432e-8a8c-9bd46ef1e188,5,140.701,142.706,space,1,0.448,,0,8,8,2,1,C,space,,,,,,,,,,
,,,,,R_99uHQVoDICQ66j4,001,2025-07-27_21h05.39.874,continuous_performance_test,2024.2.4,MacIntel,58.82352941,e2b76c18-fa1f-432e-8a8c-9bd46ef1e188,5,142.707,144.243,,1,,,0,9,9,26,1,X,,,,,,,,,,,
,,,,,R_99uHQVoDICQ66j4,001,2025-07-27_21h05.39.874,continuous_performance_test,2024.2.4,MacIntel,58.82352941,e2b76c18-fa1f-432e-8a8c-9bd46ef1e188,5,144.244,146.149,space,1,0.449,,0,10,10,3,1,D,space,,,,,,,,,,
,,,,,R_99uHQVoDICQ66j4,001,2025-07-27_21h05.39.874,continuous_performance_test,2024.2.4,MacIntel,58.82352941,e2b76c18-fa1f-432e-8a8c-9bd46ef1e188,5,146.15,148.143,,1,,,0,11,11,25,1,X,,,,,,,,,,,
,,,,,R_99uHQVoDICQ66j4,001,2025-07-27_21h05.39.874,continuous_performance_test,2024.2.4,MacIntel,58.82352941,e2b76c18-fa1f-432e-8a8c-9bd46ef1e188,5,148.144,150.138,space,1,0.484,,0,12,12,13,1,N,space,,,,,,,,,,
,,,,,R_99uHQVoDICQ66j4,001,2025-07-27_21h05.39.874,continuous_performance_test,2024.2.4,MacIntel,58.82352941,e2b76c18-fa1f-432e-8a8c-9bd46ef1e188,5,150.14,151.786,space,1,0.466,,0,13,13,7,1,H,space,,,,,,,,,,
,,,,,R_99uHQVoDICQ66j4,001,2025-07-27_21h05.39.874,continuous_performance_test,2024.2.4,MacIntel,58.82352941,e2b76c18-fa1f-432e-8a8c-9bd46ef1e188,5,151.787,153.634,,1,,,0,14,14,27,1,X,,,,,,,,,,,
,,,,,R_99uHQVoDICQ66j4,001,2025-07-27_21h05.39.874,continuous_performance_test,2024.2.4,MacIntel,58.82352941,e2b76c18-fa1f-432e-8a8c-9bd46ef1e188,5,153.635,155.541,space,1,0.376,,0,15,15,8,1,I,space,,,,,,,,,,
,,,,,R_99uHQVoDICQ66j4,001,2025-07-27_21h05.39.874,continuous_performance_test,2024.2.4,MacIntel,58.82352941,e2b76c18-fa1f-432e-8a8c-9bd46ef1e188,5,155.543,157.387,space,1,0.381,,0,16,16,14,1,O,space,,,,,,,,,,
,,,,,R_99uHQVoDICQ66j4,001,2025-07-27_21h05.39.874,continuous_performance_test,2024.2.4,MacIntel,58.82352941,e2b76c18-fa1f-432e-8a8c-9bd46ef1e188,5,157.388,159.281,,1,,,0,17,17,29,1,X,,,,,,,,,,,
,,,,,R_99uHQVoDICQ66j4,001,2025-07-27_21h05.39.874,continuous_performance_test,2024.2.4,MacIntel,58.82352941,e2b76c18-fa1f-432e-8a8c-9bd46ef1e188,5,159.283,161.128,space,1,0.628,,0,18,18,23,1,Y,space,,,,,,,,,,
,,,,,R_99uHQVoDICQ66j4,001,2025-07-27_21h05.39.874,continuous_performance_test,2024.2.4,MacIntel,58.82352941,e2b76c18-fa1f-432e-8a8c-9bd46ef1e188,5,161.13,162.98,space,1,0.795,,0,19,19,17,1,R,space,,,,,,,,,,
,,,,,R_99uHQVoDICQ66j4,001,2025-07-27_21h05.39.874,continuous_performance_test,2024.2.4,MacIntel,58.82352941,e2b76c18-fa1f-432e-8a8c-9bd46ef1e188,5,162.981,164.769,,0,,,0,20,20,22,1,W,space,,,,,,,,,,
,,,,,R_99uHQVoDICQ66j4,001,2025-07-27_21h05.39.874,continuous_performance_test,2024.2.4,MacIntel,58.82352941,e2b76c18-fa1f-432e-8a8c-9bd46ef1e188,5,164.771,166.515,space,1,0.472,,0,21,21,11,1,L,space,,,,,,,,,,
,,,,,R_99uHQVoDICQ66j4,001,2025-07-27_21h05.39.874,continuous_performance_test,2024.2.4,MacIntel,58.82352941,e2b76c18-fa1f-432e-8a8c-9bd46ef1e188,5,166.516,168.115,space,1,0.371,,0,22,22,1,1,B,space,,,,,,,,,,
,,,,,R_99uHQVoDICQ66j4,001,2025-07-27_21h05.39.874,continuous_performance_test,2024.2.4,MacIntel,58.82352941,e2b76c18-fa1f-432e-8a8c-9bd46ef1e188,5,168.116,169.86,space,1,0.395,,0,23,23,16,1,Q,space,,,,,,,,,,
,,,,,R_99uHQVoDICQ66j4,001,2025-07-27_21h05.39.874,continuous_performance_test,2024.2.4,MacIntel,58.82352941,e2b76c18-fa1f-432e-8a8c-9bd46ef1e188,5,169.861,171.454,,1,,,0,24,24,28,1,X,,,,,,,,,,,
,,,,,R_99uHQVoDICQ66j4,001,2025-07-27_21h05.39.874,continuous_performance_test,2024.2.4,MacIntel,58.82352941,e2b76c18-fa1f-432e-8a8c-9bd46ef1e188,5,171.456,173.195,space,1,0.415,,0,25,25,12,1,M,space,,,,,,,,,,
,,,,,R_99uHQVoDICQ66j4,001,2025-07-27_21h05.39.874,continuous_performance_test,2024.2.4,MacIntel,58.82352941,e2b76c18-fa1f-432e-8a8c-9bd46ef1e188,5,173.197,174.791,space,1,0.403,,0,26,26,9,1,J,space,,,,,,,,,,
,,,,,R_99uHQVoDICQ66j4,001,2025-07-27_21h05.39.874,continuous_performance_test,2024.2.4,MacIntel,58.82352941,e2b76c18-fa1f-432e-8a8c-9bd46ef1e188,5,174.794,176.588,space,1,0.31,,0,27,27,24,1,Z,space,,,,,,,,,,
,,,,,R_99uHQVoDICQ66j4,001,2025-07-27_21h05.39.874,continuous_performance_test,2024.2.4,MacIntel,58.82352941,e2b76c18-fa1f-432e-8a8c-9bd46ef1e188,5,176.589,178.29,space,1,0.344,,0,28,28,10,1,K,space,,,,,,,,,,
,,,,,R_99uHQVoDICQ66j4,001,2025-07-27_21h05.39.874,continuous_performance_test,2024.2.4,MacIntel,58.82352941,e2b76c18-fa1f-432e-8a8c-9bd46ef1e188,5,178.291,180.029,space,1,0.417,,0,29,29,21,1,V,space,,,,,,,,,,
,,,,,R_99uHQVoDICQ66j4,001,2025-07-27_21h05.39.874,continuous_performance_test,2024.2.4,MacIntel,58.82352941,e2b76c18-fa1f-432e-8a8c-9bd46ef1e188,5,188.713,190.67,space,1,0.386,,0,0,0,11,1,L,space,180.031,188.693,space,8.624,,,,,,
,,,,,R_99uHQVoDICQ66j4,001,2025-07-27_21h05.39.874,continuous_performance_test,2024.2.4,MacIntel,58.82352941,e2b76c18-fa1f-432e-8a8c-9bd46ef1e188,5,190.672,192.215,,1,,,0,1,1,28,1,X,,,,,,,,,,,
,,,,,R_99uHQVoDICQ66j4,001,2025-07-27_21h05.39.874,continuous_performance_test,2024.2.4,MacIntel,58.82352941,e2b76c18-fa1f-432e-8a8c-9bd46ef1e188,5,192.217,193.811,space,1,0.385,,0,2,2,9,1,J,space,,,,,,,,,,
,,,,,R_99uHQVoDICQ66j4,001,2025-07-27_21h05.39.874,continuous_performance_test,2024.2.4,MacIntel,58.82352941,e2b76c18-fa1f-432e-8a8c-9bd46ef1e188,5,193.813,195.458,space,1,0.383,,0,3,3,22,1,W,space,,,,,,,,,,
,,,,,R_99uHQVoDICQ66j4,001,2025-07-27_21h05.39.874,continuous_performance_test,2024.2.4,MacIntel,58.82352941,e2b76c18-fa1f-432e-8a8c-9bd46ef1e188,5,195.459,197.005,space,1,0.344,,0,4,4,16,1,Q,space,,,,,,,,,,
,,,,,R_99uHQVoDICQ66j4,001,2025-07-27_21h05.39.874,continuous_performance_test,2024.2.4,MacIntel,58.82352941,e2b76c18-fa1f-432e-8a8c-9bd46ef1e188,5,197.006,198.75,,1,,,0,5,5,27,1,X,,,,,,,,,,,
,,,,,R_99uHQVoDICQ66j4,001,2025-07-27_21h05.39.874,continuous_performance_test,2024.2.4,MacIntel,58.82352941,e2b76c18-fa1f-432e-8a8c-9bd46ef1e188,5,198.752,200.744,space,1,0.383,,0,6,6,21,1,V,space,,,,,,,,,,
,,,,,R_99uHQVoDICQ66j4,001,2025-07-27_21h05.39.874,continuous_performance_test,2024.2.4,MacIntel,58.82352941,e2b76c18-fa1f-432e-8a8c-9bd46ef1e188,5,200.745,202.445,space,1,0.435,,0,7,7,10,1,K,space,,,,,,,,,,
,,,,,R_99uHQVoDICQ66j4,001,2025-07-27_21h05.39.874,continuous_performance_test,2024.2.4,MacIntel,58.82352941,e2b76c18-fa1f-432e-8a8c-9bd46ef1e188,5,202.446,204.036,space,1,0.403,,0,8,8,14,1,O,space,,,,,,,,,,
,,,,,R_99uHQVoDICQ66j4,001,2025-07-27_21h05.39.874,continuous_performance_test,2024.2.4,MacIntel,58.82352941,e2b76c18-fa1f-432e-8a8c-9bd46ef1e188,5,204.037,205.583,space,1,0.388,,0,9,9,5,1,F,space,,,,,,,,,,
,,,,,R_99uHQVoDICQ66j4,001,2025-07-27_21h05.39.874,continuous_performance_test,2024.2.4,MacIntel,58.82352941,e2b76c18-fa1f-432e-8a8c-9bd46ef1e188,5,205.584,207.478,,1,,,0,10,10,25,1,X,,,,,,,,,,,
,,,,,R_99uHQVoDICQ66j4,001,2025-07-27_21h05.39.874,continuous_performance_test,2024.2.4,MacIntel,58.82352941,e2b76c18-fa1f-432e-8a8c-9bd46ef1e188,5,207.479,209.074,,1,,,0,11,11,26,1,X,,,,,,,,,,,
,,,,,R_99uHQVoDICQ66j4,001,2025-07-27_21h05.39.874,continuous_performance_test,2024.2.4,MacIntel,58.82352941,e2b76c18-fa1f-432e-8a8c-9bd46ef1e188,5,209.075,210.969,space,1,0.429,,0,12,12,13,1,N,space,,,,,,,,,,
,,,,,R_99uHQVoDICQ66j4,001,2025-07-27_21h05.39.874,continuous_performance_test,2024.2.4,MacIntel,58.82352941,e2b76c18-fa1f-432e-8a8c-9bd46ef1e188,5,210.971,212.865,space,1,0.598,,0,13,13,23,1,Y,space,,,,,,,,,,
,,,,,R_99uHQVoDICQ66j4,001,2025-07-27_21h05.39.874,continuous_performance_test,2024.2.4,MacIntel,58.82352941,e2b76c18-fa1f-432e-8a8c-9bd46ef1e188,5,212.867,214.767,space,1,0.478,,0,14,14,8,1,I,space,,,,,,,,,,
,,,,,R_99uHQVoDICQ66j4,001,2025-07-27_21h05.39.874,continuous_performance_test,2024.2.4,MacIntel,58.82352941,e2b76c18-fa1f-432e-8a8c-9bd46ef1e188,5,214.768,216.622,space,1,0.377,,0,15,15,0,1,A,space,,,,,,,,,,
,,,,,R_99uHQVoDICQ66j4,001,2025-07-27_21h05.39.874,continuous_performance_test,2024.2.4,MacIntel,58.82352941,e2b76c18-fa1f-432e-8a8c-9bd46ef1e188,5,216.624,218.567,space,1,0.444,,0,16,16,17,1,R,space,,,,,,,,,,
,,,,,R_99uHQVoDICQ66j4,001,2025-07-27_21h05.39.874,continuous_performance_test,2024.2.4,MacIntel,58.82352941,e2b76c18-fa1f-432e-8a8c-9bd46ef1e188,5,218.569,220.462,,1,,,0,17,17,29,1,X,,,,,,,,,,,
,,,,,R_99uHQVoDICQ66j4,001,2025-07-27_21h05.39.874,continuous_performance_test,2024.2.4,MacIntel,58.82352941,e2b76c18-fa1f-432e-8a8c-9bd46ef1e188,5,220.464,222.307,space,1,0.347,,0,18,18,18,1,S,space,,,,,,,,,,
,,,,,R_99uHQVoDICQ66j4,001,2025-07-27_21h05.39.874,continuous_performance_test,2024.2.4,MacIntel,58.82352941,e2b76c18-fa1f-432e-8a8c-9bd46ef1e188,5,222.308,223.858,space,1,0.362,,0,19,19,6,1,G,space,,,,,,,,,,
,,,,,R_99uHQVoDICQ66j4,001,2025-07-27_21h05.39.874,continuous_performance_test,2024.2.4,MacIntel,58.82352941,e2b76c18-fa1f-432e-8a8c-9bd46ef1e188,5,223.859,225.648,space,1,0.321,,0,20,20,1,1,B,space,,,,,,,,,,
,,,,,R_99uHQVoDICQ66j4,001,2025-07-27_21h05.39.874,continuous_performance_test,2024.2.4,MacIntel,58.82352941,e2b76c18-fa1f-432e-8a8c-9bd46ef1e188,5,225.649,227.25,space,1,0.327,,0,21,21,2,1,C,space,,,,,,,,,,
,,,,,R_99uHQVoDICQ66j4,001,2025-07-27_21h05.39.874,continuous_performance_test,2024.2.4,MacIntel,58.82352941,e2b76c18-fa1f-432e-8a8c-9bd46ef1e188,5,227.251,228.795,space,1,0.333,,0,22,22,4,1,E,space,,,,,,,,,,
,,,,,R_99uHQVoDICQ66j4,001,2025-07-27_21h05.39.874,continuous_performance_test,2024.2.4,MacIntel,58.82352941,e2b76c18-fa1f-432e-8a8c-9bd46ef1e188,5,228.795,230.536,space,1,0.306,,0,23,23,7,1,H,space,,,,,,,,,,
,,,,,R_99uHQVoDICQ66j4,001,2025-07-27_21h05.39.874,continuous_performance_test,2024.2.4,MacIntel,58.82352941,e2b76c18-fa1f-432e-8a8c-9bd46ef1e188,5,230.538,232.133,space,1,0.286,,0,24,24,3,1,D,space,,,,,,,,,,
,,,,,R_99uHQVoDICQ66j4,001,2025-07-27_21h05.39.874,continuous_performance_test,2024.2.4,MacIntel,58.82352941,e2b76c18-fa1f-432e-8a8c-9bd46ef1e188,5,232.135,233.729,space,1,0.316,,0,25,25,19,1,T,space,,,,,,,,,,
,,,,,R_99uHQVoDICQ66j4,001,2025-07-27_21h05.39.874,continuous_performance_test,2024.2.4,MacIntel,58.82352941,e2b76c18-fa1f-432e-8a8c-9bd46ef1e188,5,233.731,235.674,space,1,0.336,,0,26,26,20,1,U,space,,,,,,,,,,
,,,,,R_99uHQVoDICQ66j4,001,2025-07-27_21h05.39.874,continuous_performance_test,2024.2.4,MacIntel,58.82352941,e2b76c18-fa1f-432e-8a8c-9bd46ef1e188,5,235.676,237.473,space,1,0.328,,0,27,27,12,1,M,space,,,,,,,,,,
,,,,,R_99uHQVoDICQ66j4,001,2025-07-27_21h05.39.874,continuous_performance_test,2024.2.4,MacIntel,58.82352941,e2b76c18-fa1f-432e-8a8c-9bd46ef1e188,5,237.474,239.219,space,1,0.28,,0,28,28,24,1,Z,space,,,,,,,,,,
,,,,,R_99uHQVoDICQ66j4,001,2025-07-27_21h05.39.874,continuous_performance_test,2024.2.4,MacIntel,58.82352941,e2b76c18-fa1f-432e-8a8c-9bd46ef1e188,5,239.22,240.864,space,1,0.278,,0,29,29,15,1,P,space,,,,,,,,,,
,,,,,R_99uHQVoDICQ66j4,001,2025-07-27_21h05.39.874,continuous_performance_test,2024.2.4,MacIntel,58.82352941,e2b76c18-fa1f-432e-8a8c-9bd46ef1e188,5,242.514,244.456,space,1,0.338,,0,0,0,15,1,P,space,240.865,242.497,space,1.594,,,,,,
,,,,,R_99uHQVoDICQ66j4,001,2025-07-27_21h05.39.874,continuous_performance_test,2024.2.4,MacIntel,58.82352941,e2b76c18-fa1f-432e-8a8c-9bd46ef1e188,5,244.457,246.1,space,0,0.296,,0,1,1,26,1,X,,,,,,,,,,,
,,,,,R_99uHQVoDICQ66j4,001,2025-07-27_21h05.39.874,continuous_performance_test,2024.2.4,MacIntel,58.82352941,e2b76c18-fa1f-432e-8a8c-9bd46ef1e188,5,246.102,247.843,space,1,0.316,,0,2,2,13,1,N,space,,,,,,,,,,
,,,,,R_99uHQVoDICQ66j4,001,2025-07-27_21h05.39.874,continuous_performance_test,2024.2.4,MacIntel,58.82352941,e2b76c18-fa1f-432e-8a8c-9bd46ef1e188,5,247.844,249.837,space,1,0.361,,0,3,3,2,1,C,space,,,,,,,,,,
,,,,,R_99uHQVoDICQ66j4,001,2025-07-27_21h05.39.874,continuous_performance_test,2024.2.4,MacIntel,58.82352941,e2b76c18-fa1f-432e-8a8c-9bd46ef1e188,5,249.838,251.683,space,1,0.328,,0,4,4,16,1,Q,space,,,,,,,,,,
,,,,,R_99uHQVoDICQ66j4,001,2025-07-27_21h05.39.874,continuous_performance_test,2024.2.4,MacIntel,58.82352941,e2b76c18-fa1f-432e-8a8c-9bd46ef1e188,5,251.684,253.334,space,1,0.378,,0,5,5,22,1,W,space,,,,,,,,,,
,,,,,R_99uHQVoDICQ66j4,001,2025-07-27_21h05.39.874,continuous_performance_test,2024.2.4,MacIntel,58.82352941,e2b76c18-fa1f-432e-8a8c-9bd46ef1e188,5,253.335,255.276,space,1,0.318,,0,6,6,11,1,L,space,,,,,,,,,,
,,,,,R_99uHQVoDICQ66j4,001,2025-07-27_21h05.39.874,continuous_performance_test,2024.2.4,MacIntel,58.82352941,e2b76c18-fa1f-432e-8a8c-9bd46ef1e188,5,255.277,257.024,space,1,0.461,,0,7,7,14,1,O,space,,,,,,,,,,
,,,,,R_99uHQVoDICQ66j4,001,2025-07-27_21h05.39.874,continuous_performance_test,2024.2.4,MacIntel,58.82352941,e2b76c18-fa1f-432e-8a8c-9bd46ef1e188,5,257.025,259.015,space,0,0.286,,0,8,8,27,1,X,,,,,,,,,,,
,,,,,R_99uHQVoDICQ66j4,001,2025-07-27_21h05.39.874,continuous_performance_test,2024.2.4,MacIntel,58.82352941,e2b76c18-fa1f-432e-8a8c-9bd46ef1e188,5,259.016,260.711,space,1,0.311,,0,9,9,24,1,Z,space,,,,,,,,,,
,,,,,R_99uHQVoDICQ66j4,001,2025-07-27_21h05.39.874,continuous_performance_test,2024.2.4,MacIntel,58.82352941,e2b76c18-fa1f-432e-8a8c-9bd46ef1e188,5,260.713,262.361,space,1,0.374,,0,10,10,5,1,F,space,,,,,,,,,,
,,,,,R_99uHQVoDICQ66j4,001,2025-07-27_21h05.39.874,continuous_performance_test,2024.2.4,MacIntel,58.82352941,e2b76c18-fa1f-432e-8a8c-9bd46ef1e188,5,262.362,264.155,space,1,0.329,,0,11,11,3,1,D,space,,,,,,,,,,
,,,,,R_99uHQVoDICQ66j4,001,2025-07-27_21h05.39.874,continuous_performance_test,2024.2.4,MacIntel,58.82352941,e2b76c18-fa1f-432e-8a8c-9bd46ef1e188,5,264.156,265.904,space,0,0.3,,0,12,12,25,1,X,,,,,,,,,,,
,,,,,R_99uHQVoDICQ66j4,001,2025-07-27_21h05.39.874,continuous_performance_test,2024.2.4,MacIntel,58.82352941,e2b76c18-fa1f-432e-8a8c-9bd46ef1e188,5,265.904,267.643,,1,,,0,13,13,28,1,X,,,,,,,,,,,
,,,,,R_99uHQVoDICQ66j4,001,2025-07-27_21h05.39.874,continuous_performance_test,2024.2.4,MacIntel,58.82352941,e2b76c18-fa1f-432e-8a8c-9bd46ef1e188,5,267.644,269.389,space,1,0.809,,0,14,14,9,1,J,space,,,,,,,,,,
,,,,,R_99uHQVoDICQ66j4,001,2025-07-27_21h05.39.874,continuous_performance_test,2024.2.4,MacIntel,58.82352941,e2b76c18-fa1f-432e-8a8c-9bd46ef1e188,5,269.391,271.083,space,1,0.428,,0,15,15,17,1,R,space,,,,,,,,,,
,,,,,R_99uHQVoDICQ66j4,001,2025-07-27_21h05.39.874,continuous_performance_test,2024.2.4,MacIntel,58.82352941,e2b76c18-fa1f-432e-8a8c-9bd46ef1e188,5,271.085,272.631,space,1,0.483,,0,16,16,20,1,U,space,,,,,,,,,,
,,,,,R_99uHQVoDICQ66j4,001,2025-07-27_21h05.39.874,continuous_performance_test,2024.2.4,MacIntel,58.82352941,e2b76c18-fa1f-432e-8a8c-9bd46ef1e188,5,272.632,274.476,space,1,0.324,,0,17,17,21,1,V,space,,,,,,,,,,
,,,,,R_99uHQVoDICQ66j4,001,2025-07-27_21h05.39.874,continuous_performance_test,2024.2.4,MacIntel,58.82352941,e2b76c18-fa1f-432e-8a8c-9bd46ef1e188,5,274.477,276.271,space,1,0.379,,0,18,18,19,1,T,space,,,,,,,,,,
,,,,,R_99uHQVoDICQ66j4,001,2025-07-27_21h05.39.874,continuous_performance_test,2024.2.4,MacIntel,58.82352941,e2b76c18-fa1f-432e-8a8c-9bd46ef1e188,5,276.273,277.818,,1,,,0,19,19,29,1,X,,,,,,,,,,,
,,,,,R_99uHQVoDICQ66j4,001,2025-07-27_21h05.39.874,continuous_performance_test,2024.2.4,MacIntel,58.82352941,e2b76c18-fa1f-432e-8a8c-9bd46ef1e188,5,277.819,279.663,space,1,0.445,,0,20,20,7,1,H,space,,,,,,,,,,
,,,,,R_99uHQVoDICQ66j4,001,2025-07-27_21h05.39.874,continuous_performance_test,2024.2.4,MacIntel,58.82352941,e2b76c18-fa1f-432e-8a8c-9bd46ef1e188,5,279.664,281.514,space,1,0.411,,0,21,21,0,1,A,space,,,,,,,,,,
,,,,,R_99uHQVoDICQ66j4,001,2025-07-27_21h05.39.874,continuous_performance_test,2024.2.4,MacIntel,58.82352941,e2b76c18-fa1f-432e-8a8c-9bd46ef1e188,5,281.514,283.453,space,1,0.379,,0,22,22,8,1,I,space,,,,,,,,,,
,,,,,R_99uHQVoDICQ66j4,001,2025-07-27_21h05.39.874,continuous_performance_test,2024.2.4,MacIntel,58.82352941,e2b76c18-fa1f-432e-8a8c-9bd46ef1e188,5,283.454,285.298,space,1,0.375,,0,23,23,6,1,G,space,,,,,,,,,,
,,,,,R_99uHQVoDICQ66j4,001,2025-07-27_21h05.39.874,continuous_performance_test,2024.2.4,MacIntel,58.82352941,e2b76c18-fa1f-432e-8a8c-9bd46ef1e188,5,285.299,287.094,space,1,0.346,,0,24,24,1,1,B,space,,,,,,,,,,
,,,,,R_99uHQVoDICQ66j4,001,2025-07-27_21h05.39.874,continuous_performance_test,2024.2.4,MacIntel,58.82352941,e2b76c18-fa1f-432e-8a8c-9bd46ef1e188,5,287.094,289.039,space,1,0.328,,0,25,25,10,1,K,space,,,,,,,,,,
,,,,,R_99uHQVoDICQ66j4,001,2025-07-27_21h05.39.874,continuous_performance_test,2024.2.4,MacIntel,58.82352941,e2b76c18-fa1f-432e-8a8c-9bd46ef1e188,5,289.041,291.033,space,1,0.383,,0,26,26,12,1,M,space,,,,,,,,,,
,,,,,R_99uHQVoDICQ66j4,001,2025-07-27_21h05.39.874,continuous_performance_test,2024.2.4,MacIntel,58.82352941,e2b76c18-fa1f-432e-8a8c-9bd46ef1e188,5,291.035,292.781,space,1,0.449,,0,27,27,4,1,E,space,,,,,,,,,,
,,,,,R_99uHQVoDICQ66j4,001,2025-07-27_21h05.39.874,continuous_performance_test,2024.2.4,MacIntel,58.82352941,e2b76c18-fa1f-432e-8a8c-9bd46ef1e188,5,292.782,294.675,space,1,0.441,,0,28,28,18,1,S,space,,,,,,,,,,
,,,,,R_99uHQVoDICQ66j4,001,2025-07-27_21h05.39.874,continuous_performance_test,2024.2.4,MacIntel,58.82352941,e2b76c18-fa1f-432e-8a8c-9bd46ef1e188,5,294.677,296.325,space,1,0.627,,0,29,29,23,1,Y,space,,,,,,,,,,
,,,,,R_99uHQVoDICQ66j4,001,2025-07-27_21h05.39.874,continuous_performance_test,2024.2.4,MacIntel,58.82352941,e2b76c18-fa1f-432e-8a8c-9bd46ef1e188,5,311.327,313.016,,1,,,0,0,0,29,1,X,,296.327,311.317,,,,,,,,
,,,,,R_99uHQVoDICQ66j4,001,2025-07-27_21h05.39.874,continuous_performance_test,2024.2.4,MacIntel,58.82352941,e2b76c18-fa1f-432e-8a8c-9bd46ef1e188,5,313.017,315.007,,1,,,0,1,1,27,1,X,,,,,,,,,,,
,,,,,R_99uHQVoDICQ66j4,001,2025-07-27_21h05.39.874,continuous_performance_test,2024.2.4,MacIntel,58.82352941,e2b76c18-fa1f-432e-8a8c-9bd46ef1e188,5,315.008,316.553,space,1,0.694,,0,2,2,4,1,E,space,,,,,,,,,,
,,,,,R_99uHQVoDICQ66j4,001,2025-07-27_21h05.39.874,continuous_performance_test,2024.2.4,MacIntel,58.82352941,e2b76c18-fa1f-432e-8a8c-9bd46ef1e188,5,316.554,318.303,space,1,0.318,,0,3,3,21,1,V,space,,,,,,,,,,
,,,,,R_99uHQVoDICQ66j4,001,2025-07-27_21h05.39.874,continuous_performance_test,2024.2.4,MacIntel,58.82352941,e2b76c18-fa1f-432e-8a8c-9bd46ef1e188,5,318.304,320.144,space,1,0.316,,0,4,4,18,1,S,space,,,,,,,,,,
,,,,,R_99uHQVoDICQ66j4,001,2025-07-27_21h05.39.874,continuous_performance_test,2024.2.4,MacIntel,58.82352941,e2b76c18-fa1f-432e-8a8c-9bd46ef1e188,5,320.146,321.691,space,1,0.41,,0,5,5,2,1,C,space,,,,,,,,,,
,,,,,R_99uHQVoDICQ66j4,001,2025-07-27_21h05.39.874,continuous_performance_test,2024.2.4,MacIntel,58.82352941,e2b76c18-fa1f-432e-8a8c-9bd46ef1e188,5,321.692,323.337,space,1,0.433,,0,6,6,15,1,P,space,,,,,,,,,,
,,,,,R_99uHQVoDICQ66j4,001,2025-07-27_21h05.39.874,continuous_performance_test,2024.2.4,MacIntel,58.82352941,e2b76c18-fa1f-432e-8a8c-9bd46ef1e188,5,323.338,324.987,space,1,0.394,,0,7,7,0,1,A,space,,,,,,,,,,
,,,,,R_99uHQVoDICQ66j4,001,2025-07-27_21h05.39.874,continuous_performance_test,2024.2.4,MacIntel,58.82352941,e2b76c18-fa1f-432e-8a8c-9bd46ef1e188,5,324.988,326.932,,1,,,0,8,8,26,1,X,,,,,,,,,,,
,,,,,R_99uHQVoDICQ66j4,001,2025-07-27_21h05.39.874,continuous_performance_test,2024.2.4,MacIntel,58.82352941,e2b76c18-fa1f-432e-8a8c-9bd46ef1e188,5,326.933,328.623,space,1,0.431,,0,9,9,24,1,Z,space,,,,,,,,,,
,,,,,R_99uHQVoDICQ66j4,001,2025-07-27_21h05.39.874,continuous_performance_test,2024.2.4,MacIntel,58.82352941,e2b76c18-fa1f-432e-8a8c-9bd46ef1e188,5,328.625,330.217,space,1,0.399,,0,10,10,20,1,U,space,,,,,,,,,,
,,,,,R_99uHQVoDICQ66j4,001,2025-07-27_21h05.39.874,continuous_performance_test,2024.2.4,MacIntel,58.82352941,e2b76c18-fa1f-432e-8a8c-9bd46ef1e188,5,330.218,332.112,space,1,0.382,,0,11,11,7,1,H,space,,,,,,,,,,
,,,,,R_99uHQVoDICQ66j4,001,2025-07-27_21h05.39.874,continuous_performance_test,2024.2.4,MacIntel,58.82352941,e2b76c18-fa1f-432e-8a8c-9bd46ef1e188,5,332.113,333.808,space,1,0.449,,0,12,12,22,1,W,space,,,,,,,,,,
,,,,,R_99uHQVoDICQ66j4,001,2025-07-27_21h05.39.874,continuous_performance_test,2024.2.4,MacIntel,58.82352941,e2b76c18-fa1f-432e-8a8c-9bd46ef1e188,5,333.809,335.404,space,1,0.381,,0,13,13,3,1,D,space,,,,,,,,,,
,,,,,R_99uHQVoDICQ66j4,001,2025-07-27_21h05.39.874,continuous_performance_test,2024.2.4,MacIntel,58.82352941,e2b76c18-fa1f-432e-8a8c-9bd46ef1e188,5,335.405,337,space,1,0.416,,0,14,14,16,1,Q,space,,,,,,,,,,
,,,,,R_99uHQVoDICQ66j4,001,2025-07-27_21h05.39.874,continuous_performance_test,2024.2.4,MacIntel,58.82352941,e2b76c18-fa1f-432e-8a8c-9bd46ef1e188,5,337.001,338.696,space,1,0.35,,0,15,15,6,1,G,space,,,,,,,,,,
,,,,,R_99uHQVoDICQ66j4,001,2025-07-27_21h05.39.874,continuous_performance_test,2024.2.4,MacIntel,58.82352941,e2b76c18-fa1f-432e-8a8c-9bd46ef1e188,5,338.697,340.641,space,1,0.366,,0,16,16,9,1,J,space,,,,,,,,,,
,,,,,R_99uHQVoDICQ66j4,001,2025-07-27_21h05.39.874,continuous_performance_test,2024.2.4,MacIntel,58.82352941,e2b76c18-fa1f-432e-8a8c-9bd46ef1e188,5,340.642,342.437,space,1,0.352,,0,17,17,17,1,R,space,,,,,,,,,,
,,,,,R_99uHQVoDICQ66j4,001,2025-07-27_21h05.39.874,continuous_performance_test,2024.2.4,MacIntel,58.82352941,e2b76c18-fa1f-432e-8a8c-9bd46ef1e188,5,342.438,344.281,space,1,0.414,,0,18,18,11,1,L,space,,,,,,,,,,
,,,,,R_99uHQVoDICQ66j4,001,2025-07-27_21h05.39.874,continuous_performance_test,2024.2.4,MacIntel,58.82352941,e2b76c18-fa1f-432e-8a8c-9bd46ef1e188,5,344.283,345.828,space,1,0.349,,0,19,19,23,1,Y,space,,,,,,,,,,
,,,,,R_99uHQVoDICQ66j4,001,2025-07-27_21h05.39.874,continuous_performance_test,2024.2.4,MacIntel,58.82352941,e2b76c18-fa1f-432e-8a8c-9bd46ef1e188,5,345.829,347.524,space,1,0.399,,0,20,20,19,1,T,space,,,,,,,,,,
,,,,,R_99uHQVoDICQ66j4,001,2025-07-27_21h05.39.874,continuous_performance_test,2024.2.4,MacIntel,58.82352941,e2b76c18-fa1f-432e-8a8c-9bd46ef1e188,5,347.525,349.319,space,1,0.451,,0,21,21,14,1,O,space,,,,,,,,,,
,,,,,R_99uHQVoDICQ66j4,001,2025-07-27_21h05.39.874,continuous_performance_test,2024.2.4,MacIntel,58.82352941,e2b76c18-fa1f-432e-8a8c-9bd46ef1e188,5,349.32,350.966,,1,,,0,22,22,28,1,X,,,,,,,,,,,
,,,,,R_99uHQVoDICQ66j4,001,2025-07-27_21h05.39.874,continuous_performance_test,2024.2.4,MacIntel,58.82352941,e2b76c18-fa1f-432e-8a8c-9bd46ef1e188,5,350.967,352.861,,1,,,0,23,23,25,1,X,,,,,,,,,,,
,,,,,R_99uHQVoDICQ66j4,001,2025-07-27_21h05.39.874,continuous_performance_test,2024.2.4,MacIntel,58.82352941,e2b76c18-fa1f-432e-8a8c-9bd46ef1e188,5,352.862,354.855,space,1,0.499,,0,24,24,10,1,K,space,,,,,,,,,,
,,,,,R_99uHQVoDICQ66j4,001,2025-07-27_21h05.39.874,continuous_performance_test,2024.2.4,MacIntel,58.82352941,e2b76c18-fa1f-432e-8a8c-9bd46ef1e188,5,354.857,356.501,space,1,0.401,,0,25,25,8,1,I,space,,,,,,,,,,
,,,,,R_99uHQVoDICQ66j4,001,2025-07-27_21h05.39.874,continuous_performance_test,2024.2.4,MacIntel,58.82352941,e2b76c18-fa1f-432e-8a8c-9bd46ef1e188,5,356.502,358.097,space,1,0.381,,0,26,26,13,1,N,space,,,,,,,,,,
,,,,,R_99uHQVoDICQ66j4,001,2025-07-27_21h05.39.874,continuous_performance_test,2024.2.4,MacIntel,58.82352941,e2b76c18-fa1f-432e-8a8c-9bd46ef1e188,5,358.098,359.785,space,1,0.382,,0,27,27,12,1,M,space,,,,,,,,,,
,,,,,R_99uHQVoDICQ66j4,001,2025-07-27_21h05.39.874,continuous_performance_test,2024.2.4,MacIntel,58.82352941,e2b76c18-fa1f-432e-8a8c-9bd46ef1e188,5,359.786,361.578,space,1,0.35,,0,28,28,5,1,F,space,,,,,,,,,,
,,,,,R_99uHQVoDICQ66j4,001,2025-07-27_21h05.39.874,continuous_performance_test,2024.2.4,MacIntel,58.82352941,e2b76c18-fa1f-432e-8a8c-9bd46ef1e188,5,361.579,363.583,space,1,0.369,,0,29,29,1,1,B,space,,,,,,,,,,
,,,,,R_99uHQVoDICQ66j4,001,2025-07-27_21h05.39.874,continuous_performance_test,2024.2.4,MacIntel,58.82352941,e2b76c18-fa1f-432e-8a8c-9bd46ef1e188,5,371.766,373.515,space,1,0.361,,0,0,0,18,1,S,space,363.585,371.748,space,8.127,,,,,,
,,,,,R_99uHQVoDICQ66j4,001,2025-07-27_21h05.39.874,continuous_performance_test,2024.2.4,MacIntel,58.82352941,e2b76c18-fa1f-432e-8a8c-9bd46ef1e188,5,373.515,375.522,space,1,0.402,,0,1,1,19,1,T,space,,,,,,,,,,
,,,,,R_99uHQVoDICQ66j4,001,2025-07-27_21h05.39.874,continuous_performance_test,2024.2.4,MacIntel,58.82352941,e2b76c18-fa1f-432e-8a8c-9bd46ef1e188,5,375.523,377.471,space,1,0.378,,0,2,2,11,1,L,space,,,,,,,,,,
,,,,,R_99uHQVoDICQ66j4,001,2025-07-27_21h05.39.874,continuous_performance_test,2024.2.4,MacIntel,58.82352941,e2b76c18-fa1f-432e-8a8c-9bd46ef1e188,5,377.472,379.063,space,1,0.483,,0,3,3,8,1,I,space,,,,,,,,,,
,,,,,R_99uHQVoDICQ66j4,001,2025-07-27_21h05.39.874,continuous_performance_test,2024.2.4,MacIntel,58.82352941,e2b76c18-fa1f-432e-8a8c-9bd46ef1e188,5,379.064,380.91,space,0,0.412,,0,4,4,28,1,X,,,,,,,,,,,
,,,,,R_99uHQVoDICQ66j4,001,2025-07-27_21h05.39.874,continuous_performance_test,2024.2.4,MacIntel,58.82352941,e2b76c18-fa1f-432e-8a8c-9bd46ef1e188,5,380.911,382.903,space,1,0.429,,0,5,5,17,1,R,space,,,,,,,,,,
,,,,,R_99uHQVoDICQ66j4,001,2025-07-27_21h05.39.874,continuous_performance_test,2024.2.4,MacIntel,58.82352941,e2b76c18-fa1f-432e-8a8c-9bd46ef1e188,5,382.905,384.599,,1,,,0,6,6,29,1,X,,,,,,,,,,,
,,,,,R_99uHQVoDICQ66j4,001,2025-07-27_21h05.39.874,continuous_performance_test,2024.2.4,MacIntel,58.82352941,e2b76c18-fa1f-432e-8a8c-9bd46ef1e188,5,384.6,386.495,,1,,,0,7,7,27,1,X,,,,,,,,,,,
,,,,,R_99uHQVoDICQ66j4,001,2025-07-27_21h05.39.874,continuous_performance_test,2024.2.4,MacIntel,58.82352941,e2b76c18-fa1f-432e-8a8c-9bd46ef1e188,5,386.497,388.493,space,1,0.479,,0,8,8,1,1,B,space,,,,,,,,,,
,,,,,R_99uHQVoDICQ66j4,001,2025-07-27_21h05.39.874,continuous_performance_test,2024.2.4,MacIntel,58.82352941,e2b76c18-fa1f-432e-8a8c-9bd46ef1e188,5,388.494,390.38,space,1,0.478,,0,9,9,22,1,W,space,,,,,,,,,,
,,,,,R_99uHQVoDICQ66j4,001,2025-07-27_21h05.39.874,continuous_performance_test,2024.2.4,MacIntel,58.82352941,e2b76c18-fa1f-432e-8a8c-9bd46ef1e188,5,390.381,392.03,space,1,0.459,,0,10,10,14,1,O,space,,,,,,,,,,
,,,,,R_99uHQVoDICQ66j4,001,2025-07-27_21h05.39.874,continuous_performance_test,2024.2.4,MacIntel,58.82352941,e2b76c18-fa1f-432e-8a8c-9bd46ef1e188,5,392.032,393.824,,1,,,0,11,11,26,1,X,,,,,,,,,,,
,,,,,R_99uHQVoDICQ66j4,001,2025-07-27_21h05.39.874,continuous_performance_test,2024.2.4,MacIntel,58.82352941,e2b76c18-fa1f-432e-8a8c-9bd46ef1e188,5,393.827,395.721,,1,,,0,12,12,25,1,X,,,,,,,,,,,
,,,,,R_99uHQVoDICQ66j4,001,2025-07-27_21h05.39.874,continuous_performance_test,2024.2.4,MacIntel,58.82352941,e2b76c18-fa1f-432e-8a8c-9bd46ef1e188,5,395.722,397.632,space,1,0.428,,0,13,13,3,1,D,space,,,,,,,,,,
,,,,,R_99uHQVoDICQ66j4,001,2025-07-27_21h05.39.874,continuous_performance_test,2024.2.4,MacIntel,58.82352941,e2b76c18-fa1f-432e-8a8c-9bd46ef1e188,5,397.634,399.478,space,1,0.377,,0,14,14,20,1,U,space,,,,,,,,,,
,,,,,R_99uHQVoDICQ66j4,001,2025-07-27_21h05.39.874,continuous_performance_test,2024.2.4,MacIntel,58.82352941,e2b76c18-fa1f-432e-8a8c-9bd46ef1e188,5,399.48,401.026,space,1,0.531,,0,15,15,24,1,Z,space,,,,,,,,,,
,,,,,R_99uHQVoDICQ66j4,001,2025-07-27_21h05.39.874,continuous_performance_test,2024.2.4,MacIntel,58.82352941,e2b76c18-fa1f-432e-8a8c-9bd46ef1e188,5,401.027,402.571,space,1,0.46,,0,16,16,9,1,J,space,,,,,,,,,,
,,,,,R_99uHQVoDICQ66j4,001,2025-07-27_21h05.39.874,continuous_performance_test,2024.2.4,MacIntel,58.82352941,e2b76c18-fa1f-432e-8a8c-9bd46ef1e188,5,402.572,404.267,space,1,0.425,,0,17,17,0,1,A,space,,,,,,,,,,
,,,,,R_99uHQVoDICQ66j4,001,2025-07-27_21h05.39.874,continuous_performance_test,2024.2.4,MacIntel,58.82352941,e2b76c18-fa1f-432e-8a8c-9bd46ef1e188,5,404.269,405.917,space,1,0.462,,0,18,18,12,1,M,space,,,,,,,,,,
,,,,,R_99uHQVoDICQ66j4,001,2025-07-27_21h05.39.874,continuous_performance_test,2024.2.4,MacIntel,58.82352941,e2b76c18-fa1f-432e-8a8c-9bd46ef1e188,5,405.917,407.726,space,1,0.411,,0,19,19,15,1,P,space,,,,,,,,,,
,,,,,R_99uHQVoDICQ66j4,001,2025-07-27_21h05.39.874,continuous_performance_test,2024.2.4,MacIntel,58.82352941,e2b76c18-fa1f-432e-8a8c-9bd46ef1e188,5,407.727,409.474,space,1,0.344,,0,20,20,23,1,Y,space,,,,,,,,,,
,,,,,R_99uHQVoDICQ66j4,001,2025-07-27_21h05.39.874,continuous_performance_test,2024.2.4,MacIntel,58.82352941,e2b76c18-fa1f-432e-8a8c-9bd46ef1e188,5,409.475,411.165,space,1,0.373,,0,21,21,21,1,V,space,,,,,,,,,,
,,,,,R_99uHQVoDICQ66j4,001,2025-07-27_21h05.39.874,continuous_performance_test,2024.2.4,MacIntel,58.82352941,e2b76c18-fa1f-432e-8a8c-9bd46ef1e188,5,411.166,412.817,space,1,0.396,,0,22,22,7,1,H,space,,,,,,,,,,
,,,,,R_99uHQVoDICQ66j4,001,2025-07-27_21h05.39.874,continuous_performance_test,2024.2.4,MacIntel,58.82352941,e2b76c18-fa1f-432e-8a8c-9bd46ef1e188,5,412.818,414.678,space,1,0.395,,0,23,23,16,1,Q,space,,,,,,,,,,
,,,,,R_99uHQVoDICQ66j4,001,2025-07-27_21h05.39.874,continuous_performance_test,2024.2.4,MacIntel,58.82352941,e2b76c18-fa1f-432e-8a8c-9bd46ef1e188,5,414.679,416.387,space,1,0.459,,0,24,24,13,1,N,space,,,,,,,,,,
,,,,,R_99uHQVoDICQ66j4,001,2025-07-27_21h05.39.874,continuous_performance_test,2024.2.4,MacIntel,58.82352941,e2b76c18-fa1f-432e-8a8c-9bd46ef1e188,5,416.388,418.182,space,1,0.403,,0,25,25,5,1,F,space,,,,,,,,,,
,,,,,R_99uHQVoDICQ66j4,001,2025-07-27_21h05.39.874,continuous_performance_test,2024.2.4,MacIntel,58.82352941,e2b76c18-fa1f-432e-8a8c-9bd46ef1e188,5,418.184,420.027,space,1,0.501,,0,26,26,10,1,K,space,,,,,,,,,,
,,,,,R_99uHQVoDICQ66j4,001,2025-07-27_21h05.39.874,continuous_performance_test,2024.2.4,MacIntel,58.82352941,e2b76c18-fa1f-432e-8a8c-9bd46ef1e188,5,420.028,421.928,space,1,0.434,,0,27,27,6,1,G,space,,,,,,,,,,
,,,,,R_99uHQVoDICQ66j4,001,2025-07-27_21h05.39.874,continuous_performance_test,2024.2.4,MacIntel,58.82352941,e2b76c18-fa1f-432e-8a8c-9bd46ef1e188,5,421.93,423.568,space,1,0.444,,0,28,28,4,1,E,space,,,,,,,,,,
,,,,,R_99uHQVoDICQ66j4,001,2025-07-27_21h05.39.874,continuous_performance_test,2024.2.4,MacIntel,58.82352941,e2b76c18-fa1f-432e-8a8c-9bd46ef1e188,5,423.57,425.212,space,1,0.417,,0,29,29,2,1,C,space,,,,,,,,,,
,,,,,R_99uHQVoDICQ66j4,001,2025-07-27_21h05.39.874,continuous_performance_test,2024.2.4,MacIntel,58.82352941,e2b76c18-fa1f-432e-8a8c-9bd46ef1e188,5,432.746,434.688,space,1,0.364,,0,0,0,14,1,O,space,425.214,432.729,space,7.48,,,,,,
,,,,,R_99uHQVoDICQ66j4,001,2025-07-27_21h05.39.874,continuous_performance_test,2024.2.4,MacIntel,58.82352941,e2b76c18-fa1f-432e-8a8c-9bd46ef1e188,5,434.689,436.634,space,1,0.416,,0,1,1,16,1,Q,space,,,,,,,,,,
,,,,,R_99uHQVoDICQ66j4,001,2025-07-27_21h05.39.874,continuous_performance_test,2024.2.4,MacIntel,58.82352941,e2b76c18-fa1f-432e-8a8c-9bd46ef1e188,5,436.635,438.578,space,1,0.382,,0,2,2,15,1,P,space,,,,,,,,,,
,,,,,R_99uHQVoDICQ66j4,001,2025-07-27_21h05.39.874,continuous_performance_test,2024.2.4,MacIntel,58.82352941,e2b76c18-fa1f-432e-8a8c-9bd46ef1e188,5,438.579,440.573,space,1,0.382,,0,3,3,1,1,B,space,,,,,,,,,,
,,,,,R_99uHQVoDICQ66j4,001,2025-07-27_21h05.39.874,continuous_performance_test,2024.2.4,MacIntel,58.82352941,e2b76c18-fa1f-432e-8a8c-9bd46ef1e188,5,440.574,442.518,space,1,0.415,,0,4,4,2,1,C,space,,,,,,,,,,
,,,,,R_99uHQVoDICQ66j4,001,2025-07-27_21h05.39.874,continuous_performance_test,2024.2.4,MacIntel,58.82352941,e2b76c18-fa1f-432e-8a8c-9bd46ef1e188,5,442.519,444.366,space,1,0.393,,0,5,5,19,1,T,space,,,,,,,,,,
,,,,,R_99uHQVoDICQ66j4,001,2025-07-27_21h05.39.874,continuous_performance_test,2024.2.4,MacIntel,58.82352941,e2b76c18-fa1f-432e-8a8c-9bd46ef1e188,5,444.367,446.312,space,1,0.395,,0,6,6,23,1,Y,space,,,,,,,,,,
,,,,,R_99uHQVoDICQ66j4,001,2025-07-27_21h05.39.874,continuous_performance_test,2024.2.4,MacIntel,58.82352941,e2b76c18-fa1f-432e-8a8c-9bd46ef1e188,5,446.313,448.155,space,1,0.376,,0,7,7,22,1,W,space,,,,,,,,,,
,,,,,R_99uHQVoDICQ66j4,001,2025-07-27_21h05.39.874,continuous_performance_test,2024.2.4,MacIntel,58.82352941,e2b76c18-fa1f-432e-8a8c-9bd46ef1e188,5,448.157,449.806,space,1,0.428,,0,8,8,7,1,H,space,,,,,,,,,,
,,,,,R_99uHQVoDICQ66j4,001,2025-07-27_21h05.39.874,continuous_performance_test,2024.2.4,MacIntel,58.82352941,e2b76c18-fa1f-432e-8a8c-9bd46ef1e188,5,449.807,451.398,space,1,0.377,,0,9,9,13,1,N,space,,,,,,,,,,
,,,,,R_99uHQVoDICQ66j4,001,2025-07-27_21h05.39.874,continuous_performance_test,2024.2.4,MacIntel,58.82352941,e2b76c18-fa1f-432e-8a8c-9bd46ef1e188,5,451.4,452.993,space,1,0.396,,0,10,10,18,1,S,space,,,,,,,,,,
,,,,,R_99uHQVoDICQ66j4,001,2025-07-27_21h05.39.874,continuous_performance_test,2024.2.4,MacIntel,58.82352941,e2b76c18-fa1f-432e-8a8c-9bd46ef1e188,5,452.994,454.891,,1,,,0,11,11,29,1,X,,,,,,,,,,,
,,,,,R_99uHQVoDICQ66j4,001,2025-07-27_21h05.39.874,continuous_performance_test,2024.2.4,MacIntel,58.82352941,e2b76c18-fa1f-432e-8a8c-9bd46ef1e188,5,454.892,456.485,space,1,0.472,,0,12,12,20,1,U,space,,,,,,,,,,
,,,,,R_99uHQVoDICQ66j4,001,2025-07-27_21h05.39.874,continuous_performance_test,2024.2.4,MacIntel,58.82352941,e2b76c18-fa1f-432e-8a8c-9bd46ef1e188,5,456.486,458.23,,1,,,0,13,13,26,1,X,,,,,,,,,,,
,,,,,R_99uHQVoDICQ66j4,001,2025-07-27_21h05.39.874,continuous_performance_test,2024.2.4,MacIntel,58.82352941,e2b76c18-fa1f-432e-8a8c-9bd46ef1e188,5,458.231,460.125,,1,,,0,14,14,27,1,X,,,,,,,,,,,
,,,,,R_99uHQVoDICQ66j4,001,2025-07-27_21h05.39.874,continuous_performance_test,2024.2.4,MacIntel,58.82352941,e2b76c18-fa1f-432e-8a8c-9bd46ef1e188,5,460.127,461.823,space,1,0.501,,0,15,15,4,1,E,space,,,,,,,,,,
,,,,,R_99uHQVoDICQ66j4,001,2025-07-27_21h05.39.874,continuous_performance_test,2024.2.4,MacIntel,58.82352941,e2b76c18-fa1f-432e-8a8c-9bd46ef1e188,5,461.824,463.374,,1,,,0,16,16,28,1,X,,,,,,,,,,,
,,,,,R_99uHQVoDICQ66j4,001,2025-07-27_21h05.39.874,continuous_performance_test,2024.2.4,MacIntel,58.82352941,e2b76c18-fa1f-432e-8a8c-9bd46ef1e188,5,463.375,465.168,space,1,0.471,,0,17,17,8,1,I,space,,,,,,,,,,
,,,,,R_99uHQVoDICQ66j4,001,2025-07-27_21h05.39.874,continuous_performance_test,2024.2.4,MacIntel,58.82352941,e2b76c18-fa1f-432e-8a8c-9bd46ef1e188,5,465.169,467.111,space,1,0.377,,0,18,18,17,1,R,space,,,,,,,,,,
,,,,,R_99uHQVoDICQ66j4,001,2025-07-27_21h05.39.874,continuous_performance_test,2024.2.4,MacIntel,58.82352941,e2b76c18-fa1f-432e-8a8c-9bd46ef1e188,5,467.112,468.87,space,1,0.435,,0,19,19,21,1,V,space,,,,,,,,,,
,,,,,R_99uHQVoDICQ66j4,001,2025-07-27_21h05.39.874,continuous_performance_test,2024.2.4,MacIntel,58.82352941,e2b76c18-fa1f-432e-8a8c-9bd46ef1e188,5,468.872,470.471,space,1,0.41,,0,20,20,12,1,M,space,,,,,,,,,,
,,,,,R_99uHQVoDICQ66j4,001,2025-07-27_21h05.39.874,continuous_performance_test,2024.2.4,MacIntel,58.82352941,e2b76c18-fa1f-432e-8a8c-9bd46ef1e188,5,470.471,472.412,space,0,0.419,,0,21,21,25,1,X,,,,,,,,,,,
,,,,,R_99uHQVoDICQ66j4,001,2025-07-27_21h05.39.874,continuous_performance_test,2024.2.4,MacIntel,58.82352941,e2b76c18-fa1f-432e-8a8c-9bd46ef1e188,5,472.414,474.006,space,1,0.401,,0,22,22,6,1,G,space,,,,,,,,,,
,,,,,R_99uHQVoDICQ66j4,001,2025-07-27_21h05.39.874,continuous_performance_test,2024.2.4,MacIntel,58.82352941,e2b76c18-fa1f-432e-8a8c-9bd46ef1e188,5,474.007,475.901,space,1,0.449,,0,23,23,10,1,K,space,,,,,,,,,,
,,,,,R_99uHQVoDICQ66j4,001,2025-07-27_21h05.39.874,continuous_performance_test,2024.2.4,MacIntel,58.82352941,e2b76c18-fa1f-432e-8a8c-9bd46ef1e188,5,475.902,477.597,space,1,0.449,,0,24,24,0,1,A,space,,,,,,,,,,
,,,,,R_99uHQVoDICQ66j4,001,2025-07-27_21h05.39.874,continuous_performance_test,2024.2.4,MacIntel,58.82352941,e2b76c18-fa1f-432e-8a8c-9bd46ef1e188,5,477.598,479.193,space,1,0.631,,0,25,25,24,1,Z,space,,,,,,,,,,
,,,,,R_99uHQVoDICQ66j4,001,2025-07-27_21h05.39.874,continuous_performance_test,2024.2.4,MacIntel,58.82352941,e2b76c18-fa1f-432e-8a8c-9bd46ef1e188,5,479.194,480.988,space,1,0.4,,0,26,26,11,1,L,space,,,,,,,,,,
,,,,,R_99uHQVoDICQ66j4,001,2025-07-27_21h05.39.874,continuous_performance_test,2024.2.4,MacIntel,58.82352941,e2b76c18-fa1f-432e-8a8c-9bd46ef1e188,5,480.989,482.534,space,1,0.365,,0,27,27,9,1,J,space,,,,,,,,,,
,,,,,R_99uHQVoDICQ66j4,001,2025-07-27_21h05.39.874,continuous_performance_test,2024.2.4,MacIntel,58.82352941,e2b76c18-fa1f-432e-8a8c-9bd46ef1e188,5,482.535,484.483,space,1,0.426,,0,28,28,3,1,D,space,,,,,,,,,,
,,,,,R_99uHQVoDICQ66j4,001,2025-07-27_21h05.39.874,continuous_performance_test,2024.2.4,MacIntel,58.82352941,e2b76c18-fa1f-432e-8a8c-9bd46ef1e188,5,484.485,486.18,space,1,0.427,,0,29,29,5,1,F,space,,,,,,,,,,
,,,,,R_99uHQVoDICQ66j4,001,2025-07-27_21h05.39.874,continuous_performance_test,2024.2.4,MacIntel,58.82352941,e2b76c18-fa1f-432e-8a8c-9bd46ef1e188,5,492.939,494.639,space,1,0.365,,0,0,0,17,1,R,space,486.182,492.929,space,6.713,,,,,,
,,,,,R_99uHQVoDICQ66j4,001,2025-07-27_21h05.39.874,continuous_performance_test,2024.2.4,MacIntel,58.82352941,e2b76c18-fa1f-432e-8a8c-9bd46ef1e188,5,494.641,496.235,space,1,0.303,,0,1,1,10,1,K,space,,,,,,,,,,
,,,,,R_99uHQVoDICQ66j4,001,2025-07-27_21h05.39.874,continuous_performance_test,2024.2.4,MacIntel,58.82352941,e2b76c18-fa1f-432e-8a8c-9bd46ef1e188,5,496.237,498.229,space,1,0.313,,0,2,2,8,1,I,space,,,,,,,,,,
,,,,,R_99uHQVoDICQ66j4,001,2025-07-27_21h05.39.874,continuous_performance_test,2024.2.4,MacIntel,58.82352941,e2b76c18-fa1f-432e-8a8c-9bd46ef1e188,5,498.232,499.93,space,0,0.354,,0,3,3,27,1,X,,,,,,,,,,,
,,,,,R_99uHQVoDICQ66j4,001,2025-07-27_21h05.39.874,continuous_performance_test,2024.2.4,MacIntel,58.82352941,e2b76c18-fa1f-432e-8a8c-9bd46ef1e188,5,499.931,501.876,space,1,0.428,,0,4,4,21,1,V,space,,,,,,,,,,
,,,,,R_99uHQVoDICQ66j4,001,2025-07-27_21h05.39.874,continuous_performance_test,2024.2.4,MacIntel,58.82352941,e2b76c18-fa1f-432e-8a8c-9bd46ef1e188,5,501.876,503.816,space,1,0.343,,0,5,5,15,1,P,space,,,,,,,,,,
,,,,,R_99uHQVoDICQ66j4,001,2025-07-27_21h05.39.874,continuous_performance_test,2024.2.4,MacIntel,58.82352941,e2b76c18-fa1f-432e-8a8c-9bd46ef1e188,5,503.817,505.668,space,1,0.363,,0,6,6,1,1,B,space,,,,,,,,,,
,,,,,R_99uHQVoDICQ66j4,001,2025-07-27_21h05.39.874,continuous_performance_test,2024.2.4,MacIntel,58.82352941,e2b76c18-fa1f-432e-8a8c-9bd46ef1e188,5,505.669,507.572,space,1,0.368,,0,7,7,3,1,D,space,,,,,,,,,,
,,,,,R_99uHQVoDICQ66j4,001,2025-07-27_21h05.39.874,continuous_performance_test,2024.2.4,MacIntel,58.82352941,e2b76c18-fa1f-432e-8a8c-9bd46ef1e188,5,507.574,509.307,,1,,,0,8,8,25,1,X,,,,,,,,,,,
,,,,,R_99uHQVoDICQ66j4,001,2025-07-27_21h05.39.874,continuous_performance_test,2024.2.4,MacIntel,58.82352941,e2b76c18-fa1f-432e-8a8c-9bd46ef1e188,5,509.308,510.848,space,1,0.64,,0,9,9,7,1,H,space,,,,,,,,,,
,,,,,R_99uHQVoDICQ66j4,001,2025-07-27_21h05.39.874,continuous_performance_test,2024.2.4,MacIntel,58.82352941,e2b76c18-fa1f-432e-8a8c-9bd46ef1e188,5,510.851,512.445,space,1,0.446,,0,10,10,22,1,W,space,,,,,,,,,,
,,,,,R_99uHQVoDICQ66j4,001,2025-07-27_21h05.39.874,continuous_performance_test,2024.2.4,MacIntel,58.82352941,e2b76c18-fa1f-432e-8a8c-9bd46ef1e188,5,512.447,514.091,space,1,0.379,,0,11,11,14,1,O,space,,,,,,,,,,
,,,,,R_99uHQVoDICQ66j4,001,2025-07-27_21h05.39.874,continuous_performance_test,2024.2.4,MacIntel,58.82352941,e2b76c18-fa1f-432e-8a8c-9bd46ef1e188,5,514.093,515.688,space,1,0.424,,0,12,12,18,1,S,space,,,,,,,,,,
,,,,,R_99uHQVoDICQ66j4,001,2025-07-27_21h05.39.874,continuous_performance_test,2024.2.4,MacIntel,58.82352941,e2b76c18-fa1f-432e-8a8c-9bd46ef1e188,5,515.69,517.397,space,1,0.402,,0,13,13,23,1,Y,space,,,,,,,,,,
,,,,,R_99uHQVoDICQ66j4,001,2025-07-27_21h05.39.874,continuous_performance_test,2024.2.4,MacIntel,58.82352941,e2b76c18-fa1f-432e-8a8c-9bd46ef1e188,5,517.399,519.243,space,1,0.436,,0,14,14,0,1,A,space,,,,,,,,,,
,,,,,R_99uHQVoDICQ66j4,001,2025-07-27_21h05.39.874,continuous_performance_test,2024.2.4,MacIntel,58.82352941,e2b76c18-fa1f-432e-8a8c-9bd46ef1e188,5,519.244,520.889,space,1,0.651,,0,15,15,9,1,J,space,,,,,,,,,,
,,,,,R_99uHQVoDICQ66j4,001,2025-07-27_21h05.39.874,continuous_performance_test,2024.2.4,MacIntel,58.82352941,e2b76c18-fa1f-432e-8a8c-9bd46ef1e188,5,520.89,522.635,space,1,0.378,,0,16,16,5,1,F,space,,,,,,,,,,
,,,,,R_99uHQVoDICQ66j4,001,2025-07-27_21h05.39.874,continuous_performance_test,2024.2.4,MacIntel,58.82352941,e2b76c18-fa1f-432e-8a8c-9bd46ef1e188,5,522.638,524.232,space,1,0.459,,0,17,17,12,1,M,space,,,,,,,,,,
,,,,,R_99uHQVoDICQ66j4,001,2025-07-27_21h05.39.874,continuous_performance_test,2024.2.4,MacIntel,58.82352941,e2b76c18-fa1f-432e-8a8c-9bd46ef1e188,5,524.234,526.176,space,1,0.442,,0,18,18,24,1,Z,space,,,,,,,,,,
,,,,,R_99uHQVoDICQ66j4,001,2025-07-27_21h05.39.874,continuous_performance_test,2024.2.4,MacIntel,58.82352941,e2b76c18-fa1f-432e-8a8c-9bd46ef1e188,5,526.177,528.172,space,1,0.434,,0,19,19,19,1,T,space,,,,,,,,,,
,,,,,R_99uHQVoDICQ66j4,001,2025-07-27_21h05.39.874,continuous_performance_test,2024.2.4,MacIntel,58.82352941,e2b76c18-fa1f-432e-8a8c-9bd46ef1e188,5,528.174,530.167,space,1,0.062,,0,20,20,4,1,E,space,,,,,,,,,,
,,,,,R_99uHQVoDICQ66j4,001,2025-07-27_21h05.39.874,continuous_performance_test,2024.2.4,MacIntel,58.82352941,e2b76c18-fa1f-432e-8a8c-9bd46ef1e188,5,530.168,531.81,,1,,,0,21,21,28,1,X,,,,,,,,,,,
,,,,,R_99uHQVoDICQ66j4,001,2025-07-27_21h05.39.874,continuous_performance_test,2024.2.4,MacIntel,58.82352941,e2b76c18-fa1f-432e-8a8c-9bd46ef1e188,5,531.812,533.563,space,1,0.396,,0,22,22,6,1,G,space,,,,,,,,,,
,,,,,R_99uHQVoDICQ66j4,001,2025-07-27_21h05.39.874,continuous_performance_test,2024.2.4,MacIntel,58.82352941,e2b76c18-fa1f-432e-8a8c-9bd46ef1e188,5,533.564,535.502,space,1,0.425,,0,23,23,13,1,N,space,,,,,,,,,,
,,,,,R_99uHQVoDICQ66j4,001,2025-07-27_21h05.39.874,continuous_performance_test,2024.2.4,MacIntel,58.82352941,e2b76c18-fa1f-432e-8a8c-9bd46ef1e188,5,535.504,537.048,space,1,0.481,,0,24,24,2,1,C,space,,,,,,,,,,
,,,,,R_99uHQVoDICQ66j4,001,2025-07-27_21h05.39.874,continuous_performance_test,2024.2.4,MacIntel,58.82352941,e2b76c18-fa1f-432e-8a8c-9bd46ef1e188,5,537.049,538.695,space,1,0.411,,0,25,25,20,1,U,space,,,,,,,,,,
,,,,,R_99uHQVoDICQ66j4,001,2025-07-27_21h05.39.874,continuous_performance_test,2024.2.4,MacIntel,58.82352941,e2b76c18-fa1f-432e-8a8c-9bd46ef1e188,5,538.696,540.541,space,1,0.326,,0,26,26,16,1,Q,space,,,,,,,,,,
,,,,,R_99uHQVoDICQ66j4,001,2025-07-27_21h05.39.874,continuous_performance_test,2024.2.4,MacIntel,58.82352941,e2b76c18-fa1f-432e-8a8c-9bd46ef1e188,5,540.543,542.186,,1,,,0,27,27,29,1,X,,,,,,,,,,,
,,,,,R_99uHQVoDICQ66j4,001,2025-07-27_21h05.39.874,continuous_performance_test,2024.2.4,MacIntel,58.82352941,e2b76c18-fa1f-432e-8a8c-9bd46ef1e188,5,542.186,544.034,,1,,,0,28,28,26,1,X,,,,,,,,,,,
,,,,,R_99uHQVoDICQ66j4,001,2025-07-27_21h05.39.874,continuous_performance_test,2024.2.4,MacIntel,58.82352941,e2b76c18-fa1f-432e-8a8c-9bd46ef1e188,5,544.035,545.833,space,1,0.416,,0,29,29,11,1,L,space,,,,,,,,,,
,,,,,R_99uHQVoDICQ66j4,001,2025-07-27_21h05.39.874,continuous_performance_test,2024.2.4,MacIntel,58.82352941,e2b76c18-fa1f-432e-8a8c-9bd46ef1e188,5,551.923,553.662,,1,,,0,0,0,27,1,X,,545.834,551.911,space,6.032,,,,,,
,,,,,R_99uHQVoDICQ66j4,001,2025-07-27_21h05.39.874,continuous_performance_test,2024.2.4,MacIntel,58.82352941,e2b76c18-fa1f-432e-8a8c-9bd46ef1e188,5,553.662,555.256,space,1,0.391,,0,1,1,3,1,D,space,,,,,,,,,,
,,,,,R_99uHQVoDICQ66j4,001,2025-07-27_21h05.39.874,continuous_performance_test,2024.2.4,MacIntel,58.82352941,e2b76c18-fa1f-432e-8a8c-9bd46ef1e188,5,555.257,556.899,space,1,0.378,,0,2,2,16,1,Q,space,,,,,,,,,,
,,,,,R_99uHQVoDICQ66j4,001,2025-07-27_21h05.39.874,continuous_performance_test,2024.2.4,MacIntel,58.82352941,e2b76c18-fa1f-432e-8a8c-9bd46ef1e188,5,556.902,558.849,space,1,0.378,,0,3,3,11,1,L,space,,,,,,,,,,
,,,,,R_99uHQVoDICQ66j4,001,2025-07-27_21h05.39.874,continuous_performance_test,2024.2.4,MacIntel,58.82352941,e2b76c18-fa1f-432e-8a8c-9bd46ef1e188,5,558.849,560.64,space,1,0.396,,0,4,4,18,1,S,space,,,,,,,,,,
,,,,,R_99uHQVoDICQ66j4,001,2025-07-27_21h05.39.874,continuous_performance_test,2024.2.4,MacIntel,58.82352941,e2b76c18-fa1f-432e-8a8c-9bd46ef1e188,5,560.641,562.584,space,1,0.392,,0,5,5,13,1,N,space,,,,,,,,,,
,,,,,R_99uHQVoDICQ66j4,001,2025-07-27_21h05.39.874,continuous_performance_test,2024.2.4,MacIntel,58.82352941,e2b76c18-fa1f-432e-8a8c-9bd46ef1e188,5,562.585,564.53,space,1,0.42,,0,6,6,2,1,C,space,,,,,,,,,,
,,,,,R_99uHQVoDICQ66j4,001,2025-07-27_21h05.39.874,continuous_performance_test,2024.2.4,MacIntel,58.82352941,e2b76c18-fa1f-432e-8a8c-9bd46ef1e188,5,564.532,566.526,space,1,0.349,,0,7,7,10,1,K,space,,,,,,,,,,
,,,,,R_99uHQVoDICQ66j4,001,2025-07-27_21h05.39.874,continuous_performance_test,2024.2.4,MacIntel,58.82352941,e2b76c18-fa1f-432e-8a8c-9bd46ef1e188,5,566.527,568.419,space,1,0.332,,0,8,8,21,1,V,space,,,,,,,,,,
,,,,,R_99uHQVoDICQ66j4,001,2025-07-27_21h05.39.874,continuous_performance_test,2024.2.4,MacIntel,58.82352941,e2b76c18-fa1f-432e-8a8c-9bd46ef1e188,5,568.42,570.363,space,1,0.365,,0,9,9,8,1,I,space,,,,,,,,,,
,,,,,R_99uHQVoDICQ66j4,001,2025-07-27_21h05.39.874,continuous_performance_test,2024.2.4,MacIntel,58.82352941,e2b76c18-fa1f-432e-8a8c-9bd46ef1e188,5,570.364,572.059,space,1,0.299,,0,10,10,6,1,G,space,,,,,,,,,,
,,,,,R_99uHQVoDICQ66j4,001,2025-07-27_21h05.39.874,continuous_performance_test,2024.2.4,MacIntel,58.82352941,e2b76c18-fa1f-432e-8a8c-9bd46ef1e188,5,572.06,573.855,space,1,0.365,,0,11,11,1,1,B,space,,,,,,,,,,
,,,,,R_99uHQVoDICQ66j4,001,2025-07-27_21h05.39.874,continuous_performance_test,2024.2.4,MacIntel,58.82352941,e2b76c18-fa1f-432e-8a8c-9bd46ef1e188,5,573.856,575.55,space,1,0.4,,0,12,12,12,1,M,space,,,,,,,,,,
,,,,,R_99uHQVoDICQ66j4,001,2025-07-27_21h05.39.874,continuous_performance_test,2024.2.4,MacIntel,58.82352941,e2b76c18-fa1f-432e-8a8c-9bd46ef1e188,5,575.551,577.348,space,1,0.366,,0,13,13,9,1,J,space,,,,,,,,,,
,,,,,R_99uHQVoDICQ66j4,001,2025-07-27_21h05.39.874,continuous_performance_test,2024.2.4,MacIntel,58.82352941,e2b76c18-fa1f-432e-8a8c-9bd46ef1e188,5,577.35,578.899,space,1,0.295,,0,14,14,17,1,R,space,,,,,,,,,,
,,,,,R_99uHQVoDICQ66j4,001,2025-07-27_21h05.39.874,continuous_performance_test,2024.2.4,MacIntel,58.82352941,e2b76c18-fa1f-432e-8a8c-9bd46ef1e188,5,578.9,580.804,space,1,0.349,,0,15,15,24,1,Z,space,,,,,,,,,,
,,,,,R_99uHQVoDICQ66j4,001,2025-07-27_21h05.39.874,continuous_performance_test,2024.2.4,MacIntel,58.82352941,e2b76c18-fa1f-432e-8a8c-9bd46ef1e188,5,580.806,582.755,space,1,0.359,,0,16,16,0,1,A,space,,,,,,,,,,
,,,,,R_99uHQVoDICQ66j4,001,2025-07-27_21h05.39.874,continuous_performance_test,2024.2.4,MacIntel,58.82352941,e2b76c18-fa1f-432e-8a8c-9bd46ef1e188,5,582.756,584.298,space,1,0.429,,0,17,17,15,1,P,space,,,,,,,,,,
,,,,,R_99uHQVoDICQ66j4,001,2025-07-27_21h05.39.874,continuous_performance_test,2024.2.4,MacIntel,58.82352941,e2b76c18-fa1f-432e-8a8c-9bd46ef1e188,5,584.299,586.292,space,1,0.327,,0,18,18,23,1,Y,space,,,,,,,,,,
,,,,,R_99uHQVoDICQ66j4,001,2025-07-27_21h05.39.874,continuous_performance_test,2024.2.4,MacIntel,58.82352941,e2b76c18-fa1f-432e-8a8c-9bd46ef1e188,5,586.293,587.938,space,1,0.341,,0,19,19,4,1,E,space,,,,,,,,,,
,,,,,R_99uHQVoDICQ66j4,001,2025-07-27_21h05.39.874,continuous_performance_test,2024.2.4,MacIntel,58.82352941,e2b76c18-fa1f-432e-8a8c-9bd46ef1e188,5,587.939,589.683,space,1,0.378,,0,20,20,5,1,F,space,,,,,,,,,,
,,,,,R_99uHQVoDICQ66j4,001,2025-07-27_21h05.39.874,continuous_performance_test,2024.2.4,MacIntel,58.82352941,e2b76c18-fa1f-432e-8a8c-9bd46ef1e188,5,589.685,591.683,space,1,0.398,,0,21,21,22,1,W,space,,,,,,,,,,
,,,,,R_99uHQVoDICQ66j4,001,2025-07-27_21h05.39.874,continuous_performance_test,2024.2.4,MacIntel,58.82352941,e2b76c18-fa1f-432e-8a8c-9bd46ef1e188,5,591.684,593.524,,1,,,0,22,22,29,1,X,,,,,,,,,,,
,,,,,R_99uHQVoDICQ66j4,001,2025-07-27_21h05.39.874,continuous_performance_test,2024.2.4,MacIntel,58.82352941,e2b76c18-fa1f-432e-8a8c-9bd46ef1e188,5,593.525,595.32,,1,,,0,23,23,25,1,X,,,,,,,,,,,
,,,,,R_99uHQVoDICQ66j4,001,2025-07-27_21h05.39.874,continuous_performance_test,2024.2.4,MacIntel,58.82352941,e2b76c18-fa1f-432e-8a8c-9bd46ef1e188,5,595.321,597.218,,1,,,0,24,24,26,1,X,,,,,,,,,,,
,,,,,R_99uHQVoDICQ66j4,001,2025-07-27_21h05.39.874,continuous_performance_test,2024.2.4,MacIntel,58.82352941,e2b76c18-fa1f-432e-8a8c-9bd46ef1e188,5,597.219,598.777,space,1,0.442,,0,25,25,20,1,U,space,,,,,,,,,,
,,,,,R_99uHQVoDICQ66j4,001,2025-07-27_21h05.39.874,continuous_performance_test,2024.2.4,MacIntel,58.82352941,e2b76c18-fa1f-432e-8a8c-9bd46ef1e188,5,598.778,600.321,space,1,0.393,,0,26,26,14,1,O,space,,,,,,,,,,
,,,,,R_99uHQVoDICQ66j4,001,2025-07-27_21h05.39.874,continuous_performance_test,2024.2.4,MacIntel,58.82352941,e2b76c18-fa1f-432e-8a8c-9bd46ef1e188,5,600.323,601.919,space,1,0.349,,0,27,27,7,1,H,space,,,,,,,,,,
,,,,,R_99uHQVoDICQ66j4,001,2025-07-27_21h05.39.874,continuous_performance_test,2024.2.4,MacIntel,58.82352941,e2b76c18-fa1f-432e-8a8c-9bd46ef1e188,5,601.92,603.767,space,1,0.386,,0,28,28,19,1,T,space,,,,,,,,,,
,,,,,R_99uHQVoDICQ66j4,001,2025-07-27_21h05.39.874,continuous_performance_test,2024.2.4,MacIntel,58.82352941,e2b76c18-fa1f-432e-8a8c-9bd46ef1e188,5,603.768,605.516,space,0,0.391,,0,29,29,28,1,X,,,,,,,,,,,
,,,,,R_99uHQVoDICQ66j4,001,2025-07-27_21h05.39.874,continuous_performance_test,2024.2.4,MacIntel,58.82352941,e2b76c18-fa1f-432e-8a8c-9bd46ef1e188,5,,,,,,,,,,,,,,605.517,605.52,,,,605.521,609.251,space,3.698,
