Instructions.started,Instructions.stopped,key_resp.keys,key_resp.rt,key_resp.duration,participant,session,date,expName,psychopyVersion,OS,frameRate,realeye-tester-id,realeye-tester-quality_grade,Trial_noX.started,Trial_noX.stopped,response.keys,response.corr,response.rt,response.duration,trials_noX.thisRepN,trials_noX.thisTrialN,trials_noX.thisN,trials_noX.thisIndex,trials_noX.ran,letter,corrAns,BlockBreak.started,BlockBreak.stopped,key_instruct.keys,key_instruct.rt,key_instruct.duration,End_NoX.started,End_NoX.stopped,key_resp_end_noX.keys,key_resp_end_noX.rt,key_resp_end_noX.duration
0.0002,23.4968,space,23.4691,,R_99itjGCdtRkk6YN,001,2025-09-06_13h52.13.601,continuous_performance_test,2024.2.4,MacIntel,63.69426752,06742b79-9f63-4952-bf82-d36bd6473f09,6,,,,,,,,,,,,,,,,,,,,,,,
,,,,,R_99itjGCdtRkk6YN,001,2025-09-06_13h52.13.601,continuous_performance_test,2024.2.4,MacIntel,63.69426752,06742b79-9f63-4952-bf82-d36bd6473f09,6,23.5211,25.4139,space,1,0.5727,,0,0,0,17,1,R,space,,,,,,,,,,
,,,,,R_99itjGCdtRkk6YN,001,2025-09-06_13h52.13.601,continuous_performance_test,2024.2.4,MacIntel,63.69426752,06742b79-9f63-4952-bf82-d36bd6473f09,6,25.4147,27.0632,space,0,0.4301,,0,1,1,26,1,X,,,,,,,,,,,
,,,,,R_99itjGCdtRkk6YN,001,2025-09-06_13h52.13.601,continuous_performance_test,2024.2.4,MacIntel,63.69426752,06742b79-9f63-4952-bf82-d36bd6473f09,6,27.064,29.0638,space,1,0.3307,,0,2,2,3,1,D,space,,,,,,,,,,
,,,,,R_99itjGCdtRkk6YN,001,2025-09-06_13h52.13.601,continuous_performance_test,2024.2.4,MacIntel,63.69426752,06742b79-9f63-4952-bf82-d36bd6473f09,6,29.0646,31.0637,space,1,0.329,,0,3,3,15,1,P,space,,,,,,,,,,
,,,,,R_99itjGCdtRkk6YN,001,2025-09-06_13h52.13.601,continuous_performance_test,2024.2.4,MacIntel,63.69426752,06742b79-9f63-4952-bf82-d36bd6473f09,6,31.0645,32.6129,space,1,0.4565,,0,4,4,16,1,Q,space,,,,,,,,,,
,,,,,R_99itjGCdtRkk6YN,001,2025-09-06_13h52.13.601,continuous_performance_test,2024.2.4,MacIntel,63.69426752,06742b79-9f63-4952-bf82-d36bd6473f09,6,32.6137,34.3631,space,1,0.3455,,0,5,5,7,1,H,space,,,,,,,,,,
,,,,,R_99itjGCdtRkk6YN,001,2025-09-06_13h52.13.601,continuous_performance_test,2024.2.4,MacIntel,63.69426752,06742b79-9f63-4952-bf82-d36bd6473f09,6,34.3638,35.9135,space,1,0.3663,,0,6,6,11,1,L,space,,,,,,,,,,
,,,,,R_99itjGCdtRkk6YN,001,2025-09-06_13h52.13.601,continuous_performance_test,2024.2.4,MacIntel,63.69426752,06742b79-9f63-4952-bf82-d36bd6473f09,6,35.9142,37.7128,,1,,,0,7,7,29,1,X,,,,,,,,,,,
,,,,,R_99itjGCdtRkk6YN,001,2025-09-06_13h52.13.601,continuous_performance_test,2024.2.4,MacIntel,63.69426752,06742b79-9f63-4952-bf82-d36bd6473f09,6,37.7134,39.613,,1,,,0,8,8,28,1,X,,,,,,,,,,,
,,,,,R_99itjGCdtRkk6YN,001,2025-09-06_13h52.13.601,continuous_performance_test,2024.2.4,MacIntel,63.69426752,06742b79-9f63-4952-bf82-d36bd6473f09,6,39.6139,41.1641,space,1,0.3969,,0,9,9,10,1,K,space,,,,,,,,,,
,,,,,R_99itjGCdtRkk6YN,001,2025-09-06_13h52.13.601,continuous_performance_test,2024.2.4,MacIntel,63.69426752,06742b79-9f63-4952-bf82-d36bd6473f09,6,41.1648,43.064,space,1,0.3458,,0,10,10,0,1,A,space,,,,,,,,,,
,,,,,R_99itjGCdtRkk6YN,001,2025-09-06_13h52.13.601,continuous_performance_test,2024.2.4,MacIntel,63.69426752,06742b79-9f63-4952-bf82-d36bd6473f09,6,43.0646,44.6628,space,1,0.3647,,0,11,11,14,1,O,space,,,,,,,,,,
,,,,,R_99itjGCdtRkk6YN,001,2025-09-06_13h52.13.601,continuous_performance_test,2024.2.4,MacIntel,63.69426752,06742b79-9f63-4952-bf82-d36bd6473f09,6,44.6635,46.2132,space,1,0.3974,,0,12,12,5,1,F,space,,,,,,,,,,
,,,,,R_99itjGCdtRkk6YN,001,2025-09-06_13h52.13.601,continuous_performance_test,2024.2.4,MacIntel,63.69426752,06742b79-9f63-4952-bf82-d36bd6473f09,6,46.214,47.763,space,1,0.3774,,0,13,13,20,1,U,space,,,,,,,,,,
,,,,,R_99itjGCdtRkk6YN,001,2025-09-06_13h52.13.601,continuous_performance_test,2024.2.4,MacIntel,63.69426752,06742b79-9f63-4952-bf82-d36bd6473f09,6,47.7638,49.6629,space,1,0.4161,,0,14,14,23,1,Y,space,,,,,,,,,,
,,,,,R_99itjGCdtRkk6YN,001,2025-09-06_13h52.13.601,continuous_performance_test,2024.2.4,MacIntel,63.69426752,06742b79-9f63-4952-bf82-d36bd6473f09,6,49.6636,51.2136,space,1,0.4457,,0,15,15,24,1,Z,space,,,,,,,,,,
,,,,,R_99itjGCdtRkk6YN,001,2025-09-06_13h52.13.601,continuous_performance_test,2024.2.4,MacIntel,63.69426752,06742b79-9f63-4952-bf82-d36bd6473f09,6,51.2143,53.0628,space,1,0.3967,,0,16,16,19,1,T,space,,,,,,,,,,
,,,,,R_99itjGCdtRkk6YN,001,2025-09-06_13h52.13.601,continuous_performance_test,2024.2.4,MacIntel,63.69426752,06742b79-9f63-4952-bf82-d36bd6473f09,6,53.0635,54.8633,space,1,0.4309,,0,17,17,13,1,N,space,,,,,,,,,,
,,,,,R_99itjGCdtRkk6YN,001,2025-09-06_13h52.13.601,continuous_performance_test,2024.2.4,MacIntel,63.69426752,06742b79-9f63-4952-bf82-d36bd6473f09,6,54.8641,56.4635,space,1,0.4309,,0,18,18,21,1,V,space,,,,,,,,,,
,,,,,R_99itjGCdtRkk6YN,001,2025-09-06_13h52.13.601,continuous_performance_test,2024.2.4,MacIntel,63.69426752,06742b79-9f63-4952-bf82-d36bd6473f09,6,56.4645,58.4632,space,1,0.3791,,0,19,19,6,1,G,space,,,,,,,,,,
,,,,,R_99itjGCdtRkk6YN,001,2025-09-06_13h52.13.601,continuous_performance_test,2024.2.4,MacIntel,63.69426752,06742b79-9f63-4952-bf82-d36bd6473f09,6,58.464,60.264,space,1,0.3781,,0,20,20,12,1,M,space,,,,,,,,,,
,,,,,R_99itjGCdtRkk6YN,001,2025-09-06_13h52.13.601,continuous_performance_test,2024.2.4,MacIntel,63.69426752,06742b79-9f63-4952-bf82-d36bd6473f09,6,60.2648,62.2128,space,1,0.3468,,0,21,21,1,1,B,space,,,,,,,,,,
,,,,,R_99itjGCdtRkk6YN,001,2025-09-06_13h52.13.601,continuous_performance_test,2024.2.4,MacIntel,63.69426752,06742b79-9f63-4952-bf82-d36bd6473f09,6,62.2135,64.0631,space,1,0.4469,,0,22,22,22,1,W,space,,,,,,,,,,
,,,,,R_99itjGCdtRkk6YN,001,2025-09-06_13h52.13.601,continuous_performance_test,2024.2.4,MacIntel,63.69426752,06742b79-9f63-4952-bf82-d36bd6473f09,6,64.0637,65.663,,1,,,0,23,23,27,1,X,,,,,,,,,,,
,,,,,R_99itjGCdtRkk6YN,001,2025-09-06_13h52.13.601,continuous_performance_test,2024.2.4,MacIntel,63.69426752,06742b79-9f63-4952-bf82-d36bd6473f09,6,65.6636,67.3636,space,1,0.3802,,0,24,24,2,1,C,space,,,,,,,,,,
,,,,,R_99itjGCdtRkk6YN,001,2025-09-06_13h52.13.601,continuous_performance_test,2024.2.4,MacIntel,63.69426752,06742b79-9f63-4952-bf82-d36bd6473f09,6,67.3644,69.2633,space,1,0.3767,,0,25,25,4,1,E,space,,,,,,,,,,
,,,,,R_99itjGCdtRkk6YN,001,2025-09-06_13h52.13.601,continuous_performance_test,2024.2.4,MacIntel,63.69426752,06742b79-9f63-4952-bf82-d36bd6473f09,6,69.2641,71.2629,space,1,0.3629,,0,26,26,18,1,S,space,,,,,,,,,,
,,,,,R_99itjGCdtRkk6YN,001,2025-09-06_13h52.13.601,continuous_performance_test,2024.2.4,MacIntel,63.69426752,06742b79-9f63-4952-bf82-d36bd6473f09,6,71.2636,73.2631,space,1,0.3301,,0,27,27,8,1,I,space,,,,,,,,,,
,,,,,R_99itjGCdtRkk6YN,001,2025-09-06_13h52.13.601,continuous_performance_test,2024.2.4,MacIntel,63.69426752,06742b79-9f63-4952-bf82-d36bd6473f09,6,73.2638,75.2129,space,0,0.3185,,0,28,28,25,1,X,,,,,,,,,,,
,,,,,R_99itjGCdtRkk6YN,001,2025-09-06_13h52.13.601,continuous_performance_test,2024.2.4,MacIntel,63.69426752,06742b79-9f63-4952-bf82-d36bd6473f09,6,75.2136,76.8129,space,1,0.3637,,0,29,29,9,1,J,space,,,,,,,,,,
,,,,,R_99itjGCdtRkk6YN,001,2025-09-06_13h52.13.601,continuous_performance_test,2024.2.4,MacIntel,63.69426752,06742b79-9f63-4952-bf82-d36bd6473f09,6,81.644,83.6464,space,1,0.4103,,0,0,0,21,1,V,space,76.8132,81.631,space,4.789,,,,,,
,,,,,R_99itjGCdtRkk6YN,001,2025-09-06_13h52.13.601,continuous_performance_test,2024.2.4,MacIntel,63.69426752,06742b79-9f63-4952-bf82-d36bd6473f09,6,83.6472,85.5469,space,1,0.3311,,0,1,1,8,1,I,space,,,,,,,,,,
,,,,,R_99itjGCdtRkk6YN,001,2025-09-06_13h52.13.601,continuous_performance_test,2024.2.4,MacIntel,63.69426752,06742b79-9f63-4952-bf82-d36bd6473f09,6,85.5476,87.5466,space,1,0.2941,,0,2,2,9,1,J,space,,,,,,,,,,
,,,,,R_99itjGCdtRkk6YN,001,2025-09-06_13h52.13.601,continuous_performance_test,2024.2.4,MacIntel,63.69426752,06742b79-9f63-4952-bf82-d36bd6473f09,6,87.5471,89.2476,space,0,0.2816,,0,3,3,28,1,X,,,,,,,,,,,
,,,,,R_99itjGCdtRkk6YN,001,2025-09-06_13h52.13.601,continuous_performance_test,2024.2.4,MacIntel,63.69426752,06742b79-9f63-4952-bf82-d36bd6473f09,6,89.2482,91.1481,space,0,0.299,,0,4,4,25,1,X,,,,,,,,,,,
,,,,,R_99itjGCdtRkk6YN,001,2025-09-06_13h52.13.601,continuous_performance_test,2024.2.4,MacIntel,63.69426752,06742b79-9f63-4952-bf82-d36bd6473f09,6,91.1488,92.7968,space,1,0.599,,0,5,5,15,1,P,space,,,,,,,,,,
,,,,,R_99itjGCdtRkk6YN,001,2025-09-06_13h52.13.601,continuous_performance_test,2024.2.4,MacIntel,63.69426752,06742b79-9f63-4952-bf82-d36bd6473f09,6,92.7974,94.3469,space,1,0.4608,,0,6,6,4,1,E,space,,,,,,,,,,
,,,,,R_99itjGCdtRkk6YN,001,2025-09-06_13h52.13.601,continuous_performance_test,2024.2.4,MacIntel,63.69426752,06742b79-9f63-4952-bf82-d36bd6473f09,6,94.3476,96.2465,space,1,0.3103,,0,7,7,2,1,C,space,,,,,,,,,,
,,,,,R_99itjGCdtRkk6YN,001,2025-09-06_13h52.13.601,continuous_performance_test,2024.2.4,MacIntel,63.69426752,06742b79-9f63-4952-bf82-d36bd6473f09,6,96.2474,98.0974,space,1,0.3613,,0,8,8,5,1,F,space,,,,,,,,,,
,,,,,R_99itjGCdtRkk6YN,001,2025-09-06_13h52.13.601,continuous_performance_test,2024.2.4,MacIntel,63.69426752,06742b79-9f63-4952-bf82-d36bd6473f09,6,98.098,99.7475,,1,,,0,9,9,26,1,X,,,,,,,,,,,
,,,,,R_99itjGCdtRkk6YN,001,2025-09-06_13h52.13.601,continuous_performance_test,2024.2.4,MacIntel,63.69426752,06742b79-9f63-4952-bf82-d36bd6473f09,6,99.7485,101.2967,space,1,0.5144,,0,10,10,12,1,M,space,,,,,,,,,,
,,,,,R_99itjGCdtRkk6YN,001,2025-09-06_13h52.13.601,continuous_performance_test,2024.2.4,MacIntel,63.69426752,06742b79-9f63-4952-bf82-d36bd6473f09,6,101.2975,103.2974,space,1,0.3635,,0,11,11,3,1,D,space,,,,,,,,,,
,,,,,R_99itjGCdtRkk6YN,001,2025-09-06_13h52.13.601,continuous_performance_test,2024.2.4,MacIntel,63.69426752,06742b79-9f63-4952-bf82-d36bd6473f09,6,103.2981,104.8475,space,0,0.3321,,0,12,12,27,1,X,,,,,,,,,,,
,,,,,R_99itjGCdtRkk6YN,001,2025-09-06_13h52.13.601,continuous_performance_test,2024.2.4,MacIntel,63.69426752,06742b79-9f63-4952-bf82-d36bd6473f09,6,104.8482,106.4476,space,1,0.4116,,0,13,13,1,1,B,space,,,,,,,,,,
,,,,,R_99itjGCdtRkk6YN,001,2025-09-06_13h52.13.601,continuous_performance_test,2024.2.4,MacIntel,63.69426752,06742b79-9f63-4952-bf82-d36bd6473f09,6,106.4485,108.4482,space,1,0.3485,,0,14,14,14,1,O,space,,,,,,,,,,
,,,,,R_99itjGCdtRkk6YN,001,2025-09-06_13h52.13.601,continuous_performance_test,2024.2.4,MacIntel,63.69426752,06742b79-9f63-4952-bf82-d36bd6473f09,6,108.449,110.2966,space,1,0.38,,0,15,15,17,1,R,space,,,,,,,,,,
,,,,,R_99itjGCdtRkk6YN,001,2025-09-06_13h52.13.601,continuous_performance_test,2024.2.4,MacIntel,63.69426752,06742b79-9f63-4952-bf82-d36bd6473f09,6,110.2974,112.0965,space,1,0.5469,,0,16,16,20,1,U,space,,,,,,,,,,
,,,,,R_99itjGCdtRkk6YN,001,2025-09-06_13h52.13.601,continuous_performance_test,2024.2.4,MacIntel,63.69426752,06742b79-9f63-4952-bf82-d36bd6473f09,6,112.0972,113.8467,space,1,0.4446,,0,17,17,16,1,Q,space,,,,,,,,,,
,,,,,R_99itjGCdtRkk6YN,001,2025-09-06_13h52.13.601,continuous_performance_test,2024.2.4,MacIntel,63.69426752,06742b79-9f63-4952-bf82-d36bd6473f09,6,113.8473,115.5976,space,1,0.4119,,0,18,18,24,1,Z,space,,,,,,,,,,
,,,,,R_99itjGCdtRkk6YN,001,2025-09-06_13h52.13.601,continuous_performance_test,2024.2.4,MacIntel,63.69426752,06742b79-9f63-4952-bf82-d36bd6473f09,6,115.5983,117.5472,space,1,0.5479,,0,19,19,22,1,W,space,,,,,,,,,,
,,,,,R_99itjGCdtRkk6YN,001,2025-09-06_13h52.13.601,continuous_performance_test,2024.2.4,MacIntel,63.69426752,06742b79-9f63-4952-bf82-d36bd6473f09,6,117.548,119.0979,space,1,0.5962,,0,20,20,10,1,K,space,,,,,,,,,,
,,,,,R_99itjGCdtRkk6YN,001,2025-09-06_13h52.13.601,continuous_performance_test,2024.2.4,MacIntel,63.69426752,06742b79-9f63-4952-bf82-d36bd6473f09,6,119.0986,120.8967,space,1,0.4604,,0,21,21,13,1,N,space,,,,,,,,,,
,,,,,R_99itjGCdtRkk6YN,001,2025-09-06_13h52.13.601,continuous_performance_test,2024.2.4,MacIntel,63.69426752,06742b79-9f63-4952-bf82-d36bd6473f09,6,120.8974,122.7984,space,1,0.4111,,0,22,22,0,1,A,space,,,,,,,,,,
,,,,,R_99itjGCdtRkk6YN,001,2025-09-06_13h52.13.601,continuous_performance_test,2024.2.4,MacIntel,63.69426752,06742b79-9f63-4952-bf82-d36bd6473f09,6,122.7991,124.4466,space,1,0.3796,,0,23,23,23,1,Y,space,,,,,,,,,,
,,,,,R_99itjGCdtRkk6YN,001,2025-09-06_13h52.13.601,continuous_performance_test,2024.2.4,MacIntel,63.69426752,06742b79-9f63-4952-bf82-d36bd6473f09,6,124.4473,126.3479,space,1,0.4135,,0,24,24,6,1,G,space,,,,,,,,,,
,,,,,R_99itjGCdtRkk6YN,001,2025-09-06_13h52.13.601,continuous_performance_test,2024.2.4,MacIntel,63.69426752,06742b79-9f63-4952-bf82-d36bd6473f09,6,126.3489,128.1975,space,1,0.5161,,0,25,25,19,1,T,space,,,,,,,,,,
,,,,,R_99itjGCdtRkk6YN,001,2025-09-06_13h52.13.601,continuous_performance_test,2024.2.4,MacIntel,63.69426752,06742b79-9f63-4952-bf82-d36bd6473f09,6,128.1984,129.9988,,1,,,0,26,26,29,1,X,,,,,,,,,,,
,,,,,R_99itjGCdtRkk6YN,001,2025-09-06_13h52.13.601,continuous_performance_test,2024.2.4,MacIntel,63.69426752,06742b79-9f63-4952-bf82-d36bd6473f09,6,129.9995,131.8979,space,1,0.5448,,0,27,27,11,1,L,space,,,,,,,,,,
,,,,,R_99itjGCdtRkk6YN,001,2025-09-06_13h52.13.601,continuous_performance_test,2024.2.4,MacIntel,63.69426752,06742b79-9f63-4952-bf82-d36bd6473f09,6,131.8988,133.8974,space,1,0.5274,,0,28,28,18,1,S,space,,,,,,,,,,
,,,,,R_99itjGCdtRkk6YN,001,2025-09-06_13h52.13.601,continuous_performance_test,2024.2.4,MacIntel,63.69426752,06742b79-9f63-4952-bf82-d36bd6473f09,6,133.8982,135.4467,space,1,0.4476,,0,29,29,7,1,H,space,,,,,,,,,,
,,,,,R_99itjGCdtRkk6YN,001,2025-09-06_13h52.13.601,continuous_performance_test,2024.2.4,MacIntel,63.69426752,06742b79-9f63-4952-bf82-d36bd6473f09,6,136.3231,138.1635,,1,,,0,0,0,25,1,X,,135.4476,136.3136,space,0.8391,,,,,,
,,,,,R_99itjGCdtRkk6YN,001,2025-09-06_13h52.13.601,continuous_performance_test,2024.2.4,MacIntel,63.69426752,06742b79-9f63-4952-bf82-d36bd6473f09,6,138.1643,139.7638,space,1,0.3951,,0,1,1,21,1,V,space,,,,,,,,,,
,,,,,R_99itjGCdtRkk6YN,001,2025-09-06_13h52.13.601,continuous_performance_test,2024.2.4,MacIntel,63.69426752,06742b79-9f63-4952-bf82-d36bd6473f09,6,139.7645,141.6634,space,1,0.4462,,0,2,2,22,1,W,space,,,,,,,,,,
,,,,,R_99itjGCdtRkk6YN,001,2025-09-06_13h52.13.601,continuous_performance_test,2024.2.4,MacIntel,63.69426752,06742b79-9f63-4952-bf82-d36bd6473f09,6,141.6641,143.4135,,1,,,0,3,3,27,1,X,,,,,,,,,,,
,,,,,R_99itjGCdtRkk6YN,001,2025-09-06_13h52.13.601,continuous_performance_test,2024.2.4,MacIntel,63.69426752,06742b79-9f63-4952-bf82-d36bd6473f09,6,143.4141,145.1635,space,1,0.4119,,0,4,4,12,1,M,space,,,,,,,,,,
,,,,,R_99itjGCdtRkk6YN,001,2025-09-06_13h52.13.601,continuous_performance_test,2024.2.4,MacIntel,63.69426752,06742b79-9f63-4952-bf82-d36bd6473f09,6,145.1641,146.9642,space,1,0.3777,,0,5,5,24,1,Z,space,,,,,,,,,,
,,,,,R_99itjGCdtRkk6YN,001,2025-09-06_13h52.13.601,continuous_performance_test,2024.2.4,MacIntel,63.69426752,06742b79-9f63-4952-bf82-d36bd6473f09,6,146.9649,148.8136,space,1,0.41,,0,6,6,16,1,Q,space,,,,,,,,,,
,,,,,R_99itjGCdtRkk6YN,001,2025-09-06_13h52.13.601,continuous_performance_test,2024.2.4,MacIntel,63.69426752,06742b79-9f63-4952-bf82-d36bd6473f09,6,148.8143,150.8143,,1,,,0,7,7,28,1,X,,,,,,,,,,,
,,,,,R_99itjGCdtRkk6YN,001,2025-09-06_13h52.13.601,continuous_performance_test,2024.2.4,MacIntel,63.69426752,06742b79-9f63-4952-bf82-d36bd6473f09,6,150.8149,152.7143,space,1,0.363,,0,8,8,4,1,E,space,,,,,,,,,,
,,,,,R_99itjGCdtRkk6YN,001,2025-09-06_13h52.13.601,continuous_performance_test,2024.2.4,MacIntel,63.69426752,06742b79-9f63-4952-bf82-d36bd6473f09,6,152.7149,154.3143,space,1,0.5987,,0,9,9,13,1,N,space,,,,,,,,,,
,,,,,R_99itjGCdtRkk6YN,001,2025-09-06_13h52.13.601,continuous_performance_test,2024.2.4,MacIntel,63.69426752,06742b79-9f63-4952-bf82-d36bd6473f09,6,154.315,156.3143,space,1,0.4626,,0,10,10,10,1,K,space,,,,,,,,,,
,,,,,R_99itjGCdtRkk6YN,001,2025-09-06_13h52.13.601,continuous_performance_test,2024.2.4,MacIntel,63.69426752,06742b79-9f63-4952-bf82-d36bd6473f09,6,156.3149,158.0643,space,1,0.4616,,0,11,11,7,1,H,space,,,,,,,,,,
,,,,,R_99itjGCdtRkk6YN,001,2025-09-06_13h52.13.601,continuous_performance_test,2024.2.4,MacIntel,63.69426752,06742b79-9f63-4952-bf82-d36bd6473f09,6,158.065,159.7639,space,1,0.5368,,0,12,12,8,1,I,space,,,,,,,,,,
,,,,,R_99itjGCdtRkk6YN,001,2025-09-06_13h52.13.601,continuous_performance_test,2024.2.4,MacIntel,63.69426752,06742b79-9f63-4952-bf82-d36bd6473f09,6,159.7644,161.3638,space,1,0.4776,,0,13,13,6,1,G,space,,,,,,,,,,
,,,,,R_99itjGCdtRkk6YN,001,2025-09-06_13h52.13.601,continuous_performance_test,2024.2.4,MacIntel,63.69426752,06742b79-9f63-4952-bf82-d36bd6473f09,6,161.3644,162.9144,space,1,0.3114,,0,14,14,17,1,R,space,,,,,,,,,,
,,,,,R_99itjGCdtRkk6YN,001,2025-09-06_13h52.13.601,continuous_performance_test,2024.2.4,MacIntel,63.69426752,06742b79-9f63-4952-bf82-d36bd6473f09,6,162.9149,164.9133,,1,,,0,15,15,29,1,X,,,,,,,,,,,
,,,,,R_99itjGCdtRkk6YN,001,2025-09-06_13h52.13.601,continuous_performance_test,2024.2.4,MacIntel,63.69426752,06742b79-9f63-4952-bf82-d36bd6473f09,6,164.9138,166.7137,space,1,0.466,,0,16,16,20,1,U,space,,,,,,,,,,
,,,,,R_99itjGCdtRkk6YN,001,2025-09-06_13h52.13.601,continuous_performance_test,2024.2.4,MacIntel,63.69426752,06742b79-9f63-4952-bf82-d36bd6473f09,6,166.7143,168.6633,space,1,0.4321,,0,17,17,14,1,O,space,,,,,,,,,,
,,,,,R_99itjGCdtRkk6YN,001,2025-09-06_13h52.13.601,continuous_performance_test,2024.2.4,MacIntel,63.69426752,06742b79-9f63-4952-bf82-d36bd6473f09,6,168.6639,170.6147,space,1,0.4801,,0,18,18,9,1,J,space,,,,,,,,,,
,,,,,R_99itjGCdtRkk6YN,001,2025-09-06_13h52.13.601,continuous_performance_test,2024.2.4,MacIntel,63.69426752,06742b79-9f63-4952-bf82-d36bd6473f09,6,170.6154,172.2641,space,1,0.5138,,0,19,19,15,1,P,space,,,,,,,,,,
,,,,,R_99itjGCdtRkk6YN,001,2025-09-06_13h52.13.601,continuous_performance_test,2024.2.4,MacIntel,63.69426752,06742b79-9f63-4952-bf82-d36bd6473f09,6,172.2646,174.0135,space,1,0.4823,,0,20,20,18,1,S,space,,,,,,,,,,
,,,,,R_99itjGCdtRkk6YN,001,2025-09-06_13h52.13.601,continuous_performance_test,2024.2.4,MacIntel,63.69426752,06742b79-9f63-4952-bf82-d36bd6473f09,6,174.0141,175.5636,space,1,0.4783,,0,21,21,1,1,B,space,,,,,,,,,,
,,,,,R_99itjGCdtRkk6YN,001,2025-09-06_13h52.13.601,continuous_performance_test,2024.2.4,MacIntel,63.69426752,06742b79-9f63-4952-bf82-d36bd6473f09,6,175.5642,177.3137,space,1,0.5143,,0,22,22,0,1,A,space,,,,,,,,,,
,,,,,R_99itjGCdtRkk6YN,001,2025-09-06_13h52.13.601,continuous_performance_test,2024.2.4,MacIntel,63.69426752,06742b79-9f63-4952-bf82-d36bd6473f09,6,177.3142,178.8637,space,1,0.4952,,0,23,23,19,1,T,space,,,,,,,,,,
,,,,,R_99itjGCdtRkk6YN,001,2025-09-06_13h52.13.601,continuous_performance_test,2024.2.4,MacIntel,63.69426752,06742b79-9f63-4952-bf82-d36bd6473f09,6,178.8643,180.8644,space,1,0.3937,,0,24,24,2,1,C,space,,,,,,,,,,
,,,,,R_99itjGCdtRkk6YN,001,2025-09-06_13h52.13.601,continuous_performance_test,2024.2.4,MacIntel,63.69426752,06742b79-9f63-4952-bf82-d36bd6473f09,6,180.8651,182.8638,space,1,0.3637,,0,25,25,3,1,D,space,,,,,,,,,,
,,,,,R_99itjGCdtRkk6YN,001,2025-09-06_13h52.13.601,continuous_performance_test,2024.2.4,MacIntel,63.69426752,06742b79-9f63-4952-bf82-d36bd6473f09,6,182.8644,184.7645,,1,,,0,26,26,26,1,X,,,,,,,,,,,
,,,,,R_99itjGCdtRkk6YN,001,2025-09-06_13h52.13.601,continuous_performance_test,2024.2.4,MacIntel,63.69426752,06742b79-9f63-4952-bf82-d36bd6473f09,6,184.765,186.4149,space,1,0.5146,,0,27,27,23,1,Y,space,,,,,,,,,,
,,,,,R_99itjGCdtRkk6YN,001,2025-09-06_13h52.13.601,continuous_performance_test,2024.2.4,MacIntel,63.69426752,06742b79-9f63-4952-bf82-d36bd6473f09,6,186.4155,188.0135,space,1,0.4099,,0,28,28,11,1,L,space,,,,,,,,,,
,,,,,R_99itjGCdtRkk6YN,001,2025-09-06_13h52.13.601,continuous_performance_test,2024.2.4,MacIntel,63.69426752,06742b79-9f63-4952-bf82-d36bd6473f09,6,188.0141,189.9635,space,1,0.5458,,0,29,29,5,1,F,space,,,,,,,,,,
,,,,,R_99itjGCdtRkk6YN,001,2025-09-06_13h52.13.601,continuous_performance_test,2024.2.4,MacIntel,63.69426752,06742b79-9f63-4952-bf82-d36bd6473f09,6,192.3016,193.9985,space,1,0.5669,,0,0,0,1,1,B,space,189.9642,192.2972,space,2.3086,,,,,,
,,,,,R_99itjGCdtRkk6YN,001,2025-09-06_13h52.13.601,continuous_performance_test,2024.2.4,MacIntel,63.69426752,06742b79-9f63-4952-bf82-d36bd6473f09,6,193.9993,195.6485,space,1,0.3799,,0,1,1,17,1,R,space,,,,,,,,,,
,,,,,R_99itjGCdtRkk6YN,001,2025-09-06_13h52.13.601,continuous_performance_test,2024.2.4,MacIntel,63.69426752,06742b79-9f63-4952-bf82-d36bd6473f09,6,195.6492,197.3488,space,1,0.3456,,0,2,2,12,1,M,space,,,,,,,,,,
,,,,,R_99itjGCdtRkk6YN,001,2025-09-06_13h52.13.601,continuous_performance_test,2024.2.4,MacIntel,63.69426752,06742b79-9f63-4952-bf82-d36bd6473f09,6,197.3494,199.2484,space,1,0.4125,,0,3,3,23,1,Y,space,,,,,,,,,,
,,,,,R_99itjGCdtRkk6YN,001,2025-09-06_13h52.13.601,continuous_performance_test,2024.2.4,MacIntel,63.69426752,06742b79-9f63-4952-bf82-d36bd6473f09,6,199.2491,200.8977,space,1,0.3657,,0,4,4,4,1,E,space,,,,,,,,,,
,,,,,R_99itjGCdtRkk6YN,001,2025-09-06_13h52.13.601,continuous_performance_test,2024.2.4,MacIntel,63.69426752,06742b79-9f63-4952-bf82-d36bd6473f09,6,200.8983,202.4982,space,1,0.4635,,0,5,5,10,1,K,space,,,,,,,,,,
,,,,,R_99itjGCdtRkk6YN,001,2025-09-06_13h52.13.601,continuous_performance_test,2024.2.4,MacIntel,63.69426752,06742b79-9f63-4952-bf82-d36bd6473f09,6,202.4988,204.2983,space,1,0.3482,,0,6,6,20,1,U,space,,,,,,,,,,
,,,,,R_99itjGCdtRkk6YN,001,2025-09-06_13h52.13.601,continuous_performance_test,2024.2.4,MacIntel,63.69426752,06742b79-9f63-4952-bf82-d36bd6473f09,6,204.299,206.0977,,1,,,0,7,7,26,1,X,,,,,,,,,,,
,,,,,R_99itjGCdtRkk6YN,001,2025-09-06_13h52.13.601,continuous_performance_test,2024.2.4,MacIntel,63.69426752,06742b79-9f63-4952-bf82-d36bd6473f09,6,206.0983,208.0983,space,1,0.3818,,0,8,8,11,1,L,space,,,,,,,,,,
,,,,,R_99itjGCdtRkk6YN,001,2025-09-06_13h52.13.601,continuous_performance_test,2024.2.4,MacIntel,63.69426752,06742b79-9f63-4952-bf82-d36bd6473f09,6,208.0991,209.7481,,1,,,0,9,9,29,1,X,,,,,,,,,,,
,,,,,R_99itjGCdtRkk6YN,001,2025-09-06_13h52.13.601,continuous_performance_test,2024.2.4,MacIntel,63.69426752,06742b79-9f63-4952-bf82-d36bd6473f09,6,209.7487,211.4978,space,1,0.4151,,0,10,10,3,1,D,space,,,,,,,,,,
,,,,,R_99itjGCdtRkk6YN,001,2025-09-06_13h52.13.601,continuous_performance_test,2024.2.4,MacIntel,63.69426752,06742b79-9f63-4952-bf82-d36bd6473f09,6,211.4985,213.1481,space,1,0.3794,,0,11,11,22,1,W,space,,,,,,,,,,
,,,,,R_99itjGCdtRkk6YN,001,2025-09-06_13h52.13.601,continuous_performance_test,2024.2.4,MacIntel,63.69426752,06742b79-9f63-4952-bf82-d36bd6473f09,6,213.1487,215.0971,space,1,0.4289,,0,12,12,16,1,Q,space,,,,,,,,,,
,,,,,R_99itjGCdtRkk6YN,001,2025-09-06_13h52.13.601,continuous_performance_test,2024.2.4,MacIntel,63.69426752,06742b79-9f63-4952-bf82-d36bd6473f09,6,215.0978,216.6485,space,1,0.379,,0,13,13,13,1,N,space,,,,,,,,,,
,,,,,R_99itjGCdtRkk6YN,001,2025-09-06_13h52.13.601,continuous_performance_test,2024.2.4,MacIntel,63.69426752,06742b79-9f63-4952-bf82-d36bd6473f09,6,216.6491,218.3972,space,1,0.4812,,0,14,14,9,1,J,space,,,,,,,,,,
,,,,,R_99itjGCdtRkk6YN,001,2025-09-06_13h52.13.601,continuous_performance_test,2024.2.4,MacIntel,63.69426752,06742b79-9f63-4952-bf82-d36bd6473f09,6,218.3979,220.1974,space,1,0.4814,,0,15,15,2,1,C,space,,,,,,,,,,
,,,,,R_99itjGCdtRkk6YN,001,2025-09-06_13h52.13.601,continuous_performance_test,2024.2.4,MacIntel,63.69426752,06742b79-9f63-4952-bf82-d36bd6473f09,6,220.198,222.1972,,1,,,0,16,16,28,1,X,,,,,,,,,,,
,,,,,R_99itjGCdtRkk6YN,001,2025-09-06_13h52.13.601,continuous_performance_test,2024.2.4,MacIntel,63.69426752,06742b79-9f63-4952-bf82-d36bd6473f09,6,222.1979,224.0979,space,1,0.4143,,0,17,17,0,1,A,space,,,,,,,,,,
,,,,,R_99itjGCdtRkk6YN,001,2025-09-06_13h52.13.601,continuous_performance_test,2024.2.4,MacIntel,63.69426752,06742b79-9f63-4952-bf82-d36bd6473f09,6,224.0985,225.6974,space,1,0.5486,,0,18,18,19,1,T,space,,,,,,,,,,
,,,,,R_99itjGCdtRkk6YN,001,2025-09-06_13h52.13.601,continuous_performance_test,2024.2.4,MacIntel,63.69426752,06742b79-9f63-4952-bf82-d36bd6473f09,6,225.6982,227.4974,space,1,0.5614,,0,19,19,18,1,S,space,,,,,,,,,,
,,,,,R_99itjGCdtRkk6YN,001,2025-09-06_13h52.13.601,continuous_performance_test,2024.2.4,MacIntel,63.69426752,06742b79-9f63-4952-bf82-d36bd6473f09,6,227.498,229.1981,space,1,0.5738,,0,20,20,7,1,H,space,,,,,,,,,,
,,,,,R_99itjGCdtRkk6YN,001,2025-09-06_13h52.13.601,continuous_performance_test,2024.2.4,MacIntel,63.69426752,06742b79-9f63-4952-bf82-d36bd6473f09,6,229.1987,231.1473,,1,,,0,21,21,27,1,X,,,,,,,,,,,
,,,,,R_99itjGCdtRkk6YN,001,2025-09-06_13h52.13.601,continuous_performance_test,2024.2.4,MacIntel,63.69426752,06742b79-9f63-4952-bf82-d36bd6473f09,6,231.1479,232.748,space,1,0.5606,,0,22,22,15,1,P,space,,,,,,,,,,
,,,,,R_99itjGCdtRkk6YN,001,2025-09-06_13h52.13.601,continuous_performance_test,2024.2.4,MacIntel,63.69426752,06742b79-9f63-4952-bf82-d36bd6473f09,6,232.7488,234.5483,space,1,0.4996,,0,23,23,21,1,V,space,,,,,,,,,,
,,,,,R_99itjGCdtRkk6YN,001,2025-09-06_13h52.13.601,continuous_performance_test,2024.2.4,MacIntel,63.69426752,06742b79-9f63-4952-bf82-d36bd6473f09,6,234.5489,236.3973,space,1,0.445,,0,24,24,6,1,G,space,,,,,,,,,,
,,,,,R_99itjGCdtRkk6YN,001,2025-09-06_13h52.13.601,continuous_performance_test,2024.2.4,MacIntel,63.69426752,06742b79-9f63-4952-bf82-d36bd6473f09,6,236.398,237.9974,,1,,,0,25,25,25,1,X,,,,,,,,,,,
,,,,,R_99itjGCdtRkk6YN,001,2025-09-06_13h52.13.601,continuous_performance_test,2024.2.4,MacIntel,63.69426752,06742b79-9f63-4952-bf82-d36bd6473f09,6,237.9981,239.9974,space,1,0.5321,,0,26,26,8,1,I,space,,,,,,,,,,
,,,,,R_99itjGCdtRkk6YN,001,2025-09-06_13h52.13.601,continuous_performance_test,2024.2.4,MacIntel,63.69426752,06742b79-9f63-4952-bf82-d36bd6473f09,6,239.9981,241.9471,space,1,0.632,,0,27,27,5,1,F,space,,,,,,,,,,
,,,,,R_99itjGCdtRkk6YN,001,2025-09-06_13h52.13.601,continuous_performance_test,2024.2.4,MacIntel,63.69426752,06742b79-9f63-4952-bf82-d36bd6473f09,6,241.9477,243.598,space,1,0.4766,,0,28,28,24,1,Z,space,,,,,,,,,,
,,,,,R_99itjGCdtRkk6YN,001,2025-09-06_13h52.13.601,continuous_performance_test,2024.2.4,MacIntel,63.69426752,06742b79-9f63-4952-bf82-d36bd6473f09,6,243.5986,245.2492,space,1,0.5298,,0,29,29,14,1,O,space,,,,,,,,,,
,,,,,R_99itjGCdtRkk6YN,001,2025-09-06_13h52.13.601,continuous_performance_test,2024.2.4,MacIntel,63.69426752,06742b79-9f63-4952-bf82-d36bd6473f09,6,256.9359,258.531,space,1,0.6816,,0,0,0,13,1,N,space,245.2498,256.9315,space,11.6526,,,,,,
,,,,,R_99itjGCdtRkk6YN,001,2025-09-06_13h52.13.601,continuous_performance_test,2024.2.4,MacIntel,63.69426752,06742b79-9f63-4952-bf82-d36bd6473f09,6,258.5316,260.2817,space,1,0.4962,,0,1,1,16,1,Q,space,,,,,,,,,,
,,,,,R_99itjGCdtRkk6YN,001,2025-09-06_13h52.13.601,continuous_performance_test,2024.2.4,MacIntel,63.69426752,06742b79-9f63-4952-bf82-d36bd6473f09,6,260.2825,261.9316,space,1,0.3802,,0,2,2,19,1,T,space,,,,,,,,,,
,,,,,R_99itjGCdtRkk6YN,001,2025-09-06_13h52.13.601,continuous_performance_test,2024.2.4,MacIntel,63.69426752,06742b79-9f63-4952-bf82-d36bd6473f09,6,261.9322,263.5817,space,1,0.3482,,0,3,3,10,1,K,space,,,,,,,,,,
,,,,,R_99itjGCdtRkk6YN,001,2025-09-06_13h52.13.601,continuous_performance_test,2024.2.4,MacIntel,63.69426752,06742b79-9f63-4952-bf82-d36bd6473f09,6,263.5826,265.2314,space,1,0.3323,,0,4,4,11,1,L,space,,,,,,,,,,
,,,,,R_99itjGCdtRkk6YN,001,2025-09-06_13h52.13.601,continuous_performance_test,2024.2.4,MacIntel,63.69426752,06742b79-9f63-4952-bf82-d36bd6473f09,6,265.2321,266.9317,space,1,0.3343,,0,5,5,5,1,F,space,,,,,,,,,,
,,,,,R_99itjGCdtRkk6YN,001,2025-09-06_13h52.13.601,continuous_performance_test,2024.2.4,MacIntel,63.69426752,06742b79-9f63-4952-bf82-d36bd6473f09,6,266.9327,268.7817,space,1,0.3632,,0,6,6,20,1,U,space,,,,,,,,,,
,,,,,R_99itjGCdtRkk6YN,001,2025-09-06_13h52.13.601,continuous_performance_test,2024.2.4,MacIntel,63.69426752,06742b79-9f63-4952-bf82-d36bd6473f09,6,268.7824,270.6318,space,1,0.3667,,0,7,7,3,1,D,space,,,,,,,,,,
,,,,,R_99itjGCdtRkk6YN,001,2025-09-06_13h52.13.601,continuous_performance_test,2024.2.4,MacIntel,63.69426752,06742b79-9f63-4952-bf82-d36bd6473f09,6,270.6326,272.4814,space,1,0.3322,,0,8,8,18,1,S,space,,,,,,,,,,
,,,,,R_99itjGCdtRkk6YN,001,2025-09-06_13h52.13.601,continuous_performance_test,2024.2.4,MacIntel,63.69426752,06742b79-9f63-4952-bf82-d36bd6473f09,6,272.4823,274.0817,space,0,0.326,,0,9,9,26,1,X,,,,,,,,,,,
,,,,,R_99itjGCdtRkk6YN,001,2025-09-06_13h52.13.601,continuous_performance_test,2024.2.4,MacIntel,63.69426752,06742b79-9f63-4952-bf82-d36bd6473f09,6,274.0824,275.782,,1,,,0,10,10,28,1,X,,,,,,,,,,,
,,,,,R_99itjGCdtRkk6YN,001,2025-09-06_13h52.13.601,continuous_performance_test,2024.2.4,MacIntel,63.69426752,06742b79-9f63-4952-bf82-d36bd6473f09,6,275.7828,277.4813,space,1,0.3307,,0,11,11,9,1,J,space,,,,,,,,,,
,,,,,R_99itjGCdtRkk6YN,001,2025-09-06_13h52.13.601,continuous_performance_test,2024.2.4,MacIntel,63.69426752,06742b79-9f63-4952-bf82-d36bd6473f09,6,277.4821,279.4814,space,1,0.3986,,0,12,12,22,1,W,space,,,,,,,,,,
,,,,,R_99itjGCdtRkk6YN,001,2025-09-06_13h52.13.601,continuous_performance_test,2024.2.4,MacIntel,63.69426752,06742b79-9f63-4952-bf82-d36bd6473f09,6,279.4823,281.2817,space,1,0.3497,,0,13,13,2,1,C,space,,,,,,,,,,
,,,,,R_99itjGCdtRkk6YN,001,2025-09-06_13h52.13.601,continuous_performance_test,2024.2.4,MacIntel,63.69426752,06742b79-9f63-4952-bf82-d36bd6473f09,6,281.2823,282.8808,space,1,0.363,,0,14,14,8,1,I,space,,,,,,,,,,
,,,,,R_99itjGCdtRkk6YN,001,2025-09-06_13h52.13.601,continuous_performance_test,2024.2.4,MacIntel,63.69426752,06742b79-9f63-4952-bf82-d36bd6473f09,6,282.8815,284.5317,space,1,0.4114,,0,15,15,15,1,P,space,,,,,,,,,,
,,,,,R_99itjGCdtRkk6YN,001,2025-09-06_13h52.13.601,continuous_performance_test,2024.2.4,MacIntel,63.69426752,06742b79-9f63-4952-bf82-d36bd6473f09,6,284.5324,286.3816,space,1,0.4132,,0,16,16,21,1,V,space,,,,,,,,,,
,,,,,R_99itjGCdtRkk6YN,001,2025-09-06_13h52.13.601,continuous_performance_test,2024.2.4,MacIntel,63.69426752,06742b79-9f63-4952-bf82-d36bd6473f09,6,286.3822,287.9317,space,1,0.3764,,0,17,17,14,1,O,space,,,,,,,,,,
,,,,,R_99itjGCdtRkk6YN,001,2025-09-06_13h52.13.601,continuous_performance_test,2024.2.4,MacIntel,63.69426752,06742b79-9f63-4952-bf82-d36bd6473f09,6,287.9323,289.8313,space,1,0.395,,0,18,18,24,1,Z,space,,,,,,,,,,
,,,,,R_99itjGCdtRkk6YN,001,2025-09-06_13h52.13.601,continuous_performance_test,2024.2.4,MacIntel,63.69426752,06742b79-9f63-4952-bf82-d36bd6473f09,6,289.8319,291.5834,space,1,0.4122,,0,19,19,12,1,M,space,,,,,,,,,,
,,,,,R_99itjGCdtRkk6YN,001,2025-09-06_13h52.13.601,continuous_performance_test,2024.2.4,MacIntel,63.69426752,06742b79-9f63-4952-bf82-d36bd6473f09,6,291.5841,293.4318,space,1,0.3957,,0,20,20,23,1,Y,space,,,,,,,,,,
,,,,,R_99itjGCdtRkk6YN,001,2025-09-06_13h52.13.601,continuous_performance_test,2024.2.4,MacIntel,63.69426752,06742b79-9f63-4952-bf82-d36bd6473f09,6,293.4326,295.0309,space,1,0.3831,,0,21,21,4,1,E,space,,,,,,,,,,
,,,,,R_99itjGCdtRkk6YN,001,2025-09-06_13h52.13.601,continuous_performance_test,2024.2.4,MacIntel,63.69426752,06742b79-9f63-4952-bf82-d36bd6473f09,6,295.0315,297.032,space,1,0.4626,,0,22,22,6,1,G,space,,,,,,,,,,
,,,,,R_99itjGCdtRkk6YN,001,2025-09-06_13h52.13.601,continuous_performance_test,2024.2.4,MacIntel,63.69426752,06742b79-9f63-4952-bf82-d36bd6473f09,6,297.0329,298.9318,space,1,0.4964,,0,23,23,1,1,B,space,,,,,,,,,,
,,,,,R_99itjGCdtRkk6YN,001,2025-09-06_13h52.13.601,continuous_performance_test,2024.2.4,MacIntel,63.69426752,06742b79-9f63-4952-bf82-d36bd6473f09,6,298.9324,300.9319,space,1,0.3479,,0,24,24,0,1,A,space,,,,,,,,,,
,,,,,R_99itjGCdtRkk6YN,001,2025-09-06_13h52.13.601,continuous_performance_test,2024.2.4,MacIntel,63.69426752,06742b79-9f63-4952-bf82-d36bd6473f09,6,300.9328,302.5819,space,1,0.532,,0,25,25,7,1,H,space,,,,,,,,,,
,,,,,R_99itjGCdtRkk6YN,001,2025-09-06_13h52.13.601,continuous_performance_test,2024.2.4,MacIntel,63.69426752,06742b79-9f63-4952-bf82-d36bd6473f09,6,302.5828,304.2317,,1,,,0,26,26,25,1,X,,,,,,,,,,,
,,,,,R_99itjGCdtRkk6YN,001,2025-09-06_13h52.13.601,continuous_performance_test,2024.2.4,MacIntel,63.69426752,06742b79-9f63-4952-bf82-d36bd6473f09,6,304.2324,305.981,space,1,0.497,,0,27,27,17,1,R,space,,,,,,,,,,
,,,,,R_99itjGCdtRkk6YN,001,2025-09-06_13h52.13.601,continuous_performance_test,2024.2.4,MacIntel,63.69426752,06742b79-9f63-4952-bf82-d36bd6473f09,6,305.9817,307.6818,,1,,,0,28,28,29,1,X,,,,,,,,,,,
,,,,,R_99itjGCdtRkk6YN,001,2025-09-06_13h52.13.601,continuous_performance_test,2024.2.4,MacIntel,63.69426752,06742b79-9f63-4952-bf82-d36bd6473f09,6,307.6824,309.2816,,1,,,0,29,29,27,1,X,,,,,,,,,,,
,,,,,R_99itjGCdtRkk6YN,001,2025-09-06_13h52.13.601,continuous_performance_test,2024.2.4,MacIntel,63.69426752,06742b79-9f63-4952-bf82-d36bd6473f09,6,310.2686,311.9652,,1,,,0,0,0,26,1,X,,309.2822,310.2646,space,0.9566,,,,,,
,,,,,R_99itjGCdtRkk6YN,001,2025-09-06_13h52.13.601,continuous_performance_test,2024.2.4,MacIntel,63.69426752,06742b79-9f63-4952-bf82-d36bd6473f09,6,311.9659,313.5642,space,1,0.4294,,0,1,1,24,1,Z,space,,,,,,,,,,
,,,,,R_99itjGCdtRkk6YN,001,2025-09-06_13h52.13.601,continuous_performance_test,2024.2.4,MacIntel,63.69426752,06742b79-9f63-4952-bf82-d36bd6473f09,6,313.5649,315.5659,space,1,0.4975,,0,2,2,16,1,Q,space,,,,,,,,,,
,,,,,R_99itjGCdtRkk6YN,001,2025-09-06_13h52.13.601,continuous_performance_test,2024.2.4,MacIntel,63.69426752,06742b79-9f63-4952-bf82-d36bd6473f09,6,315.5666,317.1642,space,1,0.515,,0,3,3,2,1,C,space,,,,,,,,,,
,,,,,R_99itjGCdtRkk6YN,001,2025-09-06_13h52.13.601,continuous_performance_test,2024.2.4,MacIntel,63.69426752,06742b79-9f63-4952-bf82-d36bd6473f09,6,317.1648,318.7145,space,1,0.5181,,0,4,4,13,1,N,space,,,,,,,,,,
,,,,,R_99itjGCdtRkk6YN,001,2025-09-06_13h52.13.601,continuous_performance_test,2024.2.4,MacIntel,63.69426752,06742b79-9f63-4952-bf82-d36bd6473f09,6,318.7152,320.4146,space,1,0.4788,,0,5,5,14,1,O,space,,,,,,,,,,
,,,,,R_99itjGCdtRkk6YN,001,2025-09-06_13h52.13.601,continuous_performance_test,2024.2.4,MacIntel,63.69426752,06742b79-9f63-4952-bf82-d36bd6473f09,6,320.4153,321.9652,space,1,0.5109,,0,6,6,9,1,J,space,,,,,,,,,,
,,,,,R_99itjGCdtRkk6YN,001,2025-09-06_13h52.13.601,continuous_performance_test,2024.2.4,MacIntel,63.69426752,06742b79-9f63-4952-bf82-d36bd6473f09,6,321.9659,323.7647,space,1,0.5261,,0,7,7,0,1,A,space,,,,,,,,,,
,,,,,R_99itjGCdtRkk6YN,001,2025-09-06_13h52.13.601,continuous_performance_test,2024.2.4,MacIntel,63.69426752,06742b79-9f63-4952-bf82-d36bd6473f09,6,323.7653,325.315,space,1,0.447,,0,8,8,12,1,M,space,,,,,,,,,,
,,,,,R_99itjGCdtRkk6YN,001,2025-09-06_13h52.13.601,continuous_performance_test,2024.2.4,MacIntel,63.69426752,06742b79-9f63-4952-bf82-d36bd6473f09,6,325.3158,326.9653,space,1,0.4942,,0,9,9,17,1,R,space,,,,,,,,,,
,,,,,R_99itjGCdtRkk6YN,001,2025-09-06_13h52.13.601,continuous_performance_test,2024.2.4,MacIntel,63.69426752,06742b79-9f63-4952-bf82-d36bd6473f09,6,326.9659,328.7146,space,1,0.493,,0,10,10,11,1,L,space,,,,,,,,,,
,,,,,R_99itjGCdtRkk6YN,001,2025-09-06_13h52.13.601,continuous_performance_test,2024.2.4,MacIntel,63.69426752,06742b79-9f63-4952-bf82-d36bd6473f09,6,328.7152,330.2645,space,0,0.3992,,0,11,11,27,1,X,,,,,,,,,,,
,,,,,R_99itjGCdtRkk6YN,001,2025-09-06_13h52.13.601,continuous_performance_test,2024.2.4,MacIntel,63.69426752,06742b79-9f63-4952-bf82-d36bd6473f09,6,330.2651,332.2152,space,1,0.4972,,0,12,12,21,1,V,space,,,,,,,,,,
,,,,,R_99itjGCdtRkk6YN,001,2025-09-06_13h52.13.601,continuous_performance_test,2024.2.4,MacIntel,63.69426752,06742b79-9f63-4952-bf82-d36bd6473f09,6,332.2158,334.0646,,1,,,0,13,13,29,1,X,,,,,,,,,,,
,,,,,R_99itjGCdtRkk6YN,001,2025-09-06_13h52.13.601,continuous_performance_test,2024.2.4,MacIntel,63.69426752,06742b79-9f63-4952-bf82-d36bd6473f09,6,334.0652,335.7653,space,1,0.4812,,0,14,14,10,1,K,space,,,,,,,,,,
,,,,,R_99itjGCdtRkk6YN,001,2025-09-06_13h52.13.601,continuous_performance_test,2024.2.4,MacIntel,63.69426752,06742b79-9f63-4952-bf82-d36bd6473f09,6,335.7659,337.5651,space,1,0.3829,,0,15,15,19,1,T,space,,,,,,,,,,
,,,,,R_99itjGCdtRkk6YN,001,2025-09-06_13h52.13.601,continuous_performance_test,2024.2.4,MacIntel,63.69426752,06742b79-9f63-4952-bf82-d36bd6473f09,6,337.5659,339.565,space,1,0.4962,,0,16,16,8,1,I,space,,,,,,,,,,
,,,,,R_99itjGCdtRkk6YN,001,2025-09-06_13h52.13.601,continuous_performance_test,2024.2.4,MacIntel,63.69426752,06742b79-9f63-4952-bf82-d36bd6473f09,6,339.5656,341.4161,space,1,0.4166,,0,17,17,3,1,D,space,,,,,,,,,,
,,,,,R_99itjGCdtRkk6YN,001,2025-09-06_13h52.13.601,continuous_performance_test,2024.2.4,MacIntel,63.69426752,06742b79-9f63-4952-bf82-d36bd6473f09,6,341.4167,343.315,space,1,0.3457,,0,18,18,18,1,S,space,,,,,,,,,,
,,,,,R_99itjGCdtRkk6YN,001,2025-09-06_13h52.13.601,continuous_performance_test,2024.2.4,MacIntel,63.69426752,06742b79-9f63-4952-bf82-d36bd6473f09,6,343.3156,345.2651,space,1,0.4119,,0,19,19,6,1,G,space,,,,,,,,,,
,,,,,R_99itjGCdtRkk6YN,001,2025-09-06_13h52.13.601,continuous_performance_test,2024.2.4,MacIntel,63.69426752,06742b79-9f63-4952-bf82-d36bd6473f09,6,345.2658,346.8154,,1,,,0,20,20,25,1,X,,,,,,,,,,,
,,,,,R_99itjGCdtRkk6YN,001,2025-09-06_13h52.13.601,continuous_performance_test,2024.2.4,MacIntel,63.69426752,06742b79-9f63-4952-bf82-d36bd6473f09,6,346.816,348.6644,space,1,0.4461,,0,21,21,1,1,B,space,,,,,,,,,,
,,,,,R_99itjGCdtRkk6YN,001,2025-09-06_13h52.13.601,continuous_performance_test,2024.2.4,MacIntel,63.69426752,06742b79-9f63-4952-bf82-d36bd6473f09,6,348.665,350.4654,,1,,,0,22,22,28,1,X,,,,,,,,,,,
,,,,,R_99itjGCdtRkk6YN,001,2025-09-06_13h52.13.601,continuous_performance_test,2024.2.4,MacIntel,63.69426752,06742b79-9f63-4952-bf82-d36bd6473f09,6,350.466,352.3149,space,1,0.4294,,0,23,23,5,1,F,space,,,,,,,,,,
,,,,,R_99itjGCdtRkk6YN,001,2025-09-06_13h52.13.601,continuous_performance_test,2024.2.4,MacIntel,63.69426752,06742b79-9f63-4952-bf82-d36bd6473f09,6,352.3155,354.3154,space,1,0.3803,,0,24,24,23,1,Y,space,,,,,,,,,,
,,,,,R_99itjGCdtRkk6YN,001,2025-09-06_13h52.13.601,continuous_performance_test,2024.2.4,MacIntel,63.69426752,06742b79-9f63-4952-bf82-d36bd6473f09,6,354.316,356.0654,space,1,0.565,,0,25,25,20,1,U,space,,,,,,,,,,
,,,,,R_99itjGCdtRkk6YN,001,2025-09-06_13h52.13.601,continuous_performance_test,2024.2.4,MacIntel,63.69426752,06742b79-9f63-4952-bf82-d36bd6473f09,6,356.066,357.7152,space,1,0.5185,,0,26,26,4,1,E,space,,,,,,,,,,
,,,,,R_99itjGCdtRkk6YN,001,2025-09-06_13h52.13.601,continuous_performance_test,2024.2.4,MacIntel,63.69426752,06742b79-9f63-4952-bf82-d36bd6473f09,6,357.7158,359.6654,space,1,0.4289,,0,27,27,22,1,W,space,,,,,,,,,,
,,,,,R_99itjGCdtRkk6YN,001,2025-09-06_13h52.13.601,continuous_performance_test,2024.2.4,MacIntel,63.69426752,06742b79-9f63-4952-bf82-d36bd6473f09,6,359.6659,361.3147,space,1,0.4818,,0,28,28,15,1,P,space,,,,,,,,,,
,,,,,R_99itjGCdtRkk6YN,001,2025-09-06_13h52.13.601,continuous_performance_test,2024.2.4,MacIntel,63.69426752,06742b79-9f63-4952-bf82-d36bd6473f09,6,361.3153,363.2144,space,1,0.6454,,0,29,29,7,1,H,space,,,,,,,,,,
,,,,,R_99itjGCdtRkk6YN,001,2025-09-06_13h52.13.601,continuous_performance_test,2024.2.4,MacIntel,63.69426752,06742b79-9f63-4952-bf82-d36bd6473f09,6,364.0352,365.9812,space,1,0.5806,,0,0,0,16,1,Q,space,363.2149,364.0313,space,0.791,,,,,,
,,,,,R_99itjGCdtRkk6YN,001,2025-09-06_13h52.13.601,continuous_performance_test,2024.2.4,MacIntel,63.69426752,06742b79-9f63-4952-bf82-d36bd6473f09,6,365.982,367.7311,space,1,0.3639,,0,1,1,14,1,O,space,,,,,,,,,,
,,,,,R_99itjGCdtRkk6YN,001,2025-09-06_13h52.13.601,continuous_performance_test,2024.2.4,MacIntel,63.69426752,06742b79-9f63-4952-bf82-d36bd6473f09,6,367.7318,369.2813,,1,,,0,2,2,29,1,X,,,,,,,,,,,
,,,,,R_99itjGCdtRkk6YN,001,2025-09-06_13h52.13.601,continuous_performance_test,2024.2.4,MacIntel,63.69426752,06742b79-9f63-4952-bf82-d36bd6473f09,6,369.2817,371.0321,,1,,,0,3,3,28,1,X,,,,,,,,,,,
,,,,,R_99itjGCdtRkk6YN,001,2025-09-06_13h52.13.601,continuous_performance_test,2024.2.4,MacIntel,63.69426752,06742b79-9f63-4952-bf82-d36bd6473f09,6,371.0328,372.9816,space,1,0.3632,,0,4,4,1,1,B,space,,,,,,,,,,
,,,,,R_99itjGCdtRkk6YN,001,2025-09-06_13h52.13.601,continuous_performance_test,2024.2.4,MacIntel,63.69426752,06742b79-9f63-4952-bf82-d36bd6473f09,6,372.9825,374.9314,space,1,0.4612,,0,5,5,7,1,H,space,,,,,,,,,,
,,,,,R_99itjGCdtRkk6YN,001,2025-09-06_13h52.13.601,continuous_performance_test,2024.2.4,MacIntel,63.69426752,06742b79-9f63-4952-bf82-d36bd6473f09,6,374.9324,376.8319,space,1,0.3633,,0,6,6,8,1,I,space,,,,,,,,,,
,,,,,R_99itjGCdtRkk6YN,001,2025-09-06_13h52.13.601,continuous_performance_test,2024.2.4,MacIntel,63.69426752,06742b79-9f63-4952-bf82-d36bd6473f09,6,376.8326,378.7322,space,1,0.4635,,0,7,7,0,1,A,space,,,,,,,,,,
,,,,,R_99itjGCdtRkk6YN,001,2025-09-06_13h52.13.601,continuous_performance_test,2024.2.4,MacIntel,63.69426752,06742b79-9f63-4952-bf82-d36bd6473f09,6,378.7329,380.5822,space,1,0.3323,,0,8,8,5,1,F,space,,,,,,,,,,
,,,,,R_99itjGCdtRkk6YN,001,2025-09-06_13h52.13.601,continuous_performance_test,2024.2.4,MacIntel,63.69426752,06742b79-9f63-4952-bf82-d36bd6473f09,6,380.5828,382.3311,space,1,0.3638,,0,9,9,23,1,Y,space,,,,,,,,,,
,,,,,R_99itjGCdtRkk6YN,001,2025-09-06_13h52.13.601,continuous_performance_test,2024.2.4,MacIntel,63.69426752,06742b79-9f63-4952-bf82-d36bd6473f09,6,382.3319,384.0823,space,1,0.3644,,0,10,10,12,1,M,space,,,,,,,,,,
,,,,,R_99itjGCdtRkk6YN,001,2025-09-06_13h52.13.601,continuous_performance_test,2024.2.4,MacIntel,63.69426752,06742b79-9f63-4952-bf82-d36bd6473f09,6,384.0832,385.6325,space,1,0.3669,,0,11,11,6,1,G,space,,,,,,,,,,
,,,,,R_99itjGCdtRkk6YN,001,2025-09-06_13h52.13.601,continuous_performance_test,2024.2.4,MacIntel,63.69426752,06742b79-9f63-4952-bf82-d36bd6473f09,6,385.6334,387.4325,space,1,0.3471,,0,12,12,21,1,V,space,,,,,,,,,,
,,,,,R_99itjGCdtRkk6YN,001,2025-09-06_13h52.13.601,continuous_performance_test,2024.2.4,MacIntel,63.69426752,06742b79-9f63-4952-bf82-d36bd6473f09,6,387.4333,389.1311,space,1,0.384,,0,13,13,3,1,D,space,,,,,,,,,,
,,,,,R_99itjGCdtRkk6YN,001,2025-09-06_13h52.13.601,continuous_performance_test,2024.2.4,MacIntel,63.69426752,06742b79-9f63-4952-bf82-d36bd6473f09,6,389.1318,390.8324,space,1,0.3317,,0,14,14,13,1,N,space,,,,,,,,,,
,,,,,R_99itjGCdtRkk6YN,001,2025-09-06_13h52.13.601,continuous_performance_test,2024.2.4,MacIntel,63.69426752,06742b79-9f63-4952-bf82-d36bd6473f09,6,390.8334,392.5824,space,1,0.3644,,0,15,15,18,1,S,space,,,,,,,,,,
,,,,,R_99itjGCdtRkk6YN,001,2025-09-06_13h52.13.601,continuous_performance_test,2024.2.4,MacIntel,63.69426752,06742b79-9f63-4952-bf82-d36bd6473f09,6,392.5832,394.3313,space,1,0.399,,0,16,16,15,1,P,space,,,,,,,,,,
,,,,,R_99itjGCdtRkk6YN,001,2025-09-06_13h52.13.601,continuous_performance_test,2024.2.4,MacIntel,63.69426752,06742b79-9f63-4952-bf82-d36bd6473f09,6,394.3319,395.9325,space,1,0.3957,,0,17,17,20,1,U,space,,,,,,,,,,
,,,,,R_99itjGCdtRkk6YN,001,2025-09-06_13h52.13.601,continuous_performance_test,2024.2.4,MacIntel,63.69426752,06742b79-9f63-4952-bf82-d36bd6473f09,6,395.9334,397.7824,space,1,0.3488,,0,18,18,24,1,Z,space,,,,,,,,,,
,,,,,R_99itjGCdtRkk6YN,001,2025-09-06_13h52.13.601,continuous_performance_test,2024.2.4,MacIntel,63.69426752,06742b79-9f63-4952-bf82-d36bd6473f09,6,397.7831,399.3823,,1,,,0,19,19,26,1,X,,,,,,,,,,,
,,,,,R_99itjGCdtRkk6YN,001,2025-09-06_13h52.13.601,continuous_performance_test,2024.2.4,MacIntel,63.69426752,06742b79-9f63-4952-bf82-d36bd6473f09,6,399.3829,400.9315,space,1,0.3633,,0,20,20,9,1,J,space,,,,,,,,,,
,,,,,R_99itjGCdtRkk6YN,001,2025-09-06_13h52.13.601,continuous_performance_test,2024.2.4,MacIntel,63.69426752,06742b79-9f63-4952-bf82-d36bd6473f09,6,400.9323,402.7323,space,1,0.3485,,0,21,21,17,1,R,space,,,,,,,,,,
,,,,,R_99itjGCdtRkk6YN,001,2025-09-06_13h52.13.601,continuous_performance_test,2024.2.4,MacIntel,63.69426752,06742b79-9f63-4952-bf82-d36bd6473f09,6,402.7329,404.4314,space,1,0.3992,,0,22,22,22,1,W,space,,,,,,,,,,
,,,,,R_99itjGCdtRkk6YN,001,2025-09-06_13h52.13.601,continuous_performance_test,2024.2.4,MacIntel,63.69426752,06742b79-9f63-4952-bf82-d36bd6473f09,6,404.4321,405.9824,space,1,0.4308,,0,23,23,2,1,C,space,,,,,,,,,,
,,,,,R_99itjGCdtRkk6YN,001,2025-09-06_13h52.13.601,continuous_performance_test,2024.2.4,MacIntel,63.69426752,06742b79-9f63-4952-bf82-d36bd6473f09,6,405.983,407.6316,space,0,0.413,,0,24,24,27,1,X,,,,,,,,,,,
,,,,,R_99itjGCdtRkk6YN,001,2025-09-06_13h52.13.601,continuous_performance_test,2024.2.4,MacIntel,63.69426752,06742b79-9f63-4952-bf82-d36bd6473f09,6,407.6324,409.4325,space,1,0.4134,,0,25,25,19,1,T,space,,,,,,,,,,
,,,,,R_99itjGCdtRkk6YN,001,2025-09-06_13h52.13.601,continuous_performance_test,2024.2.4,MacIntel,63.69426752,06742b79-9f63-4952-bf82-d36bd6473f09,6,409.4335,411.3325,space,1,0.3642,,0,26,26,11,1,L,space,,,,,,,,,,
,,,,,R_99itjGCdtRkk6YN,001,2025-09-06_13h52.13.601,continuous_performance_test,2024.2.4,MacIntel,63.69426752,06742b79-9f63-4952-bf82-d36bd6473f09,6,411.3333,413.2326,,1,,,0,27,27,25,1,X,,,,,,,,,,,
,,,,,R_99itjGCdtRkk6YN,001,2025-09-06_13h52.13.601,continuous_performance_test,2024.2.4,MacIntel,63.69426752,06742b79-9f63-4952-bf82-d36bd6473f09,6,413.2335,414.9314,space,1,0.4454,,0,28,28,10,1,K,space,,,,,,,,,,
,,,,,R_99itjGCdtRkk6YN,001,2025-09-06_13h52.13.601,continuous_performance_test,2024.2.4,MacIntel,63.69426752,06742b79-9f63-4952-bf82-d36bd6473f09,6,414.9322,416.5827,space,1,0.412,,0,29,29,4,1,E,space,,,,,,,,,,
,,,,,R_99itjGCdtRkk6YN,001,2025-09-06_13h52.13.601,continuous_performance_test,2024.2.4,MacIntel,63.69426752,06742b79-9f63-4952-bf82-d36bd6473f09,6,417.5024,419.2993,space,1,0.6306,,0,0,0,22,1,W,space,416.5837,417.4989,space,0.8795,,,,,,
,,,,,R_99itjGCdtRkk6YN,001,2025-09-06_13h52.13.601,continuous_performance_test,2024.2.4,MacIntel,63.69426752,06742b79-9f63-4952-bf82-d36bd6473f09,6,419.3001,421.1001,,1,,,0,1,1,26,1,X,,,,,,,,,,,
,,,,,R_99itjGCdtRkk6YN,001,2025-09-06_13h52.13.601,continuous_performance_test,2024.2.4,MacIntel,63.69426752,06742b79-9f63-4952-bf82-d36bd6473f09,6,421.1007,422.8486,,1,,,0,2,2,29,1,X,,,,,,,,,,,
,,,,,R_99itjGCdtRkk6YN,001,2025-09-06_13h52.13.601,continuous_performance_test,2024.2.4,MacIntel,63.69426752,06742b79-9f63-4952-bf82-d36bd6473f09,6,422.8493,424.5484,space,1,0.3946,,0,3,3,0,1,A,space,,,,,,,,,,
,,,,,R_99itjGCdtRkk6YN,001,2025-09-06_13h52.13.601,continuous_performance_test,2024.2.4,MacIntel,63.69426752,06742b79-9f63-4952-bf82-d36bd6473f09,6,424.5491,426.5485,space,1,0.5116,,0,4,4,13,1,N,space,,,,,,,,,,
,,,,,R_99itjGCdtRkk6YN,001,2025-09-06_13h52.13.601,continuous_performance_test,2024.2.4,MacIntel,63.69426752,06742b79-9f63-4952-bf82-d36bd6473f09,6,426.5491,428.2485,space,1,0.445,,0,5,5,5,1,F,space,,,,,,,,,,
,,,,,R_99itjGCdtRkk6YN,001,2025-09-06_13h52.13.601,continuous_performance_test,2024.2.4,MacIntel,63.69426752,06742b79-9f63-4952-bf82-d36bd6473f09,6,428.2493,429.9496,space,0,0.3324,,0,6,6,25,1,X,,,,,,,,,,,
,,,,,R_99itjGCdtRkk6YN,001,2025-09-06_13h52.13.601,continuous_performance_test,2024.2.4,MacIntel,63.69426752,06742b79-9f63-4952-bf82-d36bd6473f09,6,429.9504,431.5489,space,1,0.4317,,0,7,7,3,1,D,space,,,,,,,,,,
,,,,,R_99itjGCdtRkk6YN,001,2025-09-06_13h52.13.601,continuous_performance_test,2024.2.4,MacIntel,63.69426752,06742b79-9f63-4952-bf82-d36bd6473f09,6,431.5495,433.5494,space,1,0.3301,,0,8,8,19,1,T,space,,,,,,,,,,
,,,,,R_99itjGCdtRkk6YN,001,2025-09-06_13h52.13.601,continuous_performance_test,2024.2.4,MacIntel,63.69426752,06742b79-9f63-4952-bf82-d36bd6473f09,6,433.5504,435.1498,space,1,0.5127,,0,9,9,6,1,G,space,,,,,,,,,,
,,,,,R_99itjGCdtRkk6YN,001,2025-09-06_13h52.13.601,continuous_performance_test,2024.2.4,MacIntel,63.69426752,06742b79-9f63-4952-bf82-d36bd6473f09,6,435.1504,437.0486,space,0,0.3488,,0,10,10,27,1,X,,,,,,,,,,,
,,,,,R_99itjGCdtRkk6YN,001,2025-09-06_13h52.13.601,continuous_performance_test,2024.2.4,MacIntel,63.69426752,06742b79-9f63-4952-bf82-d36bd6473f09,6,437.049,438.9981,,1,,,0,11,11,28,1,X,,,,,,,,,,,
,,,,,R_99itjGCdtRkk6YN,001,2025-09-06_13h52.13.601,continuous_performance_test,2024.2.4,MacIntel,63.69426752,06742b79-9f63-4952-bf82-d36bd6473f09,6,438.9988,440.5993,space,1,0.382,,0,12,12,20,1,U,space,,,,,,,,,,
,,,,,R_99itjGCdtRkk6YN,001,2025-09-06_13h52.13.601,continuous_performance_test,2024.2.4,MacIntel,63.69426752,06742b79-9f63-4952-bf82-d36bd6473f09,6,440.6002,442.4491,space,1,0.4816,,0,13,13,15,1,P,space,,,,,,,,,,
,,,,,R_99itjGCdtRkk6YN,001,2025-09-06_13h52.13.601,continuous_performance_test,2024.2.4,MacIntel,63.69426752,06742b79-9f63-4952-bf82-d36bd6473f09,6,442.4498,443.9983,space,1,0.3975,,0,14,14,10,1,K,space,,,,,,,,,,
,,,,,R_99itjGCdtRkk6YN,001,2025-09-06_13h52.13.601,continuous_performance_test,2024.2.4,MacIntel,63.69426752,06742b79-9f63-4952-bf82-d36bd6473f09,6,443.999,445.5486,space,1,0.4295,,0,15,15,4,1,E,space,,,,,,,,,,
,,,,,R_99itjGCdtRkk6YN,001,2025-09-06_13h52.13.601,continuous_performance_test,2024.2.4,MacIntel,63.69426752,06742b79-9f63-4952-bf82-d36bd6473f09,6,445.5492,447.5484,space,1,0.3975,,0,16,16,14,1,O,space,,,,,,,,,,
,,,,,R_99itjGCdtRkk6YN,001,2025-09-06_13h52.13.601,continuous_performance_test,2024.2.4,MacIntel,63.69426752,06742b79-9f63-4952-bf82-d36bd6473f09,6,447.549,449.4486,space,1,0.3314,,0,17,17,7,1,H,space,,,,,,,,,,
,,,,,R_99itjGCdtRkk6YN,001,2025-09-06_13h52.13.601,continuous_performance_test,2024.2.4,MacIntel,63.69426752,06742b79-9f63-4952-bf82-d36bd6473f09,6,449.4493,451.0983,space,1,0.3644,,0,18,18,9,1,J,space,,,,,,,,,,
,,,,,R_99itjGCdtRkk6YN,001,2025-09-06_13h52.13.601,continuous_performance_test,2024.2.4,MacIntel,63.69426752,06742b79-9f63-4952-bf82-d36bd6473f09,6,451.099,453.0493,space,1,0.6132,,0,19,19,17,1,R,space,,,,,,,,,,
,,,,,R_99itjGCdtRkk6YN,001,2025-09-06_13h52.13.601,continuous_performance_test,2024.2.4,MacIntel,63.69426752,06742b79-9f63-4952-bf82-d36bd6473f09,6,453.0501,454.9483,space,1,0.3803,,0,20,20,2,1,C,space,,,,,,,,,,
,,,,,R_99itjGCdtRkk6YN,001,2025-09-06_13h52.13.601,continuous_performance_test,2024.2.4,MacIntel,63.69426752,06742b79-9f63-4952-bf82-d36bd6473f09,6,454.949,456.7489,space,1,0.7306,,0,21,21,1,1,B,space,,,,,,,,,,
,,,,,R_99itjGCdtRkk6YN,001,2025-09-06_13h52.13.601,continuous_performance_test,2024.2.4,MacIntel,63.69426752,06742b79-9f63-4952-bf82-d36bd6473f09,6,456.7496,458.4995,space,1,0.3785,,0,22,22,18,1,S,space,,,,,,,,,,
,,,,,R_99itjGCdtRkk6YN,001,2025-09-06_13h52.13.601,continuous_performance_test,2024.2.4,MacIntel,63.69426752,06742b79-9f63-4952-bf82-d36bd6473f09,6,458.5001,460.1494,space,1,0.3795,,0,23,23,8,1,I,space,,,,,,,,,,
,,,,,R_99itjGCdtRkk6YN,001,2025-09-06_13h52.13.601,continuous_performance_test,2024.2.4,MacIntel,63.69426752,06742b79-9f63-4952-bf82-d36bd6473f09,6,460.1505,462.1492,space,1,0.4441,,0,24,24,21,1,V,space,,,,,,,,,,
,,,,,R_99itjGCdtRkk6YN,001,2025-09-06_13h52.13.601,continuous_performance_test,2024.2.4,MacIntel,63.69426752,06742b79-9f63-4952-bf82-d36bd6473f09,6,462.15,464.0984,space,1,0.4618,,0,25,25,24,1,Z,space,,,,,,,,,,
,,,,,R_99itjGCdtRkk6YN,001,2025-09-06_13h52.13.601,continuous_performance_test,2024.2.4,MacIntel,63.69426752,06742b79-9f63-4952-bf82-d36bd6473f09,6,464.099,466.049,space,1,0.5637,,0,26,26,16,1,Q,space,,,,,,,,,,
,,,,,R_99itjGCdtRkk6YN,001,2025-09-06_13h52.13.601,continuous_performance_test,2024.2.4,MacIntel,63.69426752,06742b79-9f63-4952-bf82-d36bd6473f09,6,466.0497,467.8997,space,1,0.5274,,0,27,27,12,1,M,space,,,,,,,,,,
,,,,,R_99itjGCdtRkk6YN,001,2025-09-06_13h52.13.601,continuous_performance_test,2024.2.4,MacIntel,63.69426752,06742b79-9f63-4952-bf82-d36bd6473f09,6,467.9006,469.5986,space,1,0.4654,,0,28,28,23,1,Y,space,,,,,,,,,,
,,,,,R_99itjGCdtRkk6YN,001,2025-09-06_13h52.13.601,continuous_performance_test,2024.2.4,MacIntel,63.69426752,06742b79-9f63-4952-bf82-d36bd6473f09,6,469.5994,471.3989,space,1,0.5976,,0,29,29,11,1,L,space,,,,,,,,,,
,,,,,R_99itjGCdtRkk6YN,001,2025-09-06_13h52.13.601,continuous_performance_test,2024.2.4,MacIntel,63.69426752,06742b79-9f63-4952-bf82-d36bd6473f09,6,472.1859,473.8834,space,1,0.4819,,0,0,0,24,1,Z,space,471.3996,472.1818,space,0.754,,,,,,
,,,,,R_99itjGCdtRkk6YN,001,2025-09-06_13h52.13.601,continuous_performance_test,2024.2.4,MacIntel,63.69426752,06742b79-9f63-4952-bf82-d36bd6473f09,6,473.8842,475.5318,space,1,0.412,,0,1,1,22,1,W,space,,,,,,,,,,
,,,,,R_99itjGCdtRkk6YN,001,2025-09-06_13h52.13.601,continuous_performance_test,2024.2.4,MacIntel,63.69426752,06742b79-9f63-4952-bf82-d36bd6473f09,6,475.5324,477.1817,,1,,,0,2,2,26,1,X,,,,,,,,,,,
,,,,,R_99itjGCdtRkk6YN,001,2025-09-06_13h52.13.601,continuous_performance_test,2024.2.4,MacIntel,63.69426752,06742b79-9f63-4952-bf82-d36bd6473f09,6,477.1824,479.1828,space,1,0.378,,0,3,3,17,1,R,space,,,,,,,,,,
,,,,,R_99itjGCdtRkk6YN,001,2025-09-06_13h52.13.601,continuous_performance_test,2024.2.4,MacIntel,63.69426752,06742b79-9f63-4952-bf82-d36bd6473f09,6,479.1839,481.0828,,1,,,0,4,4,28,1,X,,,,,,,,,,,
,,,,,R_99itjGCdtRkk6YN,001,2025-09-06_13h52.13.601,continuous_performance_test,2024.2.4,MacIntel,63.69426752,06742b79-9f63-4952-bf82-d36bd6473f09,6,481.0833,482.6822,,1,,,0,5,5,29,1,X,,,,,,,,,,,
,,,,,R_99itjGCdtRkk6YN,001,2025-09-06_13h52.13.601,continuous_performance_test,2024.2.4,MacIntel,63.69426752,06742b79-9f63-4952-bf82-d36bd6473f09,6,482.683,484.6829,space,1,0.5777,,0,6,6,0,1,A,space,,,,,,,,,,
,,,,,R_99itjGCdtRkk6YN,001,2025-09-06_13h52.13.601,continuous_performance_test,2024.2.4,MacIntel,63.69426752,06742b79-9f63-4952-bf82-d36bd6473f09,6,484.6838,486.483,space,1,0.5303,,0,7,7,3,1,D,space,,,,,,,,,,
,,,,,R_99itjGCdtRkk6YN,001,2025-09-06_13h52.13.601,continuous_performance_test,2024.2.4,MacIntel,63.69426752,06742b79-9f63-4952-bf82-d36bd6473f09,6,486.4838,488.2828,space,1,0.5623,,0,8,8,18,1,S,space,,,,,,,,,,
,,,,,R_99itjGCdtRkk6YN,001,2025-09-06_13h52.13.601,continuous_performance_test,2024.2.4,MacIntel,63.69426752,06742b79-9f63-4952-bf82-d36bd6473f09,6,488.2833,490.2824,space,1,0.5291,,0,9,9,19,1,T,space,,,,,,,,,,
,,,,,R_99itjGCdtRkk6YN,001,2025-09-06_13h52.13.601,continuous_performance_test,2024.2.4,MacIntel,63.69426752,06742b79-9f63-4952-bf82-d36bd6473f09,6,490.283,491.9318,space,1,0.5445,,0,10,10,10,1,K,space,,,,,,,,,,
,,,,,R_99itjGCdtRkk6YN,001,2025-09-06_13h52.13.601,continuous_performance_test,2024.2.4,MacIntel,63.69426752,06742b79-9f63-4952-bf82-d36bd6473f09,6,491.9325,493.4829,space,1,0.4657,,0,11,11,15,1,P,space,,,,,,,,,,
,,,,,R_99itjGCdtRkk6YN,001,2025-09-06_13h52.13.601,continuous_performance_test,2024.2.4,MacIntel,63.69426752,06742b79-9f63-4952-bf82-d36bd6473f09,6,493.4839,495.4823,,1,,,0,12,12,25,1,X,,,,,,,,,,,
,,,,,R_99itjGCdtRkk6YN,001,2025-09-06_13h52.13.601,continuous_performance_test,2024.2.4,MacIntel,63.69426752,06742b79-9f63-4952-bf82-d36bd6473f09,6,495.4829,497.0331,space,1,0.5627,,0,13,13,23,1,Y,space,,,,,,,,,,
,,,,,R_99itjGCdtRkk6YN,001,2025-09-06_13h52.13.601,continuous_performance_test,2024.2.4,MacIntel,63.69426752,06742b79-9f63-4952-bf82-d36bd6473f09,6,497.034,498.7324,space,1,0.4626,,0,14,14,9,1,J,space,,,,,,,,,,
,,,,,R_99itjGCdtRkk6YN,001,2025-09-06_13h52.13.601,continuous_performance_test,2024.2.4,MacIntel,63.69426752,06742b79-9f63-4952-bf82-d36bd6473f09,6,498.733,500.482,space,1,0.3977,,0,15,15,4,1,E,space,,,,,,,,,,
,,,,,R_99itjGCdtRkk6YN,001,2025-09-06_13h52.13.601,continuous_performance_test,2024.2.4,MacIntel,63.69426752,06742b79-9f63-4952-bf82-d36bd6473f09,6,500.4827,502.1328,space,1,0.3959,,0,16,16,11,1,L,space,,,,,,,,,,
,,,,,R_99itjGCdtRkk6YN,001,2025-09-06_13h52.13.601,continuous_performance_test,2024.2.4,MacIntel,63.69426752,06742b79-9f63-4952-bf82-d36bd6473f09,6,502.1335,503.7822,space,1,0.3604,,0,17,17,1,1,B,space,,,,,,,,,,
,,,,,R_99itjGCdtRkk6YN,001,2025-09-06_13h52.13.601,continuous_performance_test,2024.2.4,MacIntel,63.69426752,06742b79-9f63-4952-bf82-d36bd6473f09,6,503.7829,505.7818,space,1,0.3613,,0,18,18,13,1,N,space,,,,,,,,,,
,,,,,R_99itjGCdtRkk6YN,001,2025-09-06_13h52.13.601,continuous_performance_test,2024.2.4,MacIntel,63.69426752,06742b79-9f63-4952-bf82-d36bd6473f09,6,505.7824,507.5825,space,1,0.0793,,0,19,19,20,1,U,space,,,,,,,,,,
,,,,,R_99itjGCdtRkk6YN,001,2025-09-06_13h52.13.601,continuous_performance_test,2024.2.4,MacIntel,63.69426752,06742b79-9f63-4952-bf82-d36bd6473f09,6,507.5831,509.1329,,0,,,0,20,20,2,1,C,space,,,,,,,,,,
,,,,,R_99itjGCdtRkk6YN,001,2025-09-06_13h52.13.601,continuous_performance_test,2024.2.4,MacIntel,63.69426752,06742b79-9f63-4952-bf82-d36bd6473f09,6,509.1337,510.9821,space,1,0.513,,0,21,21,6,1,G,space,,,,,,,,,,
,,,,,R_99itjGCdtRkk6YN,001,2025-09-06_13h52.13.601,continuous_performance_test,2024.2.4,MacIntel,63.69426752,06742b79-9f63-4952-bf82-d36bd6473f09,6,510.9826,512.8328,space,1,0.3762,,0,22,22,16,1,Q,space,,,,,,,,,,
,,,,,R_99itjGCdtRkk6YN,001,2025-09-06_13h52.13.601,continuous_performance_test,2024.2.4,MacIntel,63.69426752,06742b79-9f63-4952-bf82-d36bd6473f09,6,512.8336,514.5329,space,1,0.4134,,0,23,23,8,1,I,space,,,,,,,,,,
,,,,,R_99itjGCdtRkk6YN,001,2025-09-06_13h52.13.601,continuous_performance_test,2024.2.4,MacIntel,63.69426752,06742b79-9f63-4952-bf82-d36bd6473f09,6,514.5335,516.0823,space,1,0.5616,,0,24,24,5,1,F,space,,,,,,,,,,
,,,,,R_99itjGCdtRkk6YN,001,2025-09-06_13h52.13.601,continuous_performance_test,2024.2.4,MacIntel,63.69426752,06742b79-9f63-4952-bf82-d36bd6473f09,6,516.083,517.9829,,1,,,0,25,25,27,1,X,,,,,,,,,,,
,,,,,R_99itjGCdtRkk6YN,001,2025-09-06_13h52.13.601,continuous_performance_test,2024.2.4,MacIntel,63.69426752,06742b79-9f63-4952-bf82-d36bd6473f09,6,517.9836,519.9332,space,1,0.5806,,0,26,26,12,1,M,space,,,,,,,,,,
,,,,,R_99itjGCdtRkk6YN,001,2025-09-06_13h52.13.601,continuous_performance_test,2024.2.4,MacIntel,63.69426752,06742b79-9f63-4952-bf82-d36bd6473f09,6,519.9341,521.633,space,1,0.6118,,0,27,27,14,1,O,space,,,,,,,,,,
,,,,,R_99itjGCdtRkk6YN,001,2025-09-06_13h52.13.601,continuous_performance_test,2024.2.4,MacIntel,63.69426752,06742b79-9f63-4952-bf82-d36bd6473f09,6,521.6336,523.533,space,1,0.6125,,0,28,28,21,1,V,space,,,,,,,,,,
,,,,,R_99itjGCdtRkk6YN,001,2025-09-06_13h52.13.601,continuous_performance_test,2024.2.4,MacIntel,63.69426752,06742b79-9f63-4952-bf82-d36bd6473f09,6,523.5336,525.432,space,1,0.5786,,0,29,29,7,1,H,space,,,,,,,,,,
,,,,,R_99itjGCdtRkk6YN,001,2025-09-06_13h52.13.601,continuous_performance_test,2024.2.4,MacIntel,63.69426752,06742b79-9f63-4952-bf82-d36bd6473f09,6,526.5691,528.3654,space,1,0.6463,,0,0,0,13,1,N,space,525.4326,526.5654,space,1.1048,,,,,,
,,,,,R_99itjGCdtRkk6YN,001,2025-09-06_13h52.13.601,continuous_performance_test,2024.2.4,MacIntel,63.69426752,06742b79-9f63-4952-bf82-d36bd6473f09,6,528.366,530.1162,,1,,,0,1,1,29,1,X,,,,,,,,,,,
,,,,,R_99itjGCdtRkk6YN,001,2025-09-06_13h52.13.601,continuous_performance_test,2024.2.4,MacIntel,63.69426752,06742b79-9f63-4952-bf82-d36bd6473f09,6,530.1168,531.8656,,1,,,0,2,2,27,1,X,,,,,,,,,,,
,,,,,R_99itjGCdtRkk6YN,001,2025-09-06_13h52.13.601,continuous_performance_test,2024.2.4,MacIntel,63.69426752,06742b79-9f63-4952-bf82-d36bd6473f09,6,531.8663,533.516,space,1,0.5438,,0,3,3,23,1,Y,space,,,,,,,,,,
,,,,,R_99itjGCdtRkk6YN,001,2025-09-06_13h52.13.601,continuous_performance_test,2024.2.4,MacIntel,63.69426752,06742b79-9f63-4952-bf82-d36bd6473f09,6,533.5167,535.1163,space,1,0.6128,,0,4,4,0,1,A,space,,,,,,,,,,
,,,,,R_99itjGCdtRkk6YN,001,2025-09-06_13h52.13.601,continuous_performance_test,2024.2.4,MacIntel,63.69426752,06742b79-9f63-4952-bf82-d36bd6473f09,6,535.117,536.6657,space,1,0.6257,,0,5,5,15,1,P,space,,,,,,,,,,
,,,,,R_99itjGCdtRkk6YN,001,2025-09-06_13h52.13.601,continuous_performance_test,2024.2.4,MacIntel,63.69426752,06742b79-9f63-4952-bf82-d36bd6473f09,6,536.6662,538.4167,space,1,0.5307,,0,6,6,9,1,J,space,,,,,,,,,,
,,,,,R_99itjGCdtRkk6YN,001,2025-09-06_13h52.13.601,continuous_performance_test,2024.2.4,MacIntel,63.69426752,06742b79-9f63-4952-bf82-d36bd6473f09,6,538.4172,540.2655,space,1,0.5945,,0,7,7,4,1,E,space,,,,,,,,,,
,,,,,R_99itjGCdtRkk6YN,001,2025-09-06_13h52.13.601,continuous_performance_test,2024.2.4,MacIntel,63.69426752,06742b79-9f63-4952-bf82-d36bd6473f09,6,540.2661,542.2158,space,1,0.5475,,0,8,8,11,1,L,space,,,,,,,,,,
,,,,,R_99itjGCdtRkk6YN,001,2025-09-06_13h52.13.601,continuous_performance_test,2024.2.4,MacIntel,63.69426752,06742b79-9f63-4952-bf82-d36bd6473f09,6,542.2164,543.9665,space,1,0.5105,,0,9,9,6,1,G,space,,,,,,,,,,
,,,,,R_99itjGCdtRkk6YN,001,2025-09-06_13h52.13.601,continuous_performance_test,2024.2.4,MacIntel,63.69426752,06742b79-9f63-4952-bf82-d36bd6473f09,6,543.9674,545.5665,,1,,,0,10,10,25,1,X,,,,,,,,,,,
,,,,,R_99itjGCdtRkk6YN,001,2025-09-06_13h52.13.601,continuous_performance_test,2024.2.4,MacIntel,63.69426752,06742b79-9f63-4952-bf82-d36bd6473f09,6,545.5669,547.3156,,1,,,0,11,11,28,1,X,,,,,,,,,,,
,,,,,R_99itjGCdtRkk6YN,001,2025-09-06_13h52.13.601,continuous_performance_test,2024.2.4,MacIntel,63.69426752,06742b79-9f63-4952-bf82-d36bd6473f09,6,547.3162,549.2156,space,1,0.5494,,0,12,12,1,1,B,space,,,,,,,,,,
,,,,,R_99itjGCdtRkk6YN,001,2025-09-06_13h52.13.601,continuous_performance_test,2024.2.4,MacIntel,63.69426752,06742b79-9f63-4952-bf82-d36bd6473f09,6,549.2163,551.1653,space,1,0.5289,,0,13,13,12,1,M,space,,,,,,,,,,
,,,,,R_99itjGCdtRkk6YN,001,2025-09-06_13h52.13.601,continuous_performance_test,2024.2.4,MacIntel,63.69426752,06742b79-9f63-4952-bf82-d36bd6473f09,6,551.1659,552.9659,space,1,0.4341,,0,14,14,5,1,F,space,,,,,,,,,,
,,,,,R_99itjGCdtRkk6YN,001,2025-09-06_13h52.13.601,continuous_performance_test,2024.2.4,MacIntel,63.69426752,06742b79-9f63-4952-bf82-d36bd6473f09,6,552.9664,554.9164,space,1,0.4445,,0,15,15,3,1,D,space,,,,,,,,,,
,,,,,R_99itjGCdtRkk6YN,001,2025-09-06_13h52.13.601,continuous_performance_test,2024.2.4,MacIntel,63.69426752,06742b79-9f63-4952-bf82-d36bd6473f09,6,554.9171,556.5665,space,1,0.48,,0,16,16,18,1,S,space,,,,,,,,,,
,,,,,R_99itjGCdtRkk6YN,001,2025-09-06_13h52.13.601,continuous_performance_test,2024.2.4,MacIntel,63.69426752,06742b79-9f63-4952-bf82-d36bd6473f09,6,556.5671,558.4663,space,1,0.4328,,0,17,17,20,1,U,space,,,,,,,,,,
,,,,,R_99itjGCdtRkk6YN,001,2025-09-06_13h52.13.601,continuous_performance_test,2024.2.4,MacIntel,63.69426752,06742b79-9f63-4952-bf82-d36bd6473f09,6,558.4669,560.4656,space,1,0.4666,,0,18,18,8,1,I,space,,,,,,,,,,
,,,,,R_99itjGCdtRkk6YN,001,2025-09-06_13h52.13.601,continuous_performance_test,2024.2.4,MacIntel,63.69426752,06742b79-9f63-4952-bf82-d36bd6473f09,6,560.4662,562.4165,space,1,0.5303,,0,19,19,2,1,C,space,,,,,,,,,,
,,,,,R_99itjGCdtRkk6YN,001,2025-09-06_13h52.13.601,continuous_performance_test,2024.2.4,MacIntel,63.69426752,06742b79-9f63-4952-bf82-d36bd6473f09,6,562.4171,564.4159,space,1,0.5624,,0,20,20,22,1,W,space,,,,,,,,,,
,,,,,R_99itjGCdtRkk6YN,001,2025-09-06_13h52.13.601,continuous_performance_test,2024.2.4,MacIntel,63.69426752,06742b79-9f63-4952-bf82-d36bd6473f09,6,564.4165,566.4165,space,1,0.4428,,0,21,21,16,1,Q,space,,,,,,,,,,
,,,,,R_99itjGCdtRkk6YN,001,2025-09-06_13h52.13.601,continuous_performance_test,2024.2.4,MacIntel,63.69426752,06742b79-9f63-4952-bf82-d36bd6473f09,6,566.4171,568.0665,space,1,0.5464,,0,22,22,10,1,K,space,,,,,,,,,,
,,,,,R_99itjGCdtRkk6YN,001,2025-09-06_13h52.13.601,continuous_performance_test,2024.2.4,MacIntel,63.69426752,06742b79-9f63-4952-bf82-d36bd6473f09,6,568.0672,569.8157,space,1,0.5162,,0,23,23,24,1,Z,space,,,,,,,,,,
,,,,,R_99itjGCdtRkk6YN,001,2025-09-06_13h52.13.601,continuous_performance_test,2024.2.4,MacIntel,63.69426752,06742b79-9f63-4952-bf82-d36bd6473f09,6,569.8163,571.5664,space,1,0.5959,,0,24,24,7,1,H,space,,,,,,,,,,
,,,,,R_99itjGCdtRkk6YN,001,2025-09-06_13h52.13.601,continuous_performance_test,2024.2.4,MacIntel,63.69426752,06742b79-9f63-4952-bf82-d36bd6473f09,6,571.567,573.1157,space,1,0.6335,,0,25,25,19,1,T,space,,,,,,,,,,
,,,,,R_99itjGCdtRkk6YN,001,2025-09-06_13h52.13.601,continuous_performance_test,2024.2.4,MacIntel,63.69426752,06742b79-9f63-4952-bf82-d36bd6473f09,6,573.1164,575.0661,space,1,0.6299,,0,26,26,17,1,R,space,,,,,,,,,,
,,,,,R_99itjGCdtRkk6YN,001,2025-09-06_13h52.13.601,continuous_performance_test,2024.2.4,MacIntel,63.69426752,06742b79-9f63-4952-bf82-d36bd6473f09,6,575.0668,576.8665,space,1,0.7116,,0,27,27,21,1,V,space,,,,,,,,,,
,,,,,R_99itjGCdtRkk6YN,001,2025-09-06_13h52.13.601,continuous_performance_test,2024.2.4,MacIntel,63.69426752,06742b79-9f63-4952-bf82-d36bd6473f09,6,576.8671,578.5156,,1,,,0,28,28,26,1,X,,,,,,,,,,,
,,,,,R_99itjGCdtRkk6YN,001,2025-09-06_13h52.13.601,continuous_performance_test,2024.2.4,MacIntel,63.69426752,06742b79-9f63-4952-bf82-d36bd6473f09,6,578.5162,580.3164,space,1,0.6098,,0,29,29,14,1,O,space,,,,,,,,,,
,,,,,R_99itjGCdtRkk6YN,001,2025-09-06_13h52.13.601,continuous_performance_test,2024.2.4,MacIntel,63.69426752,06742b79-9f63-4952-bf82-d36bd6473f09,6,,,,,,,,,,,,,,580.3172,580.3176,,,,580.3178,584.5335,space,4.1868,
