Instructions.started,Instructions.stopped,key_resp.keys,key_resp.rt,key_resp.duration,participant,session,date,expName,psychopyVersion,OS,frameRate,realeye-tester-id,realeye-tester-quality_grade,Trial_noX.started,Trial_noX.stopped,response.keys,response.corr,response.rt,response.duration,trials_noX.thisRepN,trials_noX.thisTrialN,trials_noX.thisN,trials_noX.thisIndex,trials_noX.ran,letter,corrAns,BlockBreak.started,BlockBreak.stopped,key_instruct.keys,key_instruct.rt,key_instruct.duration,End_NoX.started,End_NoX.stopped,key_resp_end_noX.keys,key_resp_end_noX.rt,key_resp_end_noX.duration
0.0002,17.2442,space,17.2246,,R_9BzFnSWLmL4Ou7x,001,2025-08-26_13h23.02.218,continuous_performance_test,2024.2.4,Win32,59.52380952,bf9c189c-12fa-4519-b419-387043d89e80,5,,,,,,,,,,,,,,,,,,,,,,,
,,,,,R_9BzFnSWLmL4Ou7x,001,2025-08-26_13h23.02.218,continuous_performance_test,2024.2.4,Win32,59.52380952,bf9c189c-12fa-4519-b419-387043d89e80,5,17.2768,18.9759,space,1,0.4532,,0,0,0,9,1,J,space,,,,,,,,,,
,,,,,R_9BzFnSWLmL4Ou7x,001,2025-08-26_13h23.02.218,continuous_performance_test,2024.2.4,Win32,59.52380952,bf9c189c-12fa-4519-b419-387043d89e80,5,18.9798,20.7246,space,1,0.374,,0,1,1,21,1,V,space,,,,,,,,,,
,,,,,R_9BzFnSWLmL4Ou7x,001,2025-08-26_13h23.02.218,continuous_performance_test,2024.2.4,Win32,59.52380952,bf9c189c-12fa-4519-b419-387043d89e80,5,20.7281,22.2729,space,1,0.358,,0,2,2,20,1,U,space,,,,,,,,,,
,,,,,R_9BzFnSWLmL4Ou7x,001,2025-08-26_13h23.02.218,continuous_performance_test,2024.2.4,Win32,59.52380952,bf9c189c-12fa-4519-b419-387043d89e80,5,22.2762,23.9204,space,1,0.2654,,0,3,3,5,1,F,space,,,,,,,,,,
,,,,,R_9BzFnSWLmL4Ou7x,001,2025-08-26_13h23.02.218,continuous_performance_test,2024.2.4,Win32,59.52380952,bf9c189c-12fa-4519-b419-387043d89e80,5,23.9229,25.7195,space,1,0.2332,,0,4,4,17,1,R,space,,,,,,,,,,
,,,,,R_9BzFnSWLmL4Ou7x,001,2025-08-26_13h23.02.218,continuous_performance_test,2024.2.4,Win32,59.52380952,bf9c189c-12fa-4519-b419-387043d89e80,5,25.722,27.2678,,1,,,0,5,5,26,1,X,,,,,,,,,,,
,,,,,R_9BzFnSWLmL4Ou7x,001,2025-08-26_13h23.02.218,continuous_performance_test,2024.2.4,Win32,59.52380952,bf9c189c-12fa-4519-b419-387043d89e80,5,27.2707,29.1162,space,1,0.3622,,0,6,6,16,1,Q,space,,,,,,,,,,
,,,,,R_9BzFnSWLmL4Ou7x,001,2025-08-26_13h23.02.218,continuous_performance_test,2024.2.4,Win32,59.52380952,bf9c189c-12fa-4519-b419-387043d89e80,5,29.1178,30.7658,space,0,0.2427,,0,7,7,28,1,X,,,,,,,,,,,
,,,,,R_9BzFnSWLmL4Ou7x,001,2025-08-26_13h23.02.218,continuous_performance_test,2024.2.4,Win32,59.52380952,bf9c189c-12fa-4519-b419-387043d89e80,5,30.7689,32.4143,space,1,0.3013,,0,8,8,24,1,Z,space,,,,,,,,,,
,,,,,R_9BzFnSWLmL4Ou7x,001,2025-08-26_13h23.02.218,continuous_performance_test,2024.2.4,Win32,59.52380952,bf9c189c-12fa-4519-b419-387043d89e80,5,32.4178,34.3627,space,1,0.2694,,0,9,9,4,1,E,space,,,,,,,,,,
,,,,,R_9BzFnSWLmL4Ou7x,001,2025-08-26_13h23.02.218,continuous_performance_test,2024.2.4,Win32,59.52380952,bf9c189c-12fa-4519-b419-387043d89e80,5,34.3656,36.1624,space,1,0.2939,,0,10,10,3,1,D,space,,,,,,,,,,
,,,,,R_9BzFnSWLmL4Ou7x,001,2025-08-26_13h23.02.218,continuous_performance_test,2024.2.4,Win32,59.52380952,bf9c189c-12fa-4519-b419-387043d89e80,5,36.1655,38.1094,,1,,,0,11,11,25,1,X,,,,,,,,,,,
,,,,,R_9BzFnSWLmL4Ou7x,001,2025-08-26_13h23.02.218,continuous_performance_test,2024.2.4,Win32,59.52380952,bf9c189c-12fa-4519-b419-387043d89e80,5,38.1132,39.7582,space,1,0.3009,,0,12,12,1,1,B,space,,,,,,,,,,
,,,,,R_9BzFnSWLmL4Ou7x,001,2025-08-26_13h23.02.218,continuous_performance_test,2024.2.4,Win32,59.52380952,bf9c189c-12fa-4519-b419-387043d89e80,5,39.7606,41.606,space,1,0.4053,,0,13,13,10,1,K,space,,,,,,,,,,
,,,,,R_9BzFnSWLmL4Ou7x,001,2025-08-26_13h23.02.218,continuous_performance_test,2024.2.4,Win32,59.52380952,bf9c189c-12fa-4519-b419-387043d89e80,5,41.6081,43.3049,space,1,0.2974,,0,14,14,19,1,T,space,,,,,,,,,,
,,,,,R_9BzFnSWLmL4Ou7x,001,2025-08-26_13h23.02.218,continuous_performance_test,2024.2.4,Win32,59.52380952,bf9c189c-12fa-4519-b419-387043d89e80,5,43.3073,45.1536,space,0,0.2823,,0,15,15,29,1,X,,,,,,,,,,,
,,,,,R_9BzFnSWLmL4Ou7x,001,2025-08-26_13h23.02.218,continuous_performance_test,2024.2.4,Win32,59.52380952,bf9c189c-12fa-4519-b419-387043d89e80,5,45.156,46.7519,space,1,0.4028,,0,16,16,12,1,M,space,,,,,,,,,,
,,,,,R_9BzFnSWLmL4Ou7x,001,2025-08-26_13h23.02.218,continuous_performance_test,2024.2.4,Win32,59.52380952,bf9c189c-12fa-4519-b419-387043d89e80,5,46.7534,48.7416,space,1,0.3462,,0,17,17,8,1,I,space,,,,,,,,,,
,,,,,R_9BzFnSWLmL4Ou7x,001,2025-08-26_13h23.02.218,continuous_performance_test,2024.2.4,Win32,59.52380952,bf9c189c-12fa-4519-b419-387043d89e80,5,48.7441,50.532,space,1,0.2666,,0,18,18,11,1,L,space,,,,,,,,,,
,,,,,R_9BzFnSWLmL4Ou7x,001,2025-08-26_13h23.02.218,continuous_performance_test,2024.2.4,Win32,59.52380952,bf9c189c-12fa-4519-b419-387043d89e80,5,50.5343,52.5307,space,1,0.2359,,0,19,19,23,1,Y,space,,,,,,,,,,
,,,,,R_9BzFnSWLmL4Ou7x,001,2025-08-26_13h23.02.218,continuous_performance_test,2024.2.4,Win32,59.52380952,bf9c189c-12fa-4519-b419-387043d89e80,5,52.535,54.3793,space,1,0.2518,,0,20,20,13,1,N,space,,,,,,,,,,
,,,,,R_9BzFnSWLmL4Ou7x,001,2025-08-26_13h23.02.218,continuous_performance_test,2024.2.4,Win32,59.52380952,bf9c189c-12fa-4519-b419-387043d89e80,5,54.3817,55.9286,space,1,0.2879,,0,21,21,7,1,H,space,,,,,,,,,,
,,,,,R_9BzFnSWLmL4Ou7x,001,2025-08-26_13h23.02.218,continuous_performance_test,2024.2.4,Win32,59.52380952,bf9c189c-12fa-4519-b419-387043d89e80,5,55.9317,57.8257,space,1,0.2679,,0,22,22,2,1,C,space,,,,,,,,,,
,,,,,R_9BzFnSWLmL4Ou7x,001,2025-08-26_13h23.02.218,continuous_performance_test,2024.2.4,Win32,59.52380952,bf9c189c-12fa-4519-b419-387043d89e80,5,57.8273,59.7676,space,1,0.3133,,0,23,23,15,1,P,space,,,,,,,,,,
,,,,,R_9BzFnSWLmL4Ou7x,001,2025-08-26_13h23.02.218,continuous_performance_test,2024.2.4,Win32,59.52380952,bf9c189c-12fa-4519-b419-387043d89e80,5,59.7709,61.4064,space,1,0.3493,,0,24,24,14,1,O,space,,,,,,,,,,
,,,,,R_9BzFnSWLmL4Ou7x,001,2025-08-26_13h23.02.218,continuous_performance_test,2024.2.4,Win32,59.52380952,bf9c189c-12fa-4519-b419-387043d89e80,5,61.4083,63.0545,space,1,0.2992,,0,25,25,18,1,S,space,,,,,,,,,,
,,,,,R_9BzFnSWLmL4Ou7x,001,2025-08-26_13h23.02.218,continuous_performance_test,2024.2.4,Win32,59.52380952,bf9c189c-12fa-4519-b419-387043d89e80,5,63.0558,64.8532,space,1,0.2486,,0,26,26,22,1,W,space,,,,,,,,,,
,,,,,R_9BzFnSWLmL4Ou7x,001,2025-08-26_13h23.02.218,continuous_performance_test,2024.2.4,Win32,59.52380952,bf9c189c-12fa-4519-b419-387043d89e80,5,64.8557,66.5526,space,1,0.2657,,0,27,27,6,1,G,space,,,,,,,,,,
,,,,,R_9BzFnSWLmL4Ou7x,001,2025-08-26_13h23.02.218,continuous_performance_test,2024.2.4,Win32,59.52380952,bf9c189c-12fa-4519-b419-387043d89e80,5,66.5547,68.1505,space,0,0.2567,,0,28,28,27,1,X,,,,,,,,,,,
,,,,,R_9BzFnSWLmL4Ou7x,001,2025-08-26_13h23.02.218,continuous_performance_test,2024.2.4,Win32,59.52380952,bf9c189c-12fa-4519-b419-387043d89e80,5,68.1522,69.8997,space,1,0.2855,,0,29,29,0,1,A,space,,,,,,,,,,
,,,,,R_9BzFnSWLmL4Ou7x,001,2025-08-26_13h23.02.218,continuous_performance_test,2024.2.4,Win32,59.52380952,bf9c189c-12fa-4519-b419-387043d89e80,5,76.5949,78.592,space,1,0.335,,0,0,0,20,1,U,space,69.9006,76.5782,space,6.6405,,,,,,
,,,,,R_9BzFnSWLmL4Ou7x,001,2025-08-26_13h23.02.218,continuous_performance_test,2024.2.4,Win32,59.52380952,bf9c189c-12fa-4519-b419-387043d89e80,5,78.5941,80.3907,space,1,0.2303,,0,1,1,9,1,J,space,,,,,,,,,,
,,,,,R_9BzFnSWLmL4Ou7x,001,2025-08-26_13h23.02.218,continuous_performance_test,2024.2.4,Win32,59.52380952,bf9c189c-12fa-4519-b419-387043d89e80,5,80.3925,82.3894,space,1,0.2383,,0,2,2,8,1,I,space,,,,,,,,,,
,,,,,R_9BzFnSWLmL4Ou7x,001,2025-08-26_13h23.02.218,continuous_performance_test,2024.2.4,Win32,59.52380952,bf9c189c-12fa-4519-b419-387043d89e80,5,82.3907,84.3378,space,0,0.2473,,0,3,3,28,1,X,,,,,,,,,,,
,,,,,R_9BzFnSWLmL4Ou7x,001,2025-08-26_13h23.02.218,continuous_performance_test,2024.2.4,Win32,59.52380952,bf9c189c-12fa-4519-b419-387043d89e80,5,84.3392,86.0365,space,0,0.3518,,0,4,4,26,1,X,,,,,,,,,,,
,,,,,R_9BzFnSWLmL4Ou7x,001,2025-08-26_13h23.02.218,continuous_performance_test,2024.2.4,Win32,59.52380952,bf9c189c-12fa-4519-b419-387043d89e80,5,86.0394,87.9346,space,1,0.3515,,0,5,5,22,1,W,space,,,,,,,,,,
,,,,,R_9BzFnSWLmL4Ou7x,001,2025-08-26_13h23.02.218,continuous_performance_test,2024.2.4,Win32,59.52380952,bf9c189c-12fa-4519-b419-387043d89e80,5,87.9368,89.9334,space,1,0.2655,,0,6,6,1,1,B,space,,,,,,,,,,
,,,,,R_9BzFnSWLmL4Ou7x,001,2025-08-26_13h23.02.218,continuous_performance_test,2024.2.4,Win32,59.52380952,bf9c189c-12fa-4519-b419-387043d89e80,5,89.9349,91.6818,space,1,0.2552,,0,7,7,23,1,Y,space,,,,,,,,,,
,,,,,R_9BzFnSWLmL4Ou7x,001,2025-08-26_13h23.02.218,continuous_performance_test,2024.2.4,Win32,59.52380952,bf9c189c-12fa-4519-b419-387043d89e80,5,91.6843,93.6799,space,1,0.2211,,0,8,8,21,1,V,space,,,,,,,,,,
,,,,,R_9BzFnSWLmL4Ou7x,001,2025-08-26_13h23.02.218,continuous_performance_test,2024.2.4,Win32,59.52380952,bf9c189c-12fa-4519-b419-387043d89e80,5,93.682,95.4282,space,1,0.3029,,0,9,9,7,1,H,space,,,,,,,,,,
,,,,,R_9BzFnSWLmL4Ou7x,001,2025-08-26_13h23.02.218,continuous_performance_test,2024.2.4,Win32,59.52380952,bf9c189c-12fa-4519-b419-387043d89e80,5,95.4301,97.1771,space,1,0.0009,,0,10,10,2,1,C,space,,,,,,,,,,
,,,,,R_9BzFnSWLmL4Ou7x,001,2025-08-26_13h23.02.218,continuous_performance_test,2024.2.4,Win32,59.52380952,bf9c189c-12fa-4519-b419-387043d89e80,5,97.1786,99.1252,space,1,0.0179,,0,11,11,15,1,P,space,,,,,,,,,,
,,,,,R_9BzFnSWLmL4Ou7x,001,2025-08-26_13h23.02.218,continuous_performance_test,2024.2.4,Win32,59.52380952,bf9c189c-12fa-4519-b419-387043d89e80,5,99.1263,100.7244,space,1,0.2474,,0,12,12,12,1,M,space,,,,,,,,,,
,,,,,R_9BzFnSWLmL4Ou7x,001,2025-08-26_13h23.02.218,continuous_performance_test,2024.2.4,Win32,59.52380952,bf9c189c-12fa-4519-b419-387043d89e80,5,100.7273,102.3229,space,1,0.2839,,0,13,13,3,1,D,space,,,,,,,,,,
,,,,,R_9BzFnSWLmL4Ou7x,001,2025-08-26_13h23.02.218,continuous_performance_test,2024.2.4,Win32,59.52380952,bf9c189c-12fa-4519-b419-387043d89e80,5,102.3247,104.3213,space,1,0.2363,,0,14,14,13,1,N,space,,,,,,,,,,
,,,,,R_9BzFnSWLmL4Ou7x,001,2025-08-26_13h23.02.218,continuous_performance_test,2024.2.4,Win32,59.52380952,bf9c189c-12fa-4519-b419-387043d89e80,5,104.3227,106.1274,space,1,0.2494,,0,15,15,19,1,T,space,,,,,,,,,,
,,,,,R_9BzFnSWLmL4Ou7x,001,2025-08-26_13h23.02.218,continuous_performance_test,2024.2.4,Win32,59.52380952,bf9c189c-12fa-4519-b419-387043d89e80,5,106.1297,107.6688,space,1,0.3239,,0,16,16,10,1,K,space,,,,,,,,,,
,,,,,R_9BzFnSWLmL4Ou7x,001,2025-08-26_13h23.02.218,continuous_performance_test,2024.2.4,Win32,59.52380952,bf9c189c-12fa-4519-b419-387043d89e80,5,107.6713,109.367,space,1,0.2653,,0,17,17,11,1,L,space,,,,,,,,,,
,,,,,R_9BzFnSWLmL4Ou7x,001,2025-08-26_13h23.02.218,continuous_performance_test,2024.2.4,Win32,59.52380952,bf9c189c-12fa-4519-b419-387043d89e80,5,109.369,111.1158,space,0,0.2504,,0,18,18,27,1,X,,,,,,,,,,,
,,,,,R_9BzFnSWLmL4Ou7x,001,2025-08-26_13h23.02.218,continuous_performance_test,2024.2.4,Win32,59.52380952,bf9c189c-12fa-4519-b419-387043d89e80,5,111.118,112.9641,space,1,0.2306,,0,19,19,0,1,A,space,,,,,,,,,,
,,,,,R_9BzFnSWLmL4Ou7x,001,2025-08-26_13h23.02.218,continuous_performance_test,2024.2.4,Win32,59.52380952,bf9c189c-12fa-4519-b419-387043d89e80,5,112.9662,114.9124,space,1,0.301,,0,20,20,18,1,S,space,,,,,,,,,,
,,,,,R_9BzFnSWLmL4Ou7x,001,2025-08-26_13h23.02.218,continuous_performance_test,2024.2.4,Win32,59.52380952,bf9c189c-12fa-4519-b419-387043d89e80,5,114.9144,116.5116,space,1,0.3803,,0,21,21,6,1,G,space,,,,,,,,,,
,,,,,R_9BzFnSWLmL4Ou7x,001,2025-08-26_13h23.02.218,continuous_performance_test,2024.2.4,Win32,59.52380952,bf9c189c-12fa-4519-b419-387043d89e80,5,116.5132,118.3601,space,1,0.2839,,0,22,22,16,1,Q,space,,,,,,,,,,
,,,,,R_9BzFnSWLmL4Ou7x,001,2025-08-26_13h23.02.218,continuous_performance_test,2024.2.4,Win32,59.52380952,bf9c189c-12fa-4519-b419-387043d89e80,5,118.3625,120.3576,space,0,0.151,,0,23,23,29,1,X,,,,,,,,,,,
,,,,,R_9BzFnSWLmL4Ou7x,001,2025-08-26_13h23.02.218,continuous_performance_test,2024.2.4,Win32,59.52380952,bf9c189c-12fa-4519-b419-387043d89e80,5,120.3589,122.2065,space,1,0.397,,0,24,24,5,1,F,space,,,,,,,,,,
,,,,,R_9BzFnSWLmL4Ou7x,001,2025-08-26_13h23.02.218,continuous_performance_test,2024.2.4,Win32,59.52380952,bf9c189c-12fa-4519-b419-387043d89e80,5,122.2081,123.9055,space,1,0.3142,,0,25,25,17,1,R,space,,,,,,,,,,
,,,,,R_9BzFnSWLmL4Ou7x,001,2025-08-26_13h23.02.218,continuous_performance_test,2024.2.4,Win32,59.52380952,bf9c189c-12fa-4519-b419-387043d89e80,5,123.9075,125.8532,space,1,0.2539,,0,26,26,4,1,E,space,,,,,,,,,,
,,,,,R_9BzFnSWLmL4Ou7x,001,2025-08-26_13h23.02.218,continuous_performance_test,2024.2.4,Win32,59.52380952,bf9c189c-12fa-4519-b419-387043d89e80,5,125.8542,127.4523,space,1,0.3167,,0,27,27,14,1,O,space,,,,,,,,,,
,,,,,R_9BzFnSWLmL4Ou7x,001,2025-08-26_13h23.02.218,continuous_performance_test,2024.2.4,Win32,59.52380952,bf9c189c-12fa-4519-b419-387043d89e80,5,127.4546,129.3511,space,0,0.1832,,0,28,28,25,1,X,,,,,,,,,,,
,,,,,R_9BzFnSWLmL4Ou7x,001,2025-08-26_13h23.02.218,continuous_performance_test,2024.2.4,Win32,59.52380952,bf9c189c-12fa-4519-b419-387043d89e80,5,129.3532,131.249,space,1,0.2579,,0,29,29,24,1,Z,space,,,,,,,,,,
,,,,,R_9BzFnSWLmL4Ou7x,001,2025-08-26_13h23.02.218,continuous_performance_test,2024.2.4,Win32,59.52380952,bf9c189c-12fa-4519-b419-387043d89e80,5,132.3231,133.9639,,0,,,0,0,0,8,1,I,space,131.2499,132.3147,space,1.0279,,,,,,
,,,,,R_9BzFnSWLmL4Ou7x,001,2025-08-26_13h23.02.218,continuous_performance_test,2024.2.4,Win32,59.52380952,bf9c189c-12fa-4519-b419-387043d89e80,5,133.9676,135.9626,space,1,0.3837,,0,1,1,24,1,Z,space,,,,,,,,,,
,,,,,R_9BzFnSWLmL4Ou7x,001,2025-08-26_13h23.02.218,continuous_performance_test,2024.2.4,Win32,59.52380952,bf9c189c-12fa-4519-b419-387043d89e80,5,135.9648,137.753,space,1,0.3817,,0,2,2,12,1,M,space,,,,,,,,,,
,,,,,R_9BzFnSWLmL4Ou7x,001,2025-08-26_13h23.02.218,continuous_performance_test,2024.2.4,Win32,59.52380952,bf9c189c-12fa-4519-b419-387043d89e80,5,137.7553,139.3927,space,1,0.3368,,0,3,3,18,1,S,space,,,,,,,,,,
,,,,,R_9BzFnSWLmL4Ou7x,001,2025-08-26_13h23.02.218,continuous_performance_test,2024.2.4,Win32,59.52380952,bf9c189c-12fa-4519-b419-387043d89e80,5,139.3949,140.9913,space,1,0.2205,,0,4,4,22,1,W,space,,,,,,,,,,
,,,,,R_9BzFnSWLmL4Ou7x,001,2025-08-26_13h23.02.218,continuous_performance_test,2024.2.4,Win32,59.52380952,bf9c189c-12fa-4519-b419-387043d89e80,5,140.9934,142.5896,space,1,0.268,,0,5,5,16,1,Q,space,,,,,,,,,,
,,,,,R_9BzFnSWLmL4Ou7x,001,2025-08-26_13h23.02.218,continuous_performance_test,2024.2.4,Win32,59.52380952,bf9c189c-12fa-4519-b419-387043d89e80,5,142.5914,144.5384,space,0,0.2078,,0,6,6,26,1,X,,,,,,,,,,,
,,,,,R_9BzFnSWLmL4Ou7x,001,2025-08-26_13h23.02.218,continuous_performance_test,2024.2.4,Win32,59.52380952,bf9c189c-12fa-4519-b419-387043d89e80,5,144.5404,146.3864,space,1,0.47,,0,7,7,10,1,K,space,,,,,,,,,,
,,,,,R_9BzFnSWLmL4Ou7x,001,2025-08-26_13h23.02.218,continuous_performance_test,2024.2.4,Win32,59.52380952,bf9c189c-12fa-4519-b419-387043d89e80,5,146.3884,148.285,space,1,0.3341,,0,8,8,19,1,T,space,,,,,,,,,,
,,,,,R_9BzFnSWLmL4Ou7x,001,2025-08-26_13h23.02.218,continuous_performance_test,2024.2.4,Win32,59.52380952,bf9c189c-12fa-4519-b419-387043d89e80,5,148.2866,150.1338,space,1,0.2642,,0,9,9,9,1,J,space,,,,,,,,,,
,,,,,R_9BzFnSWLmL4Ou7x,001,2025-08-26_13h23.02.218,continuous_performance_test,2024.2.4,Win32,59.52380952,bf9c189c-12fa-4519-b419-387043d89e80,5,150.1362,151.7322,space,1,0.2968,,0,10,10,11,1,L,space,,,,,,,,,,
,,,,,R_9BzFnSWLmL4Ou7x,001,2025-08-26_13h23.02.218,continuous_performance_test,2024.2.4,Win32,59.52380952,bf9c189c-12fa-4519-b419-387043d89e80,5,151.7336,153.4812,space,1,0.2474,,0,11,11,7,1,H,space,,,,,,,,,,
,,,,,R_9BzFnSWLmL4Ou7x,001,2025-08-26_13h23.02.218,continuous_performance_test,2024.2.4,Win32,59.52380952,bf9c189c-12fa-4519-b419-387043d89e80,5,153.4832,155.33,space,1,0.2811,,0,12,12,4,1,E,space,,,,,,,,,,
,,,,,R_9BzFnSWLmL4Ou7x,001,2025-08-26_13h23.02.218,continuous_performance_test,2024.2.4,Win32,59.52380952,bf9c189c-12fa-4519-b419-387043d89e80,5,155.3333,157.0778,space,0,0.2899,,0,13,13,27,1,X,,,,,,,,,,,
,,,,,R_9BzFnSWLmL4Ou7x,001,2025-08-26_13h23.02.218,continuous_performance_test,2024.2.4,Win32,59.52380952,bf9c189c-12fa-4519-b419-387043d89e80,5,157.0805,158.9765,space,1,0.2327,,0,14,14,6,1,G,space,,,,,,,,,,
,,,,,R_9BzFnSWLmL4Ou7x,001,2025-08-26_13h23.02.218,continuous_performance_test,2024.2.4,Win32,59.52380952,bf9c189c-12fa-4519-b419-387043d89e80,5,158.9784,160.925,space,0,0.2416,,0,15,15,29,1,X,,,,,,,,,,,
,,,,,R_9BzFnSWLmL4Ou7x,001,2025-08-26_13h23.02.218,continuous_performance_test,2024.2.4,Win32,59.52380952,bf9c189c-12fa-4519-b419-387043d89e80,5,160.9276,162.7732,space,1,0.2336,,0,16,16,15,1,P,space,,,,,,,,,,
,,,,,R_9BzFnSWLmL4Ou7x,001,2025-08-26_13h23.02.218,continuous_performance_test,2024.2.4,Win32,59.52380952,bf9c189c-12fa-4519-b419-387043d89e80,5,162.7754,164.5218,space,1,0.2579,,0,17,17,17,1,R,space,,,,,,,,,,
,,,,,R_9BzFnSWLmL4Ou7x,001,2025-08-26_13h23.02.218,continuous_performance_test,2024.2.4,Win32,59.52380952,bf9c189c-12fa-4519-b419-387043d89e80,5,164.5236,166.52,space,1,0.3022,,0,18,18,20,1,U,space,,,,,,,,,,
,,,,,R_9BzFnSWLmL4Ou7x,001,2025-08-26_13h23.02.218,continuous_performance_test,2024.2.4,Win32,59.52380952,bf9c189c-12fa-4519-b419-387043d89e80,5,166.5214,168.1689,space,1,0.3148,,0,19,19,5,1,F,space,,,,,,,,,,
,,,,,R_9BzFnSWLmL4Ou7x,001,2025-08-26_13h23.02.218,continuous_performance_test,2024.2.4,Win32,59.52380952,bf9c189c-12fa-4519-b419-387043d89e80,5,168.171,169.7176,space,1,0.3332,,0,20,20,21,1,V,space,,,,,,,,,,
,,,,,R_9BzFnSWLmL4Ou7x,001,2025-08-26_13h23.02.218,continuous_performance_test,2024.2.4,Win32,59.52380952,bf9c189c-12fa-4519-b419-387043d89e80,5,169.7199,171.3661,,1,,,0,21,21,25,1,X,,,,,,,,,,,
,,,,,R_9BzFnSWLmL4Ou7x,001,2025-08-26_13h23.02.218,continuous_performance_test,2024.2.4,Win32,59.52380952,bf9c189c-12fa-4519-b419-387043d89e80,5,171.3677,172.9146,space,0,0.2684,,0,22,22,28,1,X,,,,,,,,,,,
,,,,,R_9BzFnSWLmL4Ou7x,001,2025-08-26_13h23.02.218,continuous_performance_test,2024.2.4,Win32,59.52380952,bf9c189c-12fa-4519-b419-387043d89e80,5,172.9167,174.9137,space,1,0.4211,,0,23,23,2,1,C,space,,,,,,,,,,
,,,,,R_9BzFnSWLmL4Ou7x,001,2025-08-26_13h23.02.218,continuous_performance_test,2024.2.4,Win32,59.52380952,bf9c189c-12fa-4519-b419-387043d89e80,5,174.9162,176.4617,space,1,0.5824,,0,24,24,13,1,N,space,,,,,,,,,,
,,,,,R_9BzFnSWLmL4Ou7x,001,2025-08-26_13h23.02.218,continuous_performance_test,2024.2.4,Win32,59.52380952,bf9c189c-12fa-4519-b419-387043d89e80,5,176.4628,178.1607,space,1,0.3896,,0,25,25,3,1,D,space,,,,,,,,,,
,,,,,R_9BzFnSWLmL4Ou7x,001,2025-08-26_13h23.02.218,continuous_performance_test,2024.2.4,Win32,59.52380952,bf9c189c-12fa-4519-b419-387043d89e80,5,178.1637,180.1587,space,1,0.2348,,0,26,26,0,1,A,space,,,,,,,,,,
,,,,,R_9BzFnSWLmL4Ou7x,001,2025-08-26_13h23.02.218,continuous_performance_test,2024.2.4,Win32,59.52380952,bf9c189c-12fa-4519-b419-387043d89e80,5,180.1614,182.1573,space,1,0.2668,,0,27,27,14,1,O,space,,,,,,,,,,
,,,,,R_9BzFnSWLmL4Ou7x,001,2025-08-26_13h23.02.218,continuous_performance_test,2024.2.4,Win32,59.52380952,bf9c189c-12fa-4519-b419-387043d89e80,5,182.1585,183.806,space,1,0.3243,,0,28,28,1,1,B,space,,,,,,,,,,
,,,,,R_9BzFnSWLmL4Ou7x,001,2025-08-26_13h23.02.218,continuous_performance_test,2024.2.4,Win32,59.52380952,bf9c189c-12fa-4519-b419-387043d89e80,5,183.8078,185.5544,space,1,0.3186,,0,29,29,23,1,Y,space,,,,,,,,,,
,,,,,R_9BzFnSWLmL4Ou7x,001,2025-08-26_13h23.02.218,continuous_performance_test,2024.2.4,Win32,59.52380952,bf9c189c-12fa-4519-b419-387043d89e80,5,186.6535,188.302,space,1,0.3835,,0,0,0,0,1,A,space,185.5562,186.6367,space,1.0509,,,,,,
,,,,,R_9BzFnSWLmL4Ou7x,001,2025-08-26_13h23.02.218,continuous_performance_test,2024.2.4,Win32,59.52380952,bf9c189c-12fa-4519-b419-387043d89e80,5,188.3032,189.8509,space,1,0.3699,,0,1,1,7,1,H,space,,,,,,,,,,
,,,,,R_9BzFnSWLmL4Ou7x,001,2025-08-26_13h23.02.218,continuous_performance_test,2024.2.4,Win32,59.52380952,bf9c189c-12fa-4519-b419-387043d89e80,5,189.8526,191.3994,space,1,0.295,,0,2,2,24,1,Z,space,,,,,,,,,,
,,,,,R_9BzFnSWLmL4Ou7x,001,2025-08-26_13h23.02.218,continuous_performance_test,2024.2.4,Win32,59.52380952,bf9c189c-12fa-4519-b419-387043d89e80,5,191.4009,193.2482,space,1,0.2665,,0,3,3,20,1,U,space,,,,,,,,,,
,,,,,R_9BzFnSWLmL4Ou7x,001,2025-08-26_13h23.02.218,continuous_performance_test,2024.2.4,Win32,59.52380952,bf9c189c-12fa-4519-b419-387043d89e80,5,193.2494,195.1965,,1,,,0,4,4,26,1,X,,,,,,,,,,,
,,,,,R_9BzFnSWLmL4Ou7x,001,2025-08-26_13h23.02.218,continuous_performance_test,2024.2.4,Win32,59.52380952,bf9c189c-12fa-4519-b419-387043d89e80,5,195.1986,196.9868,space,1,0.2997,,0,5,5,19,1,T,space,,,,,,,,,,
,,,,,R_9BzFnSWLmL4Ou7x,001,2025-08-26_13h23.02.218,continuous_performance_test,2024.2.4,Win32,59.52380952,bf9c189c-12fa-4519-b419-387043d89e80,5,196.9895,198.6263,space,1,0.3804,,0,6,6,14,1,O,space,,,,,,,,,,
,,,,,R_9BzFnSWLmL4Ou7x,001,2025-08-26_13h23.02.218,continuous_performance_test,2024.2.4,Win32,59.52380952,bf9c189c-12fa-4519-b419-387043d89e80,5,198.6271,200.226,space,1,0.3004,,0,7,7,17,1,R,space,,,,,,,,,,
,,,,,R_9BzFnSWLmL4Ou7x,001,2025-08-26_13h23.02.218,continuous_performance_test,2024.2.4,Win32,59.52380952,bf9c189c-12fa-4519-b419-387043d89e80,5,200.2275,201.8245,space,0,0.2508,,0,8,8,28,1,X,,,,,,,,,,,
,,,,,R_9BzFnSWLmL4Ou7x,001,2025-08-26_13h23.02.218,continuous_performance_test,2024.2.4,Win32,59.52380952,bf9c189c-12fa-4519-b419-387043d89e80,5,201.8262,203.673,space,1,0.3015,,0,9,9,12,1,M,space,,,,,,,,,,
,,,,,R_9BzFnSWLmL4Ou7x,001,2025-08-26_13h23.02.218,continuous_performance_test,2024.2.4,Win32,59.52380952,bf9c189c-12fa-4519-b419-387043d89e80,5,203.6748,205.372,space,1,0.5976,,0,10,10,22,1,W,space,,,,,,,,,,
,,,,,R_9BzFnSWLmL4Ou7x,001,2025-08-26_13h23.02.218,continuous_performance_test,2024.2.4,Win32,59.52380952,bf9c189c-12fa-4519-b419-387043d89e80,5,205.3735,207.0205,,1,,,0,11,11,29,1,X,,,,,,,,,,,
,,,,,R_9BzFnSWLmL4Ou7x,001,2025-08-26_13h23.02.218,continuous_performance_test,2024.2.4,Win32,59.52380952,bf9c189c-12fa-4519-b419-387043d89e80,5,207.0221,208.8687,space,1,0.3869,,0,12,12,10,1,K,space,,,,,,,,,,
,,,,,R_9BzFnSWLmL4Ou7x,001,2025-08-26_13h23.02.218,continuous_performance_test,2024.2.4,Win32,59.52380952,bf9c189c-12fa-4519-b419-387043d89e80,5,208.8711,210.8173,space,1,0.267,,0,13,13,2,1,C,space,,,,,,,,,,
,,,,,R_9BzFnSWLmL4Ou7x,001,2025-08-26_13h23.02.218,continuous_performance_test,2024.2.4,Win32,59.52380952,bf9c189c-12fa-4519-b419-387043d89e80,5,210.8188,212.366,space,1,0.2839,,0,14,14,15,1,P,space,,,,,,,,,,
,,,,,R_9BzFnSWLmL4Ou7x,001,2025-08-26_13h23.02.218,continuous_performance_test,2024.2.4,Win32,59.52380952,bf9c189c-12fa-4519-b419-387043d89e80,5,212.3682,214.0141,space,1,0.1394,,0,15,15,1,1,B,space,,,,,,,,,,
,,,,,R_9BzFnSWLmL4Ou7x,001,2025-08-26_13h23.02.218,continuous_performance_test,2024.2.4,Win32,59.52380952,bf9c189c-12fa-4519-b419-387043d89e80,5,214.0153,215.5631,space,1,0.0555,,0,16,16,21,1,V,space,,,,,,,,,,
,,,,,R_9BzFnSWLmL4Ou7x,001,2025-08-26_13h23.02.218,continuous_performance_test,2024.2.4,Win32,59.52380952,bf9c189c-12fa-4519-b419-387043d89e80,5,215.5643,217.3616,,0,,,0,17,17,11,1,L,space,,,,,,,,,,
,,,,,R_9BzFnSWLmL4Ou7x,001,2025-08-26_13h23.02.218,continuous_performance_test,2024.2.4,Win32,59.52380952,bf9c189c-12fa-4519-b419-387043d89e80,5,217.3626,219.06,space,1,0.4707,,0,18,18,23,1,Y,space,,,,,,,,,,
,,,,,R_9BzFnSWLmL4Ou7x,001,2025-08-26_13h23.02.218,continuous_performance_test,2024.2.4,Win32,59.52380952,bf9c189c-12fa-4519-b419-387043d89e80,5,219.0614,220.8089,space,1,0.3149,,0,19,19,13,1,N,space,,,,,,,,,,
,,,,,R_9BzFnSWLmL4Ou7x,001,2025-08-26_13h23.02.218,continuous_performance_test,2024.2.4,Win32,59.52380952,bf9c189c-12fa-4519-b419-387043d89e80,5,220.8108,222.7075,,0,,,0,20,20,4,1,E,space,,,,,,,,,,
,,,,,R_9BzFnSWLmL4Ou7x,001,2025-08-26_13h23.02.218,continuous_performance_test,2024.2.4,Win32,59.52380952,bf9c189c-12fa-4519-b419-387043d89e80,5,222.7091,224.6557,space,1,0.2514,,0,21,21,5,1,F,space,,,,,,,,,,
,,,,,R_9BzFnSWLmL4Ou7x,001,2025-08-26_13h23.02.218,continuous_performance_test,2024.2.4,Win32,59.52380952,bf9c189c-12fa-4519-b419-387043d89e80,5,224.6574,226.4045,space,1,0.2505,,0,22,22,9,1,J,space,,,,,,,,,,
,,,,,R_9BzFnSWLmL4Ou7x,001,2025-08-26_13h23.02.218,continuous_performance_test,2024.2.4,Win32,59.52380952,bf9c189c-12fa-4519-b419-387043d89e80,5,226.4066,228.3528,space,0,0.2362,,0,23,23,27,1,X,,,,,,,,,,,
,,,,,R_9BzFnSWLmL4Ou7x,001,2025-08-26_13h23.02.218,continuous_performance_test,2024.2.4,Win32,59.52380952,bf9c189c-12fa-4519-b419-387043d89e80,5,228.3554,230.1013,space,1,0.4622,,0,24,24,8,1,I,space,,,,,,,,,,
,,,,,R_9BzFnSWLmL4Ou7x,001,2025-08-26_13h23.02.218,continuous_performance_test,2024.2.4,Win32,59.52380952,bf9c189c-12fa-4519-b419-387043d89e80,5,230.1043,231.6495,space,1,0.3052,,0,25,25,3,1,D,space,,,,,,,,,,
,,,,,R_9BzFnSWLmL4Ou7x,001,2025-08-26_13h23.02.218,continuous_performance_test,2024.2.4,Win32,59.52380952,bf9c189c-12fa-4519-b419-387043d89e80,5,231.6508,233.249,space,1,0.2468,,0,26,26,18,1,S,space,,,,,,,,,,
,,,,,R_9BzFnSWLmL4Ou7x,001,2025-08-26_13h23.02.218,continuous_performance_test,2024.2.4,Win32,59.52380952,bf9c189c-12fa-4519-b419-387043d89e80,5,233.2506,234.9972,,0,,,0,27,27,6,1,G,space,,,,,,,,,,
,,,,,R_9BzFnSWLmL4Ou7x,001,2025-08-26_13h23.02.218,continuous_performance_test,2024.2.4,Win32,59.52380952,bf9c189c-12fa-4519-b419-387043d89e80,5,234.9988,236.6957,space,1,0.2504,,0,28,28,16,1,Q,space,,,,,,,,,,
,,,,,R_9BzFnSWLmL4Ou7x,001,2025-08-26_13h23.02.218,continuous_performance_test,2024.2.4,Win32,59.52380952,bf9c189c-12fa-4519-b419-387043d89e80,5,236.6968,238.2448,space,0,0.3,,0,29,29,25,1,X,,,,,,,,,,,
,,,,,R_9BzFnSWLmL4Ou7x,001,2025-08-26_13h23.02.218,continuous_performance_test,2024.2.4,Win32,59.52380952,bf9c189c-12fa-4519-b419-387043d89e80,5,239.0517,240.7423,space,1,0.2999,,0,0,0,4,1,E,space,238.2466,239.0444,space,0.7625,,,,,,
,,,,,R_9BzFnSWLmL4Ou7x,001,2025-08-26_13h23.02.218,continuous_performance_test,2024.2.4,Win32,59.52380952,bf9c189c-12fa-4519-b419-387043d89e80,5,240.744,242.3337,space,1,0.3136,,0,1,1,20,1,U,space,,,,,,,,,,
,,,,,R_9BzFnSWLmL4Ou7x,001,2025-08-26_13h23.02.218,continuous_performance_test,2024.2.4,Win32,59.52380952,bf9c189c-12fa-4519-b419-387043d89e80,5,242.3357,244.0834,space,0,0.3328,,0,2,2,29,1,X,,,,,,,,,,,
,,,,,R_9BzFnSWLmL4Ou7x,001,2025-08-26_13h23.02.218,continuous_performance_test,2024.2.4,Win32,59.52380952,bf9c189c-12fa-4519-b419-387043d89e80,5,244.0852,245.6303,space,1,0.2826,,0,3,3,23,1,Y,space,,,,,,,,,,
,,,,,R_9BzFnSWLmL4Ou7x,001,2025-08-26_13h23.02.218,continuous_performance_test,2024.2.4,Win32,59.52380952,bf9c189c-12fa-4519-b419-387043d89e80,5,245.6326,247.2204,space,1,0.2165,,0,4,4,15,1,P,space,,,,,,,,,,
,,,,,R_9BzFnSWLmL4Ou7x,001,2025-08-26_13h23.02.218,continuous_performance_test,2024.2.4,Win32,59.52380952,bf9c189c-12fa-4519-b419-387043d89e80,5,247.2227,249.0191,space,1,0.2806,,0,5,5,11,1,L,space,,,,,,,,,,
,,,,,R_9BzFnSWLmL4Ou7x,001,2025-08-26_13h23.02.218,continuous_performance_test,2024.2.4,Win32,59.52380952,bf9c189c-12fa-4519-b419-387043d89e80,5,249.0214,251.0169,space,0,0.2497,,0,6,6,27,1,X,,,,,,,,,,,
,,,,,R_9BzFnSWLmL4Ou7x,001,2025-08-26_13h23.02.218,continuous_performance_test,2024.2.4,Win32,59.52380952,bf9c189c-12fa-4519-b419-387043d89e80,5,251.018,252.7661,space,1,0.2833,,0,7,7,0,1,A,space,,,,,,,,,,
,,,,,R_9BzFnSWLmL4Ou7x,001,2025-08-26_13h23.02.218,continuous_performance_test,2024.2.4,Win32,59.52380952,bf9c189c-12fa-4519-b419-387043d89e80,5,252.7673,254.7643,,0,,,0,8,8,6,1,G,space,,,,,,,,,,
,,,,,R_9BzFnSWLmL4Ou7x,001,2025-08-26_13h23.02.218,continuous_performance_test,2024.2.4,Win32,59.52380952,bf9c189c-12fa-4519-b419-387043d89e80,5,254.7659,256.7628,space,1,0.3221,,0,9,9,16,1,Q,space,,,,,,,,,,
,,,,,R_9BzFnSWLmL4Ou7x,001,2025-08-26_13h23.02.218,continuous_performance_test,2024.2.4,Win32,59.52380952,bf9c189c-12fa-4519-b419-387043d89e80,5,256.765,258.6699,space,1,0.2372,,0,10,10,9,1,J,space,,,,,,,,,,
,,,,,R_9BzFnSWLmL4Ou7x,001,2025-08-26_13h23.02.218,continuous_performance_test,2024.2.4,Win32,59.52380952,bf9c189c-12fa-4519-b419-387043d89e80,5,258.6719,260.4092,space,1,0.303,,0,11,11,17,1,R,space,,,,,,,,,,
,,,,,R_9BzFnSWLmL4Ou7x,001,2025-08-26_13h23.02.218,continuous_performance_test,2024.2.4,Win32,59.52380952,bf9c189c-12fa-4519-b419-387043d89e80,5,260.4105,262.0087,space,1,0.2542,,0,12,12,14,1,O,space,,,,,,,,,,
,,,,,R_9BzFnSWLmL4Ou7x,001,2025-08-26_13h23.02.218,continuous_performance_test,2024.2.4,Win32,59.52380952,bf9c189c-12fa-4519-b419-387043d89e80,5,262.0105,263.7071,space,1,0.3654,,0,13,13,22,1,W,space,,,,,,,,,,
,,,,,R_9BzFnSWLmL4Ou7x,001,2025-08-26_13h23.02.218,continuous_performance_test,2024.2.4,Win32,59.52380952,bf9c189c-12fa-4519-b419-387043d89e80,5,263.7088,265.5052,space,1,0.3118,,0,14,14,19,1,T,space,,,,,,,,,,
,,,,,R_9BzFnSWLmL4Ou7x,001,2025-08-26_13h23.02.218,continuous_performance_test,2024.2.4,Win32,59.52380952,bf9c189c-12fa-4519-b419-387043d89e80,5,265.5069,267.3544,space,1,0.2855,,0,15,15,2,1,C,space,,,,,,,,,,
,,,,,R_9BzFnSWLmL4Ou7x,001,2025-08-26_13h23.02.218,continuous_performance_test,2024.2.4,Win32,59.52380952,bf9c189c-12fa-4519-b419-387043d89e80,5,267.3568,268.9532,space,0,0.2816,,0,16,16,28,1,X,,,,,,,,,,,
,,,,,R_9BzFnSWLmL4Ou7x,001,2025-08-26_13h23.02.218,continuous_performance_test,2024.2.4,Win32,59.52380952,bf9c189c-12fa-4519-b419-387043d89e80,5,268.9552,270.9006,space,1,0.3304,,0,17,17,24,1,Z,space,,,,,,,,,,
,,,,,R_9BzFnSWLmL4Ou7x,001,2025-08-26_13h23.02.218,continuous_performance_test,2024.2.4,Win32,59.52380952,bf9c189c-12fa-4519-b419-387043d89e80,5,270.9019,272.7491,space,1,0.2698,,0,18,18,12,1,M,space,,,,,,,,,,
,,,,,R_9BzFnSWLmL4Ou7x,001,2025-08-26_13h23.02.218,continuous_performance_test,2024.2.4,Win32,59.52380952,bf9c189c-12fa-4519-b419-387043d89e80,5,272.751,274.5482,,1,,,0,19,19,25,1,X,,,,,,,,,,,
,,,,,R_9BzFnSWLmL4Ou7x,001,2025-08-26_13h23.02.218,continuous_performance_test,2024.2.4,Win32,59.52380952,bf9c189c-12fa-4519-b419-387043d89e80,5,274.5495,276.2968,space,1,0.4215,,0,20,20,3,1,D,space,,,,,,,,,,
,,,,,R_9BzFnSWLmL4Ou7x,001,2025-08-26_13h23.02.218,continuous_performance_test,2024.2.4,Win32,59.52380952,bf9c189c-12fa-4519-b419-387043d89e80,5,276.2994,277.9457,space,1,0.4152,,0,21,21,5,1,F,space,,,,,,,,,,
,,,,,R_9BzFnSWLmL4Ou7x,001,2025-08-26_13h23.02.218,continuous_performance_test,2024.2.4,Win32,59.52380952,bf9c189c-12fa-4519-b419-387043d89e80,5,277.9472,279.8939,space,1,0.2972,,0,22,22,10,1,K,space,,,,,,,,,,
,,,,,R_9BzFnSWLmL4Ou7x,001,2025-08-26_13h23.02.218,continuous_performance_test,2024.2.4,Win32,59.52380952,bf9c189c-12fa-4519-b419-387043d89e80,5,279.8957,281.4926,space,1,0.2544,,0,23,23,13,1,N,space,,,,,,,,,,
,,,,,R_9BzFnSWLmL4Ou7x,001,2025-08-26_13h23.02.218,continuous_performance_test,2024.2.4,Win32,59.52380952,bf9c189c-12fa-4519-b419-387043d89e80,5,281.4945,283.4411,space,0,0.5518,,0,24,24,26,1,X,,,,,,,,,,,
,,,,,R_9BzFnSWLmL4Ou7x,001,2025-08-26_13h23.02.218,continuous_performance_test,2024.2.4,Win32,59.52380952,bf9c189c-12fa-4519-b419-387043d89e80,5,283.4427,285.3395,space,1,0.3345,,0,25,25,21,1,V,space,,,,,,,,,,
,,,,,R_9BzFnSWLmL4Ou7x,001,2025-08-26_13h23.02.218,continuous_performance_test,2024.2.4,Win32,59.52380952,bf9c189c-12fa-4519-b419-387043d89e80,5,285.3411,286.988,space,1,0.3485,,0,26,26,8,1,I,space,,,,,,,,,,
,,,,,R_9BzFnSWLmL4Ou7x,001,2025-08-26_13h23.02.218,continuous_performance_test,2024.2.4,Win32,59.52380952,bf9c189c-12fa-4519-b419-387043d89e80,5,286.9902,288.6862,space,1,0.2735,,0,27,27,18,1,S,space,,,,,,,,,,
,,,,,R_9BzFnSWLmL4Ou7x,001,2025-08-26_13h23.02.218,continuous_performance_test,2024.2.4,Win32,59.52380952,bf9c189c-12fa-4519-b419-387043d89e80,5,288.6874,290.385,space,1,0.2538,,0,28,28,7,1,H,space,,,,,,,,,,
,,,,,R_9BzFnSWLmL4Ou7x,001,2025-08-26_13h23.02.218,continuous_performance_test,2024.2.4,Win32,59.52380952,bf9c189c-12fa-4519-b419-387043d89e80,5,290.3862,291.9246,space,1,0.2709,,0,29,29,1,1,B,space,,,,,,,,,,
,,,,,R_9BzFnSWLmL4Ou7x,001,2025-08-26_13h23.02.218,continuous_performance_test,2024.2.4,Win32,59.52380952,bf9c189c-12fa-4519-b419-387043d89e80,5,294.3434,296.1387,space,1,0.2866,,0,0,0,9,1,J,space,291.9273,294.3318,space,2.3792,,,,,,
,,,,,R_9BzFnSWLmL4Ou7x,001,2025-08-26_13h23.02.218,continuous_performance_test,2024.2.4,Win32,59.52380952,bf9c189c-12fa-4519-b419-387043d89e80,5,296.1411,297.6883,space,1,0.2987,,0,1,1,6,1,G,space,,,,,,,,,,
,,,,,R_9BzFnSWLmL4Ou7x,001,2025-08-26_13h23.02.218,continuous_performance_test,2024.2.4,Win32,59.52380952,bf9c189c-12fa-4519-b419-387043d89e80,5,297.6906,299.4369,space,1,0.281,,0,2,2,21,1,V,space,,,,,,,,,,
,,,,,R_9BzFnSWLmL4Ou7x,001,2025-08-26_13h23.02.218,continuous_performance_test,2024.2.4,Win32,59.52380952,bf9c189c-12fa-4519-b419-387043d89e80,5,299.4387,301.3353,,0,,,0,3,3,11,1,L,space,,,,,,,,,,
,,,,,R_9BzFnSWLmL4Ou7x,001,2025-08-26_13h23.02.218,continuous_performance_test,2024.2.4,Win32,59.52380952,bf9c189c-12fa-4519-b419-387043d89e80,5,301.3373,303.1333,space,1,0.0348,,0,4,4,16,1,Q,space,,,,,,,,,,
,,,,,R_9BzFnSWLmL4Ou7x,001,2025-08-26_13h23.02.218,continuous_performance_test,2024.2.4,Win32,59.52380952,bf9c189c-12fa-4519-b419-387043d89e80,5,303.1353,305.1308,space,1,0.4335,,0,5,5,14,1,O,space,,,,,,,,,,
,,,,,R_9BzFnSWLmL4Ou7x,001,2025-08-26_13h23.02.218,continuous_performance_test,2024.2.4,Win32,59.52380952,bf9c189c-12fa-4519-b419-387043d89e80,5,305.1315,306.7811,space,1,0.3973,,0,6,6,22,1,W,space,,,,,,,,,,
,,,,,R_9BzFnSWLmL4Ou7x,001,2025-08-26_13h23.02.218,continuous_performance_test,2024.2.4,Win32,59.52380952,bf9c189c-12fa-4519-b419-387043d89e80,5,306.7837,308.5292,space,1,0.4988,,0,7,7,8,1,I,space,,,,,,,,,,
,,,,,R_9BzFnSWLmL4Ou7x,001,2025-08-26_13h23.02.218,continuous_performance_test,2024.2.4,Win32,59.52380952,bf9c189c-12fa-4519-b419-387043d89e80,5,308.5312,310.3266,space,1,0.2832,,0,8,8,4,1,E,space,,,,,,,,,,
,,,,,R_9BzFnSWLmL4Ou7x,001,2025-08-26_13h23.02.218,continuous_performance_test,2024.2.4,Win32,59.52380952,bf9c189c-12fa-4519-b419-387043d89e80,5,310.3279,312.1767,space,1,0.3661,,0,9,9,0,1,A,space,,,,,,,,,,
,,,,,R_9BzFnSWLmL4Ou7x,001,2025-08-26_13h23.02.218,continuous_performance_test,2024.2.4,Win32,59.52380952,bf9c189c-12fa-4519-b419-387043d89e80,5,312.1784,314.0251,space,1,0.3312,,0,10,10,20,1,U,space,,,,,,,,,,
,,,,,R_9BzFnSWLmL4Ou7x,001,2025-08-26_13h23.02.218,continuous_performance_test,2024.2.4,Win32,59.52380952,bf9c189c-12fa-4519-b419-387043d89e80,5,314.0268,315.6228,space,0,0.3172,,0,11,11,28,1,X,,,,,,,,,,,
,,,,,R_9BzFnSWLmL4Ou7x,001,2025-08-26_13h23.02.218,continuous_performance_test,2024.2.4,Win32,59.52380952,bf9c189c-12fa-4519-b419-387043d89e80,5,315.6242,317.6221,space,0,0.4837,,0,12,12,25,1,X,,,,,,,,,,,
,,,,,R_9BzFnSWLmL4Ou7x,001,2025-08-26_13h23.02.218,continuous_performance_test,2024.2.4,Win32,59.52380952,bf9c189c-12fa-4519-b419-387043d89e80,5,317.6238,319.3206,space,1,0.4467,,0,13,13,13,1,N,space,,,,,,,,,,
,,,,,R_9BzFnSWLmL4Ou7x,001,2025-08-26_13h23.02.218,continuous_performance_test,2024.2.4,Win32,59.52380952,bf9c189c-12fa-4519-b419-387043d89e80,5,319.3226,321.2596,space,1,0.3371,,0,14,14,18,1,S,space,,,,,,,,,,
,,,,,R_9BzFnSWLmL4Ou7x,001,2025-08-26_13h23.02.218,continuous_performance_test,2024.2.4,Win32,59.52380952,bf9c189c-12fa-4519-b419-387043d89e80,5,321.262,323.0083,space,0,0.3002,,0,15,15,29,1,X,,,,,,,,,,,
,,,,,R_9BzFnSWLmL4Ou7x,001,2025-08-26_13h23.02.218,continuous_performance_test,2024.2.4,Win32,59.52380952,bf9c189c-12fa-4519-b419-387043d89e80,5,323.0111,324.8067,space,1,0.2822,,0,16,16,7,1,H,space,,,,,,,,,,
,,,,,R_9BzFnSWLmL4Ou7x,001,2025-08-26_13h23.02.218,continuous_performance_test,2024.2.4,Win32,59.52380952,bf9c189c-12fa-4519-b419-387043d89e80,5,324.8081,326.5054,space,1,0.2569,,0,17,17,1,1,B,space,,,,,,,,,,
,,,,,R_9BzFnSWLmL4Ou7x,001,2025-08-26_13h23.02.218,continuous_performance_test,2024.2.4,Win32,59.52380952,bf9c189c-12fa-4519-b419-387043d89e80,5,326.5081,328.4035,space,1,0.2469,,0,18,18,19,1,T,space,,,,,,,,,,
,,,,,R_9BzFnSWLmL4Ou7x,001,2025-08-26_13h23.02.218,continuous_performance_test,2024.2.4,Win32,59.52380952,bf9c189c-12fa-4519-b419-387043d89e80,5,328.4052,330.0525,space,1,0.283,,0,19,19,5,1,F,space,,,,,,,,,,
,,,,,R_9BzFnSWLmL4Ou7x,001,2025-08-26_13h23.02.218,continuous_performance_test,2024.2.4,Win32,59.52380952,bf9c189c-12fa-4519-b419-387043d89e80,5,330.0543,331.7008,space,1,0.3,,0,20,20,10,1,K,space,,,,,,,,,,
,,,,,R_9BzFnSWLmL4Ou7x,001,2025-08-26_13h23.02.218,continuous_performance_test,2024.2.4,Win32,59.52380952,bf9c189c-12fa-4519-b419-387043d89e80,5,331.7022,333.2995,space,1,0.2828,,0,21,21,23,1,Y,space,,,,,,,,,,
,,,,,R_9BzFnSWLmL4Ou7x,001,2025-08-26_13h23.02.218,continuous_performance_test,2024.2.4,Win32,59.52380952,bf9c189c-12fa-4519-b419-387043d89e80,5,333.3007,335.0984,space,1,0.047,,0,22,22,17,1,R,space,,,,,,,,,,
,,,,,R_9BzFnSWLmL4Ou7x,001,2025-08-26_13h23.02.218,continuous_performance_test,2024.2.4,Win32,59.52380952,bf9c189c-12fa-4519-b419-387043d89e80,5,335.1012,336.797,space,0,0.0007,,0,23,23,27,1,X,,,,,,,,,,,
,,,,,R_9BzFnSWLmL4Ou7x,001,2025-08-26_13h23.02.218,continuous_performance_test,2024.2.4,Win32,59.52380952,bf9c189c-12fa-4519-b419-387043d89e80,5,336.7986,338.3457,space,1,0.3696,,0,24,24,12,1,M,space,,,,,,,,,,
,,,,,R_9BzFnSWLmL4Ou7x,001,2025-08-26_13h23.02.218,continuous_performance_test,2024.2.4,Win32,59.52380952,bf9c189c-12fa-4519-b419-387043d89e80,5,338.3478,339.8947,space,1,0.3163,,0,25,25,2,1,C,space,,,,,,,,,,
,,,,,R_9BzFnSWLmL4Ou7x,001,2025-08-26_13h23.02.218,continuous_performance_test,2024.2.4,Win32,59.52380952,bf9c189c-12fa-4519-b419-387043d89e80,5,339.8959,341.7423,space,1,0.2502,,0,26,26,3,1,D,space,,,,,,,,,,
,,,,,R_9BzFnSWLmL4Ou7x,001,2025-08-26_13h23.02.218,continuous_performance_test,2024.2.4,Win32,59.52380952,bf9c189c-12fa-4519-b419-387043d89e80,5,341.743,343.4408,space,0,0.0069,,0,27,27,26,1,X,,,,,,,,,,,
,,,,,R_9BzFnSWLmL4Ou7x,001,2025-08-26_13h23.02.218,continuous_performance_test,2024.2.4,Win32,59.52380952,bf9c189c-12fa-4519-b419-387043d89e80,5,343.442,345.0399,space,1,0.349,,0,28,28,24,1,Z,space,,,,,,,,,,
,,,,,R_9BzFnSWLmL4Ou7x,001,2025-08-26_13h23.02.218,continuous_performance_test,2024.2.4,Win32,59.52380952,bf9c189c-12fa-4519-b419-387043d89e80,5,345.0418,346.7887,space,1,0.271,,0,29,29,15,1,P,space,,,,,,,,,,
,,,,,R_9BzFnSWLmL4Ou7x,001,2025-08-26_13h23.02.218,continuous_performance_test,2024.2.4,Win32,59.52380952,bf9c189c-12fa-4519-b419-387043d89e80,5,347.4486,349.1367,space,1,0.333,,0,0,0,21,1,V,space,346.7899,347.4386,space,0.6122,,,,,,
,,,,,R_9BzFnSWLmL4Ou7x,001,2025-08-26_13h23.02.218,continuous_performance_test,2024.2.4,Win32,59.52380952,bf9c189c-12fa-4519-b419-387043d89e80,5,349.138,351.0354,,1,,,0,1,1,26,1,X,,,,,,,,,,,
,,,,,R_9BzFnSWLmL4Ou7x,001,2025-08-26_13h23.02.218,continuous_performance_test,2024.2.4,Win32,59.52380952,bf9c189c-12fa-4519-b419-387043d89e80,5,351.0374,352.9336,space,1,0.2847,,0,2,2,4,1,E,space,,,,,,,,,,
,,,,,R_9BzFnSWLmL4Ou7x,001,2025-08-26_13h23.02.218,continuous_performance_test,2024.2.4,Win32,59.52380952,bf9c189c-12fa-4519-b419-387043d89e80,5,352.9349,354.9318,,0,,,0,3,3,6,1,G,space,,,,,,,,,,
,,,,,R_9BzFnSWLmL4Ou7x,001,2025-08-26_13h23.02.218,continuous_performance_test,2024.2.4,Win32,59.52380952,bf9c189c-12fa-4519-b419-387043d89e80,5,354.9329,356.9307,space,1,0.335,,0,4,4,7,1,H,space,,,,,,,,,,
,,,,,R_9BzFnSWLmL4Ou7x,001,2025-08-26_13h23.02.218,continuous_performance_test,2024.2.4,Win32,59.52380952,bf9c189c-12fa-4519-b419-387043d89e80,5,356.9327,358.6788,space,0,0.3297,,0,5,5,28,1,X,,,,,,,,,,,
,,,,,R_9BzFnSWLmL4Ou7x,001,2025-08-26_13h23.02.218,continuous_performance_test,2024.2.4,Win32,59.52380952,bf9c189c-12fa-4519-b419-387043d89e80,5,358.6797,360.4778,space,1,0.2385,,0,6,6,17,1,R,space,,,,,,,,,,
,,,,,R_9BzFnSWLmL4Ou7x,001,2025-08-26_13h23.02.218,continuous_performance_test,2024.2.4,Win32,59.52380952,bf9c189c-12fa-4519-b419-387043d89e80,5,360.4798,362.026,space,1,0.2829,,0,7,7,23,1,Y,space,,,,,,,,,,
,,,,,R_9BzFnSWLmL4Ou7x,001,2025-08-26_13h23.02.218,continuous_performance_test,2024.2.4,Win32,59.52380952,bf9c189c-12fa-4519-b419-387043d89e80,5,362.0277,364.024,space,1,0.2665,,0,8,8,13,1,N,space,,,,,,,,,,
,,,,,R_9BzFnSWLmL4Ou7x,001,2025-08-26_13h23.02.218,continuous_performance_test,2024.2.4,Win32,59.52380952,bf9c189c-12fa-4519-b419-387043d89e80,5,364.0257,365.9732,space,1,0.3173,,0,9,9,5,1,F,space,,,,,,,,,,
,,,,,R_9BzFnSWLmL4Ou7x,001,2025-08-26_13h23.02.218,continuous_performance_test,2024.2.4,Win32,59.52380952,bf9c189c-12fa-4519-b419-387043d89e80,5,365.9749,367.8218,space,1,0.2844,,0,10,10,19,1,T,space,,,,,,,,,,
,,,,,R_9BzFnSWLmL4Ou7x,001,2025-08-26_13h23.02.218,continuous_performance_test,2024.2.4,Win32,59.52380952,bf9c189c-12fa-4519-b419-387043d89e80,5,367.8238,369.5199,space,1,0.2742,,0,11,11,10,1,K,space,,,,,,,,,,
,,,,,R_9BzFnSWLmL4Ou7x,001,2025-08-26_13h23.02.218,continuous_performance_test,2024.2.4,Win32,59.52380952,bf9c189c-12fa-4519-b419-387043d89e80,5,369.5215,371.5098,space,1,0.2706,,0,12,12,2,1,C,space,,,,,,,,,,
,,,,,R_9BzFnSWLmL4Ou7x,001,2025-08-26_13h23.02.218,continuous_performance_test,2024.2.4,Win32,59.52380952,bf9c189c-12fa-4519-b419-387043d89e80,5,371.5123,373.1004,space,1,0.3987,,0,13,13,0,1,A,space,,,,,,,,,,
,,,,,R_9BzFnSWLmL4Ou7x,001,2025-08-26_13h23.02.218,continuous_performance_test,2024.2.4,Win32,59.52380952,bf9c189c-12fa-4519-b419-387043d89e80,5,373.1022,374.7494,space,1,0.2863,,0,14,14,12,1,M,space,,,,,,,,,,
,,,,,R_9BzFnSWLmL4Ou7x,001,2025-08-26_13h23.02.218,continuous_performance_test,2024.2.4,Win32,59.52380952,bf9c189c-12fa-4519-b419-387043d89e80,5,374.7523,376.3983,space,1,0.2678,,0,15,15,20,1,U,space,,,,,,,,,,
,,,,,R_9BzFnSWLmL4Ou7x,001,2025-08-26_13h23.02.218,continuous_performance_test,2024.2.4,Win32,59.52380952,bf9c189c-12fa-4519-b419-387043d89e80,5,376.3997,378.396,space,1,0.3053,,0,16,16,3,1,D,space,,,,,,,,,,
,,,,,R_9BzFnSWLmL4Ou7x,001,2025-08-26_13h23.02.218,continuous_performance_test,2024.2.4,Win32,59.52380952,bf9c189c-12fa-4519-b419-387043d89e80,5,378.3979,380.1448,space,1,0.2031,,0,17,17,8,1,I,space,,,,,,,,,,
,,,,,R_9BzFnSWLmL4Ou7x,001,2025-08-26_13h23.02.218,continuous_performance_test,2024.2.4,Win32,59.52380952,bf9c189c-12fa-4519-b419-387043d89e80,5,380.1465,381.6935,space,1,0.2718,,0,18,18,15,1,P,space,,,,,,,,,,
,,,,,R_9BzFnSWLmL4Ou7x,001,2025-08-26_13h23.02.218,continuous_performance_test,2024.2.4,Win32,59.52380952,bf9c189c-12fa-4519-b419-387043d89e80,5,381.6946,383.2916,,0,,,0,19,19,16,1,Q,space,,,,,,,,,,
,,,,,R_9BzFnSWLmL4Ou7x,001,2025-08-26_13h23.02.218,continuous_performance_test,2024.2.4,Win32,59.52380952,bf9c189c-12fa-4519-b419-387043d89e80,5,383.2928,385.2409,,0,,,0,20,20,9,1,J,space,,,,,,,,,,
,,,,,R_9BzFnSWLmL4Ou7x,001,2025-08-26_13h23.02.218,continuous_performance_test,2024.2.4,Win32,59.52380952,bf9c189c-12fa-4519-b419-387043d89e80,5,385.2424,386.8393,space,1,0.2195,,0,21,21,22,1,W,space,,,,,,,,,,
,,,,,R_9BzFnSWLmL4Ou7x,001,2025-08-26_13h23.02.218,continuous_performance_test,2024.2.4,Win32,59.52380952,bf9c189c-12fa-4519-b419-387043d89e80,5,386.8422,388.6877,,1,,,0,22,22,25,1,X,,,,,,,,,,,
,,,,,R_9BzFnSWLmL4Ou7x,001,2025-08-26_13h23.02.218,continuous_performance_test,2024.2.4,Win32,59.52380952,bf9c189c-12fa-4519-b419-387043d89e80,5,388.689,390.336,,1,,,0,23,23,27,1,X,,,,,,,,,,,
,,,,,R_9BzFnSWLmL4Ou7x,001,2025-08-26_13h23.02.218,continuous_performance_test,2024.2.4,Win32,59.52380952,bf9c189c-12fa-4519-b419-387043d89e80,5,390.3372,392.0848,space,1,0.2851,,0,24,24,24,1,Z,space,,,,,,,,,,
,,,,,R_9BzFnSWLmL4Ou7x,001,2025-08-26_13h23.02.218,continuous_performance_test,2024.2.4,Win32,59.52380952,bf9c189c-12fa-4519-b419-387043d89e80,5,392.0862,394.0831,space,1,0.254,,0,25,25,18,1,S,space,,,,,,,,,,
,,,,,R_9BzFnSWLmL4Ou7x,001,2025-08-26_13h23.02.218,continuous_performance_test,2024.2.4,Win32,59.52380952,bf9c189c-12fa-4519-b419-387043d89e80,5,394.0856,395.8313,space,1,0.3299,,0,26,26,11,1,L,space,,,,,,,,,,
,,,,,R_9BzFnSWLmL4Ou7x,001,2025-08-26_13h23.02.218,continuous_performance_test,2024.2.4,Win32,59.52380952,bf9c189c-12fa-4519-b419-387043d89e80,5,395.8321,397.7801,space,1,0.2356,,0,27,27,1,1,B,space,,,,,,,,,,
,,,,,R_9BzFnSWLmL4Ou7x,001,2025-08-26_13h23.02.218,continuous_performance_test,2024.2.4,Win32,59.52380952,bf9c189c-12fa-4519-b419-387043d89e80,5,397.7814,399.5787,space,1,0.2373,,0,28,28,14,1,O,space,,,,,,,,,,
,,,,,R_9BzFnSWLmL4Ou7x,001,2025-08-26_13h23.02.218,continuous_performance_test,2024.2.4,Win32,59.52380952,bf9c189c-12fa-4519-b419-387043d89e80,5,399.581,401.4272,space,0,0.2366,,0,29,29,29,1,X,,,,,,,,,,,
,,,,,R_9BzFnSWLmL4Ou7x,001,2025-08-26_13h23.02.218,continuous_performance_test,2024.2.4,Win32,59.52380952,bf9c189c-12fa-4519-b419-387043d89e80,5,402.3343,404.0747,space,1,0.3034,,0,0,0,16,1,Q,space,401.4283,402.3268,space,0.8633,,,,,,
,,,,,R_9BzFnSWLmL4Ou7x,001,2025-08-26_13h23.02.218,continuous_performance_test,2024.2.4,Win32,59.52380952,bf9c189c-12fa-4519-b419-387043d89e80,5,404.0765,405.6241,space,1,0.3169,,0,1,1,0,1,A,space,,,,,,,,,,
,,,,,R_9BzFnSWLmL4Ou7x,001,2025-08-26_13h23.02.218,continuous_performance_test,2024.2.4,Win32,59.52380952,bf9c189c-12fa-4519-b419-387043d89e80,5,405.6255,407.1722,space,1,0.2672,,0,2,2,12,1,M,space,,,,,,,,,,
,,,,,R_9BzFnSWLmL4Ou7x,001,2025-08-26_13h23.02.218,continuous_performance_test,2024.2.4,Win32,59.52380952,bf9c189c-12fa-4519-b419-387043d89e80,5,407.1736,409.1787,,0,,,0,3,3,2,1,C,space,,,,,,,,,,
,,,,,R_9BzFnSWLmL4Ou7x,001,2025-08-26_13h23.02.218,continuous_performance_test,2024.2.4,Win32,59.52380952,bf9c189c-12fa-4519-b419-387043d89e80,5,409.1799,410.9192,space,1,0.2672,,0,4,4,17,1,R,space,,,,,,,,,,
,,,,,R_9BzFnSWLmL4Ou7x,001,2025-08-26_13h23.02.218,continuous_performance_test,2024.2.4,Win32,59.52380952,bf9c189c-12fa-4519-b419-387043d89e80,5,410.9211,412.5173,,1,,,0,5,5,25,1,X,,,,,,,,,,,
,,,,,R_9BzFnSWLmL4Ou7x,001,2025-08-26_13h23.02.218,continuous_performance_test,2024.2.4,Win32,59.52380952,bf9c189c-12fa-4519-b419-387043d89e80,5,412.518,414.3161,space,1,0.4881,,0,6,6,19,1,T,space,,,,,,,,,,
,,,,,R_9BzFnSWLmL4Ou7x,001,2025-08-26_13h23.02.218,continuous_performance_test,2024.2.4,Win32,59.52380952,bf9c189c-12fa-4519-b419-387043d89e80,5,414.3174,416.265,space,1,0.3169,,0,7,7,22,1,W,space,,,,,,,,,,
,,,,,R_9BzFnSWLmL4Ou7x,001,2025-08-26_13h23.02.218,continuous_performance_test,2024.2.4,Win32,59.52380952,bf9c189c-12fa-4519-b419-387043d89e80,5,416.2665,417.9133,space,1,0.3509,,0,8,8,1,1,B,space,,,,,,,,,,
,,,,,R_9BzFnSWLmL4Ou7x,001,2025-08-26_13h23.02.218,continuous_performance_test,2024.2.4,Win32,59.52380952,bf9c189c-12fa-4519-b419-387043d89e80,5,417.9158,419.8114,space,1,0.3002,,0,9,9,15,1,P,space,,,,,,,,,,
,,,,,R_9BzFnSWLmL4Ou7x,001,2025-08-26_13h23.02.218,continuous_performance_test,2024.2.4,Win32,59.52380952,bf9c189c-12fa-4519-b419-387043d89e80,5,419.8125,421.361,space,1,0.2469,,0,10,10,7,1,H,space,,,,,,,,,,
,,,,,R_9BzFnSWLmL4Ou7x,001,2025-08-26_13h23.02.218,continuous_performance_test,2024.2.4,Win32,59.52380952,bf9c189c-12fa-4519-b419-387043d89e80,5,421.3624,422.9595,space,1,0.0466,,0,11,11,14,1,O,space,,,,,,,,,,
,,,,,R_9BzFnSWLmL4Ou7x,001,2025-08-26_13h23.02.218,continuous_performance_test,2024.2.4,Win32,59.52380952,bf9c189c-12fa-4519-b419-387043d89e80,5,422.9613,424.9581,space,1,0.0727,,0,12,12,6,1,G,space,,,,,,,,,,
,,,,,R_9BzFnSWLmL4Ou7x,001,2025-08-26_13h23.02.218,continuous_performance_test,2024.2.4,Win32,59.52380952,bf9c189c-12fa-4519-b419-387043d89e80,5,424.9597,426.9058,,1,,,0,13,13,27,1,X,,,,,,,,,,,
,,,,,R_9BzFnSWLmL4Ou7x,001,2025-08-26_13h23.02.218,continuous_performance_test,2024.2.4,Win32,59.52380952,bf9c189c-12fa-4519-b419-387043d89e80,5,426.9068,428.455,space,1,0.481,,0,14,14,8,1,I,space,,,,,,,,,,
,,,,,R_9BzFnSWLmL4Ou7x,001,2025-08-26_13h23.02.218,continuous_performance_test,2024.2.4,Win32,59.52380952,bf9c189c-12fa-4519-b419-387043d89e80,5,428.4568,430.0536,space,1,0.3703,,0,15,15,21,1,V,space,,,,,,,,,,
,,,,,R_9BzFnSWLmL4Ou7x,001,2025-08-26_13h23.02.218,continuous_performance_test,2024.2.4,Win32,59.52380952,bf9c189c-12fa-4519-b419-387043d89e80,5,430.0557,431.7518,space,1,0.251,,0,16,16,23,1,Y,space,,,,,,,,,,
,,,,,R_9BzFnSWLmL4Ou7x,001,2025-08-26_13h23.02.218,continuous_performance_test,2024.2.4,Win32,59.52380952,bf9c189c-12fa-4519-b419-387043d89e80,5,431.7531,433.3513,space,1,0.2721,,0,17,17,10,1,K,space,,,,,,,,,,
,,,,,R_9BzFnSWLmL4Ou7x,001,2025-08-26_13h23.02.218,continuous_performance_test,2024.2.4,Win32,59.52380952,bf9c189c-12fa-4519-b419-387043d89e80,5,433.3532,435.2996,space,1,0.3562,,0,18,18,4,1,E,space,,,,,,,,,,
,,,,,R_9BzFnSWLmL4Ou7x,001,2025-08-26_13h23.02.218,continuous_performance_test,2024.2.4,Win32,59.52380952,bf9c189c-12fa-4519-b419-387043d89e80,5,435.302,437.0474,space,0,0.3033,,0,19,19,28,1,X,,,,,,,,,,,
,,,,,R_9BzFnSWLmL4Ou7x,001,2025-08-26_13h23.02.218,continuous_performance_test,2024.2.4,Win32,59.52380952,bf9c189c-12fa-4519-b419-387043d89e80,5,437.0483,438.8468,,1,,,0,20,20,26,1,X,,,,,,,,,,,
,,,,,R_9BzFnSWLmL4Ou7x,001,2025-08-26_13h23.02.218,continuous_performance_test,2024.2.4,Win32,59.52380952,bf9c189c-12fa-4519-b419-387043d89e80,5,438.8489,440.395,space,1,0.3528,,0,21,21,18,1,S,space,,,,,,,,,,
,,,,,R_9BzFnSWLmL4Ou7x,001,2025-08-26_13h23.02.218,continuous_performance_test,2024.2.4,Win32,59.52380952,bf9c189c-12fa-4519-b419-387043d89e80,5,440.3976,441.9435,space,1,0.2393,,0,22,22,24,1,Z,space,,,,,,,,,,
,,,,,R_9BzFnSWLmL4Ou7x,001,2025-08-26_13h23.02.218,continuous_performance_test,2024.2.4,Win32,59.52380952,bf9c189c-12fa-4519-b419-387043d89e80,5,441.945,443.9423,space,1,0.2608,,0,23,23,11,1,L,space,,,,,,,,,,
,,,,,R_9BzFnSWLmL4Ou7x,001,2025-08-26_13h23.02.218,continuous_performance_test,2024.2.4,Win32,59.52380952,bf9c189c-12fa-4519-b419-387043d89e80,5,443.9444,445.691,space,1,0.3346,,0,24,24,5,1,F,space,,,,,,,,,,
,,,,,R_9BzFnSWLmL4Ou7x,001,2025-08-26_13h23.02.218,continuous_performance_test,2024.2.4,Win32,59.52380952,bf9c189c-12fa-4519-b419-387043d89e80,5,445.6927,447.2898,space,0,0.2889,,0,25,25,29,1,X,,,,,,,,,,,
,,,,,R_9BzFnSWLmL4Ou7x,001,2025-08-26_13h23.02.218,continuous_performance_test,2024.2.4,Win32,59.52380952,bf9c189c-12fa-4519-b419-387043d89e80,5,447.2919,448.8378,space,1,0.2877,,0,26,26,3,1,D,space,,,,,,,,,,
,,,,,R_9BzFnSWLmL4Ou7x,001,2025-08-26_13h23.02.218,continuous_performance_test,2024.2.4,Win32,59.52380952,bf9c189c-12fa-4519-b419-387043d89e80,5,448.8385,450.7863,space,1,0.3188,,0,27,27,13,1,N,space,,,,,,,,,,
,,,,,R_9BzFnSWLmL4Ou7x,001,2025-08-26_13h23.02.218,continuous_performance_test,2024.2.4,Win32,59.52380952,bf9c189c-12fa-4519-b419-387043d89e80,5,450.7877,452.7844,space,1,0.2829,,0,28,28,20,1,U,space,,,,,,,,,,
,,,,,R_9BzFnSWLmL4Ou7x,001,2025-08-26_13h23.02.218,continuous_performance_test,2024.2.4,Win32,59.52380952,bf9c189c-12fa-4519-b419-387043d89e80,5,452.7859,454.7329,space,1,0.3185,,0,29,29,9,1,J,space,,,,,,,,,,
,,,,,R_9BzFnSWLmL4Ou7x,001,2025-08-26_13h23.02.218,continuous_performance_test,2024.2.4,Win32,59.52380952,bf9c189c-12fa-4519-b419-387043d89e80,5,455.8382,457.481,space,0,0.4187,,0,0,0,28,1,X,,454.7341,455.8323,space,1.0687,,,,,,
,,,,,R_9BzFnSWLmL4Ou7x,001,2025-08-26_13h23.02.218,continuous_performance_test,2024.2.4,Win32,59.52380952,bf9c189c-12fa-4519-b419-387043d89e80,5,457.4824,459.0299,space,1,0.3511,,0,1,1,13,1,N,space,,,,,,,,,,
,,,,,R_9BzFnSWLmL4Ou7x,001,2025-08-26_13h23.02.218,continuous_performance_test,2024.2.4,Win32,59.52380952,bf9c189c-12fa-4519-b419-387043d89e80,5,459.0314,460.9879,space,1,0.3863,,0,2,2,1,1,B,space,,,,,,,,,,
,,,,,R_9BzFnSWLmL4Ou7x,001,2025-08-26_13h23.02.218,continuous_performance_test,2024.2.4,Win32,59.52380952,bf9c189c-12fa-4519-b419-387043d89e80,5,460.9898,462.6769,,0,,,0,3,3,18,1,S,space,,,,,,,,,,
,,,,,R_9BzFnSWLmL4Ou7x,001,2025-08-26_13h23.02.218,continuous_performance_test,2024.2.4,Win32,59.52380952,bf9c189c-12fa-4519-b419-387043d89e80,5,462.6784,464.3758,,0,,,0,4,4,5,1,F,space,,,,,,,,,,
,,,,,R_9BzFnSWLmL4Ou7x,001,2025-08-26_13h23.02.218,continuous_performance_test,2024.2.4,Win32,59.52380952,bf9c189c-12fa-4519-b419-387043d89e80,5,464.3782,466.3738,space,1,0.2972,,0,5,5,14,1,O,space,,,,,,,,,,
,,,,,R_9BzFnSWLmL4Ou7x,001,2025-08-26_13h23.02.218,continuous_performance_test,2024.2.4,Win32,59.52380952,bf9c189c-12fa-4519-b419-387043d89e80,5,466.3761,468.0728,space,1,0.2507,,0,6,6,7,1,H,space,,,,,,,,,,
,,,,,R_9BzFnSWLmL4Ou7x,001,2025-08-26_13h23.02.218,continuous_performance_test,2024.2.4,Win32,59.52380952,bf9c189c-12fa-4519-b419-387043d89e80,5,468.0747,469.7725,space,1,0.3044,,0,7,7,20,1,U,space,,,,,,,,,,
,,,,,R_9BzFnSWLmL4Ou7x,001,2025-08-26_13h23.02.218,continuous_performance_test,2024.2.4,Win32,59.52380952,bf9c189c-12fa-4519-b419-387043d89e80,5,469.7747,471.6196,space,1,0.3069,,0,8,8,3,1,D,space,,,,,,,,,,
,,,,,R_9BzFnSWLmL4Ou7x,001,2025-08-26_13h23.02.218,continuous_performance_test,2024.2.4,Win32,59.52380952,bf9c189c-12fa-4519-b419-387043d89e80,5,471.6217,473.4677,space,1,0.2838,,0,9,9,21,1,V,space,,,,,,,,,,
,,,,,R_9BzFnSWLmL4Ou7x,001,2025-08-26_13h23.02.218,continuous_performance_test,2024.2.4,Win32,59.52380952,bf9c189c-12fa-4519-b419-387043d89e80,5,473.4697,475.2665,space,1,0.2894,,0,10,10,10,1,K,space,,,,,,,,,,
,,,,,R_9BzFnSWLmL4Ou7x,001,2025-08-26_13h23.02.218,continuous_performance_test,2024.2.4,Win32,59.52380952,bf9c189c-12fa-4519-b419-387043d89e80,5,475.2686,477.0145,space,0,0.4665,,0,11,11,29,1,X,,,,,,,,,,,
,,,,,R_9BzFnSWLmL4Ou7x,001,2025-08-26_13h23.02.218,continuous_performance_test,2024.2.4,Win32,59.52380952,bf9c189c-12fa-4519-b419-387043d89e80,5,477.0161,479.0128,space,1,0.731,,0,12,12,17,1,R,space,,,,,,,,,,
,,,,,R_9BzFnSWLmL4Ou7x,001,2025-08-26_13h23.02.218,continuous_performance_test,2024.2.4,Win32,59.52380952,bf9c189c-12fa-4519-b419-387043d89e80,5,479.0142,480.5617,space,1,0.3844,,0,13,13,2,1,C,space,,,,,,,,,,
,,,,,R_9BzFnSWLmL4Ou7x,001,2025-08-26_13h23.02.218,continuous_performance_test,2024.2.4,Win32,59.52380952,bf9c189c-12fa-4519-b419-387043d89e80,5,480.5627,482.311,space,1,0.2812,,0,14,14,19,1,T,space,,,,,,,,,,
,,,,,R_9BzFnSWLmL4Ou7x,001,2025-08-26_13h23.02.218,continuous_performance_test,2024.2.4,Win32,59.52380952,bf9c189c-12fa-4519-b419-387043d89e80,5,482.3129,484.217,,0,,,0,15,15,24,1,Z,space,,,,,,,,,,
,,,,,R_9BzFnSWLmL4Ou7x,001,2025-08-26_13h23.02.218,continuous_performance_test,2024.2.4,Win32,59.52380952,bf9c189c-12fa-4519-b419-387043d89e80,5,484.2198,485.9581,space,0,0.0967,,0,16,16,25,1,X,,,,,,,,,,,
,,,,,R_9BzFnSWLmL4Ou7x,001,2025-08-26_13h23.02.218,continuous_performance_test,2024.2.4,Win32,59.52380952,bf9c189c-12fa-4519-b419-387043d89e80,5,485.9595,487.7057,space,1,0.0169,,0,17,17,15,1,P,space,,,,,,,,,,
,,,,,R_9BzFnSWLmL4Ou7x,001,2025-08-26_13h23.02.218,continuous_performance_test,2024.2.4,Win32,59.52380952,bf9c189c-12fa-4519-b419-387043d89e80,5,487.7071,489.2554,,0,,,0,18,18,8,1,I,space,,,,,,,,,,
,,,,,R_9BzFnSWLmL4Ou7x,001,2025-08-26_13h23.02.218,continuous_performance_test,2024.2.4,Win32,59.52380952,bf9c189c-12fa-4519-b419-387043d89e80,5,489.2575,491.2533,,0,,,0,19,19,9,1,J,space,,,,,,,,,,
,,,,,R_9BzFnSWLmL4Ou7x,001,2025-08-26_13h23.02.218,continuous_performance_test,2024.2.4,Win32,59.52380952,bf9c189c-12fa-4519-b419-387043d89e80,5,491.255,492.9026,space,1,0.234,,0,20,20,4,1,E,space,,,,,,,,,,
,,,,,R_9BzFnSWLmL4Ou7x,001,2025-08-26_13h23.02.218,continuous_performance_test,2024.2.4,Win32,59.52380952,bf9c189c-12fa-4519-b419-387043d89e80,5,492.9048,494.7508,space,1,0.1061,,0,21,21,0,1,A,space,,,,,,,,,,
,,,,,R_9BzFnSWLmL4Ou7x,001,2025-08-26_13h23.02.218,continuous_performance_test,2024.2.4,Win32,59.52380952,bf9c189c-12fa-4519-b419-387043d89e80,5,494.7528,496.4495,space,1,0.065,,0,22,22,22,1,W,space,,,,,,,,,,
,,,,,R_9BzFnSWLmL4Ou7x,001,2025-08-26_13h23.02.218,continuous_performance_test,2024.2.4,Win32,59.52380952,bf9c189c-12fa-4519-b419-387043d89e80,5,496.4516,498.2972,,0,,,0,23,23,12,1,M,space,,,,,,,,,,
,,,,,R_9BzFnSWLmL4Ou7x,001,2025-08-26_13h23.02.218,continuous_performance_test,2024.2.4,Win32,59.52380952,bf9c189c-12fa-4519-b419-387043d89e80,5,498.2988,500.2961,space,0,0.2825,,0,24,24,27,1,X,,,,,,,,,,,
,,,,,R_9BzFnSWLmL4Ou7x,001,2025-08-26_13h23.02.218,continuous_performance_test,2024.2.4,Win32,59.52380952,bf9c189c-12fa-4519-b419-387043d89e80,5,500.2989,502.0945,space,1,0.3318,,0,25,25,16,1,Q,space,,,,,,,,,,
,,,,,R_9BzFnSWLmL4Ou7x,001,2025-08-26_13h23.02.218,continuous_performance_test,2024.2.4,Win32,59.52380952,bf9c189c-12fa-4519-b419-387043d89e80,5,502.0969,503.7931,space,1,0.2697,,0,26,26,6,1,G,space,,,,,,,,,,
,,,,,R_9BzFnSWLmL4Ou7x,001,2025-08-26_13h23.02.218,continuous_performance_test,2024.2.4,Win32,59.52380952,bf9c189c-12fa-4519-b419-387043d89e80,5,503.7947,505.491,space,1,0.281,,0,27,27,23,1,Y,space,,,,,,,,,,
,,,,,R_9BzFnSWLmL4Ou7x,001,2025-08-26_13h23.02.218,continuous_performance_test,2024.2.4,Win32,59.52380952,bf9c189c-12fa-4519-b419-387043d89e80,5,505.492,507.18,space,0,0.3024,,0,28,28,26,1,X,,,,,,,,,,,
,,,,,R_9BzFnSWLmL4Ou7x,001,2025-08-26_13h23.02.218,continuous_performance_test,2024.2.4,Win32,59.52380952,bf9c189c-12fa-4519-b419-387043d89e80,5,507.1811,508.7223,space,1,0.4129,,0,29,29,11,1,L,space,,,,,,,,,,
,,,,,R_9BzFnSWLmL4Ou7x,001,2025-08-26_13h23.02.218,continuous_performance_test,2024.2.4,Win32,59.52380952,bf9c189c-12fa-4519-b419-387043d89e80,5,517.7226,519.6708,space,1,0.5141,,0,0,0,14,1,O,space,508.7239,517.7145,space,8.9617,,,,,,
,,,,,R_9BzFnSWLmL4Ou7x,001,2025-08-26_13h23.02.218,continuous_performance_test,2024.2.4,Win32,59.52380952,bf9c189c-12fa-4519-b419-387043d89e80,5,519.6738,521.4691,space,1,0.2815,,0,1,1,5,1,F,space,,,,,,,,,,
,,,,,R_9BzFnSWLmL4Ou7x,001,2025-08-26_13h23.02.218,continuous_performance_test,2024.2.4,Win32,59.52380952,bf9c189c-12fa-4519-b419-387043d89e80,5,521.4719,523.119,space,1,0.2646,,0,2,2,11,1,L,space,,,,,,,,,,
,,,,,R_9BzFnSWLmL4Ou7x,001,2025-08-26_13h23.02.218,continuous_performance_test,2024.2.4,Win32,59.52380952,bf9c189c-12fa-4519-b419-387043d89e80,5,523.1226,525.0165,,0,,,0,3,3,18,1,S,space,,,,,,,,,,
,,,,,R_9BzFnSWLmL4Ou7x,001,2025-08-26_13h23.02.218,continuous_performance_test,2024.2.4,Win32,59.52380952,bf9c189c-12fa-4519-b419-387043d89e80,5,525.0191,526.8142,space,1,0.2809,,0,4,4,17,1,R,space,,,,,,,,,,
,,,,,R_9BzFnSWLmL4Ou7x,001,2025-08-26_13h23.02.218,continuous_performance_test,2024.2.4,Win32,59.52380952,bf9c189c-12fa-4519-b419-387043d89e80,5,526.8162,528.5628,space,0,0.2168,,0,5,5,27,1,X,,,,,,,,,,,
,,,,,R_9BzFnSWLmL4Ou7x,001,2025-08-26_13h23.02.218,continuous_performance_test,2024.2.4,Win32,59.52380952,bf9c189c-12fa-4519-b419-387043d89e80,5,528.5659,530.263,,0,,,0,6,6,23,1,Y,space,,,,,,,,,,
,,,,,R_9BzFnSWLmL4Ou7x,001,2025-08-26_13h23.02.218,continuous_performance_test,2024.2.4,Win32,59.52380952,bf9c189c-12fa-4519-b419-387043d89e80,5,530.2657,532.1114,,0,,,0,7,7,9,1,J,space,,,,,,,,,,
,,,,,R_9BzFnSWLmL4Ou7x,001,2025-08-26_13h23.02.218,continuous_performance_test,2024.2.4,Win32,59.52380952,bf9c189c-12fa-4519-b419-387043d89e80,5,532.1142,533.9097,space,1,0.2496,,0,8,8,20,1,U,space,,,,,,,,,,
,,,,,R_9BzFnSWLmL4Ou7x,001,2025-08-26_13h23.02.218,continuous_performance_test,2024.2.4,Win32,59.52380952,bf9c189c-12fa-4519-b419-387043d89e80,5,533.9123,535.5072,space,1,0.3998,,0,9,9,7,1,H,space,,,,,,,,,,
,,,,,R_9BzFnSWLmL4Ou7x,001,2025-08-26_13h23.02.218,continuous_performance_test,2024.2.4,Win32,59.52380952,bf9c189c-12fa-4519-b419-387043d89e80,5,535.5091,537.3567,space,1,0.3009,,0,10,10,13,1,N,space,,,,,,,,,,
,,,,,R_9BzFnSWLmL4Ou7x,001,2025-08-26_13h23.02.218,continuous_performance_test,2024.2.4,Win32,59.52380952,bf9c189c-12fa-4519-b419-387043d89e80,5,537.3595,539.0555,space,1,0.181,,0,11,11,19,1,T,space,,,,,,,,,,
,,,,,R_9BzFnSWLmL4Ou7x,001,2025-08-26_13h23.02.218,continuous_performance_test,2024.2.4,Win32,59.52380952,bf9c189c-12fa-4519-b419-387043d89e80,5,539.0582,540.7533,,0,,,0,12,12,22,1,W,space,,,,,,,,,,
,,,,,R_9BzFnSWLmL4Ou7x,001,2025-08-26_13h23.02.218,continuous_performance_test,2024.2.4,Win32,59.52380952,bf9c189c-12fa-4519-b419-387043d89e80,5,540.7548,542.2947,space,0,0.3,,0,13,13,29,1,X,,,,,,,,,,,
,,,,,R_9BzFnSWLmL4Ou7x,001,2025-08-26_13h23.02.218,continuous_performance_test,2024.2.4,Win32,59.52380952,bf9c189c-12fa-4519-b419-387043d89e80,5,542.2968,544.1935,space,1,0.2845,,0,14,14,6,1,G,space,,,,,,,,,,
,,,,,R_9BzFnSWLmL4Ou7x,001,2025-08-26_13h23.02.218,continuous_performance_test,2024.2.4,Win32,59.52380952,bf9c189c-12fa-4519-b419-387043d89e80,5,544.1963,545.9417,,0,,,0,15,15,10,1,K,space,,,,,,,,,,
,,,,,R_9BzFnSWLmL4Ou7x,001,2025-08-26_13h23.02.218,continuous_performance_test,2024.2.4,Win32,59.52380952,bf9c189c-12fa-4519-b419-387043d89e80,5,545.9436,547.6903,space,1,0.0007,,0,16,16,0,1,A,space,,,,,,,,,,
,,,,,R_9BzFnSWLmL4Ou7x,001,2025-08-26_13h23.02.218,continuous_performance_test,2024.2.4,Win32,59.52380952,bf9c189c-12fa-4519-b419-387043d89e80,5,547.6925,549.4893,,0,,,0,17,17,16,1,Q,space,,,,,,,,,,
,,,,,R_9BzFnSWLmL4Ou7x,001,2025-08-26_13h23.02.218,continuous_performance_test,2024.2.4,Win32,59.52380952,bf9c189c-12fa-4519-b419-387043d89e80,5,549.4912,551.1375,space,1,0.2515,,0,18,18,12,1,M,space,,,,,,,,,,
,,,,,R_9BzFnSWLmL4Ou7x,001,2025-08-26_13h23.02.218,continuous_performance_test,2024.2.4,Win32,59.52380952,bf9c189c-12fa-4519-b419-387043d89e80,5,551.1402,552.7863,space,1,0.1506,,0,19,19,15,1,P,space,,,,,,,,,,
,,,,,R_9BzFnSWLmL4Ou7x,001,2025-08-26_13h23.02.218,continuous_performance_test,2024.2.4,Win32,59.52380952,bf9c189c-12fa-4519-b419-387043d89e80,5,552.7891,554.4347,space,1,0.282,,0,20,20,24,1,Z,space,,,,,,,,,,
,,,,,R_9BzFnSWLmL4Ou7x,001,2025-08-26_13h23.02.218,continuous_performance_test,2024.2.4,Win32,59.52380952,bf9c189c-12fa-4519-b419-387043d89e80,5,554.4366,556.4331,space,1,0.0075,,0,21,21,4,1,E,space,,,,,,,,,,
,,,,,R_9BzFnSWLmL4Ou7x,001,2025-08-26_13h23.02.218,continuous_performance_test,2024.2.4,Win32,59.52380952,bf9c189c-12fa-4519-b419-387043d89e80,5,556.4359,557.9814,space,1,0.2665,,0,22,22,2,1,C,space,,,,,,,,,,
,,,,,R_9BzFnSWLmL4Ou7x,001,2025-08-26_13h23.02.218,continuous_performance_test,2024.2.4,Win32,59.52380952,bf9c189c-12fa-4519-b419-387043d89e80,5,557.9832,559.9802,space,1,0.0857,,0,23,23,1,1,B,space,,,,,,,,,,
,,,,,R_9BzFnSWLmL4Ou7x,001,2025-08-26_13h23.02.218,continuous_performance_test,2024.2.4,Win32,59.52380952,bf9c189c-12fa-4519-b419-387043d89e80,5,559.9833,561.6288,space,1,0.298,,0,24,24,3,1,D,space,,,,,,,,,,
,,,,,R_9BzFnSWLmL4Ou7x,001,2025-08-26_13h23.02.218,continuous_performance_test,2024.2.4,Win32,59.52380952,bf9c189c-12fa-4519-b419-387043d89e80,5,561.6312,563.1691,space,1,0.2962,,0,25,25,8,1,I,space,,,,,,,,,,
,,,,,R_9BzFnSWLmL4Ou7x,001,2025-08-26_13h23.02.218,continuous_performance_test,2024.2.4,Win32,59.52380952,bf9c189c-12fa-4519-b419-387043d89e80,5,563.1713,564.9597,space,1,0.2326,,0,26,26,21,1,V,space,,,,,,,,,,
,,,,,R_9BzFnSWLmL4Ou7x,001,2025-08-26_13h23.02.218,continuous_performance_test,2024.2.4,Win32,59.52380952,bf9c189c-12fa-4519-b419-387043d89e80,5,564.9637,566.8578,,1,,,0,27,27,28,1,X,,,,,,,,,,,
,,,,,R_9BzFnSWLmL4Ou7x,001,2025-08-26_13h23.02.218,continuous_performance_test,2024.2.4,Win32,59.52380952,bf9c189c-12fa-4519-b419-387043d89e80,5,566.8588,568.4064,space,0,0.4069,,0,28,28,26,1,X,,,,,,,,,,,
,,,,,R_9BzFnSWLmL4Ou7x,001,2025-08-26_13h23.02.218,continuous_performance_test,2024.2.4,Win32,59.52380952,bf9c189c-12fa-4519-b419-387043d89e80,5,568.4089,570.1456,,1,,,0,29,29,25,1,X,,,,,,,,,,,
,,,,,R_9BzFnSWLmL4Ou7x,001,2025-08-26_13h23.02.218,continuous_performance_test,2024.2.4,Win32,59.52380952,bf9c189c-12fa-4519-b419-387043d89e80,5,,,,,,,,,,,,,,570.1463,570.1474,,,,570.1479,579.4651,space,9.2911,
