Instructions.started,Instructions.stopped,key_resp.keys,key_resp.rt,key_resp.duration,participant,session,date,expName,psychopyVersion,OS,frameRate,realeye-tester-id,realeye-tester-quality_grade,Trial_noX.started,Trial_noX.stopped,response.keys,response.corr,trials_noX.thisRepN,trials_noX.thisTrialN,trials_noX.thisN,trials_noX.thisIndex,trials_noX.ran,letter,corrAns,response.rt,response.duration,BlockBreak.started,BlockBreak.stopped,key_instruct.keys,key_instruct.rt,key_instruct.duration,End_NoX.started,End_NoX.stopped,key_resp_end_noX.keys,key_resp_end_noX.rt,key_resp_end_noX.duration
0.0001,12.0528,space,12.0435,,R_9disKu97sWb6yKy,001,2025-08-27_15h53.20.921,continuous_performance_test,2024.2.4,MacIntel,120.4819277,252523df-34cf-42bb-83ae-9db6e6aed2e8,5,,,,,,,,,,,,,,,,,,,,,,,
,,,,,R_9disKu97sWb6yKy,001,2025-08-27_15h53.20.921,continuous_performance_test,2024.2.4,MacIntel,120.4819277,252523df-34cf-42bb-83ae-9db6e6aed2e8,5,12.0696,13.8178,,0,0,0,0,5,1,F,space,,,,,,,,,,,,
,,,,,R_9disKu97sWb6yKy,001,2025-08-27_15h53.20.921,continuous_performance_test,2024.2.4,MacIntel,120.4819277,252523df-34cf-42bb-83ae-9db6e6aed2e8,5,13.819,15.6183,space,1,0,1,1,24,1,Z,space,0.2844,,,,,,,,,,,
,,,,,R_9disKu97sWb6yKy,001,2025-08-27_15h53.20.921,continuous_performance_test,2024.2.4,MacIntel,120.4819277,252523df-34cf-42bb-83ae-9db6e6aed2e8,5,15.6198,17.3182,space,1,0,2,2,1,1,B,space,0.3017,,,,,,,,,,,
,,,,,R_9disKu97sWb6yKy,001,2025-08-27_15h53.20.921,continuous_performance_test,2024.2.4,MacIntel,120.4819277,252523df-34cf-42bb-83ae-9db6e6aed2e8,5,17.3195,19.3184,space,1,0,3,3,9,1,J,space,0.2618,,,,,,,,,,,
,,,,,R_9disKu97sWb6yKy,001,2025-08-27_15h53.20.921,continuous_performance_test,2024.2.4,MacIntel,120.4819277,252523df-34cf-42bb-83ae-9db6e6aed2e8,5,19.3195,21.0682,space,1,0,4,4,20,1,U,space,0.2787,,,,,,,,,,,
,,,,,R_9disKu97sWb6yKy,001,2025-08-27_15h53.20.921,continuous_performance_test,2024.2.4,MacIntel,120.4819277,252523df-34cf-42bb-83ae-9db6e6aed2e8,5,21.0696,22.9184,space,1,0,5,5,15,1,P,space,0.2383,,,,,,,,,,,
,,,,,R_9disKu97sWb6yKy,001,2025-08-27_15h53.20.921,continuous_performance_test,2024.2.4,MacIntel,120.4819277,252523df-34cf-42bb-83ae-9db6e6aed2e8,5,22.9195,24.6174,space,1,0,6,6,10,1,K,space,0.2428,,,,,,,,,,,
,,,,,R_9disKu97sWb6yKy,001,2025-08-27_15h53.20.921,continuous_performance_test,2024.2.4,MacIntel,120.4819277,252523df-34cf-42bb-83ae-9db6e6aed2e8,5,24.6184,26.5682,space,0,0,7,7,28,1,X,,0.2549,,,,,,,,,,,
,,,,,R_9disKu97sWb6yKy,001,2025-08-27_15h53.20.921,continuous_performance_test,2024.2.4,MacIntel,120.4819277,252523df-34cf-42bb-83ae-9db6e6aed2e8,5,26.5695,28.4181,space,1,0,8,8,14,1,O,space,0.2511,,,,,,,,,,,
,,,,,R_9disKu97sWb6yKy,001,2025-08-27_15h53.20.921,continuous_performance_test,2024.2.4,MacIntel,120.4819277,252523df-34cf-42bb-83ae-9db6e6aed2e8,5,28.4195,30.0182,space,1,0,9,9,17,1,R,space,0.3715,,,,,,,,,,,
,,,,,R_9disKu97sWb6yKy,001,2025-08-27_15h53.20.921,continuous_performance_test,2024.2.4,MacIntel,120.4819277,252523df-34cf-42bb-83ae-9db6e6aed2e8,5,30.0192,31.9174,space,1,0,10,10,22,1,W,space,0.2449,,,,,,,,,,,
,,,,,R_9disKu97sWb6yKy,001,2025-08-27_15h53.20.921,continuous_performance_test,2024.2.4,MacIntel,120.4819277,252523df-34cf-42bb-83ae-9db6e6aed2e8,5,31.9183,33.5679,space,0,0,11,11,25,1,X,,0.2642,,,,,,,,,,,
,,,,,R_9disKu97sWb6yKy,001,2025-08-27_15h53.20.921,continuous_performance_test,2024.2.4,MacIntel,120.4819277,252523df-34cf-42bb-83ae-9db6e6aed2e8,5,33.5689,35.1682,space,1,0,12,12,21,1,V,space,0.2487,,,,,,,,,,,
,,,,,R_9disKu97sWb6yKy,001,2025-08-27_15h53.20.921,continuous_performance_test,2024.2.4,MacIntel,120.4819277,252523df-34cf-42bb-83ae-9db6e6aed2e8,5,35.1693,36.8181,space,1,0,13,13,16,1,Q,space,0.3199,,,,,,,,,,,
,,,,,R_9disKu97sWb6yKy,001,2025-08-27_15h53.20.921,continuous_performance_test,2024.2.4,MacIntel,120.4819277,252523df-34cf-42bb-83ae-9db6e6aed2e8,5,36.8194,38.618,space,1,0,14,14,8,1,I,space,0.3617,,,,,,,,,,,
,,,,,R_9disKu97sWb6yKy,001,2025-08-27_15h53.20.921,continuous_performance_test,2024.2.4,MacIntel,120.4819277,252523df-34cf-42bb-83ae-9db6e6aed2e8,5,38.6191,40.318,space,1,0,15,15,0,1,A,space,0.3044,,,,,,,,,,,
,,,,,R_9disKu97sWb6yKy,001,2025-08-27_15h53.20.921,continuous_performance_test,2024.2.4,MacIntel,120.4819277,252523df-34cf-42bb-83ae-9db6e6aed2e8,5,40.319,41.9681,space,1,0,16,16,11,1,L,space,0.3391,,,,,,,,,,,
,,,,,R_9disKu97sWb6yKy,001,2025-08-27_15h53.20.921,continuous_performance_test,2024.2.4,MacIntel,120.4819277,252523df-34cf-42bb-83ae-9db6e6aed2e8,5,41.969,43.5177,space,1,0,17,17,2,1,C,space,0.3461,,,,,,,,,,,
,,,,,R_9disKu97sWb6yKy,001,2025-08-27_15h53.20.921,continuous_performance_test,2024.2.4,MacIntel,120.4819277,252523df-34cf-42bb-83ae-9db6e6aed2e8,5,43.5187,45.4682,,1,0,18,18,29,1,X,,,,,,,,,,,,,
,,,,,R_9disKu97sWb6yKy,001,2025-08-27_15h53.20.921,continuous_performance_test,2024.2.4,MacIntel,120.4819277,252523df-34cf-42bb-83ae-9db6e6aed2e8,5,45.4695,47.4675,space,1,0,19,19,3,1,D,space,0.2687,,,,,,,,,,,
,,,,,R_9disKu97sWb6yKy,001,2025-08-27_15h53.20.921,continuous_performance_test,2024.2.4,MacIntel,120.4819277,252523df-34cf-42bb-83ae-9db6e6aed2e8,5,47.4686,49.2681,space,1,0,20,20,18,1,S,space,0.268,,,,,,,,,,,
,,,,,R_9disKu97sWb6yKy,001,2025-08-27_15h53.20.921,continuous_performance_test,2024.2.4,MacIntel,120.4819277,252523df-34cf-42bb-83ae-9db6e6aed2e8,5,49.2694,51.1181,space,1,0,21,21,12,1,M,space,0.2675,,,,,,,,,,,
,,,,,R_9disKu97sWb6yKy,001,2025-08-27_15h53.20.921,continuous_performance_test,2024.2.4,MacIntel,120.4819277,252523df-34cf-42bb-83ae-9db6e6aed2e8,5,51.1195,52.6673,space,1,0,22,22,13,1,N,space,0.274,,,,,,,,,,,
,,,,,R_9disKu97sWb6yKy,001,2025-08-27_15h53.20.921,continuous_performance_test,2024.2.4,MacIntel,120.4819277,252523df-34cf-42bb-83ae-9db6e6aed2e8,5,52.6683,54.568,space,1,0,23,23,6,1,G,space,0.2854,,,,,,,,,,,
,,,,,R_9disKu97sWb6yKy,001,2025-08-27_15h53.20.921,continuous_performance_test,2024.2.4,MacIntel,120.4819277,252523df-34cf-42bb-83ae-9db6e6aed2e8,5,54.5692,56.1181,space,1,0,24,24,19,1,T,space,0.302,,,,,,,,,,,
,,,,,R_9disKu97sWb6yKy,001,2025-08-27_15h53.20.921,continuous_performance_test,2024.2.4,MacIntel,120.4819277,252523df-34cf-42bb-83ae-9db6e6aed2e8,5,56.1191,57.9672,,1,0,25,25,26,1,X,,,,,,,,,,,,,
,,,,,R_9disKu97sWb6yKy,001,2025-08-27_15h53.20.921,continuous_performance_test,2024.2.4,MacIntel,120.4819277,252523df-34cf-42bb-83ae-9db6e6aed2e8,5,57.9682,59.5172,space,1,0,26,26,23,1,Y,space,0.2524,,,,,,,,,,,
,,,,,R_9disKu97sWb6yKy,001,2025-08-27_15h53.20.921,continuous_performance_test,2024.2.4,MacIntel,120.4819277,252523df-34cf-42bb-83ae-9db6e6aed2e8,5,59.5181,61.517,space,1,0,27,27,4,1,E,space,0.2536,,,,,,,,,,,
,,,,,R_9disKu97sWb6yKy,001,2025-08-27_15h53.20.921,continuous_performance_test,2024.2.4,MacIntel,120.4819277,252523df-34cf-42bb-83ae-9db6e6aed2e8,5,61.518,63.468,space,1,0,28,28,7,1,H,space,0.3017,,,,,,,,,,,
,,,,,R_9disKu97sWb6yKy,001,2025-08-27_15h53.20.921,continuous_performance_test,2024.2.4,MacIntel,120.4819277,252523df-34cf-42bb-83ae-9db6e6aed2e8,5,63.4692,65.4179,space,0,0,29,29,27,1,X,,0.2807,,,,,,,,,,,
,,,,,R_9disKu97sWb6yKy,001,2025-08-27_15h53.20.921,continuous_performance_test,2024.2.4,MacIntel,120.4819277,252523df-34cf-42bb-83ae-9db6e6aed2e8,5,68.8101,70.6097,space,0,0,0,0,28,1,X,,0.324,,65.4185,68.8017,space,3.3693,,,,,,
,,,,,R_9disKu97sWb6yKy,001,2025-08-27_15h53.20.921,continuous_performance_test,2024.2.4,MacIntel,120.4819277,252523df-34cf-42bb-83ae-9db6e6aed2e8,5,70.611,72.3595,space,1,0,1,1,22,1,W,space,0.3365,,,,,,,,,,,
,,,,,R_9disKu97sWb6yKy,001,2025-08-27_15h53.20.921,continuous_performance_test,2024.2.4,MacIntel,120.4819277,252523df-34cf-42bb-83ae-9db6e6aed2e8,5,72.3606,74.3596,space,1,0,2,2,15,1,P,space,0.2557,,,,,,,,,,,
,,,,,R_9disKu97sWb6yKy,001,2025-08-27_15h53.20.921,continuous_performance_test,2024.2.4,MacIntel,120.4819277,252523df-34cf-42bb-83ae-9db6e6aed2e8,5,74.3607,75.9094,space,1,0,3,3,4,1,E,space,0.3053,,,,,,,,,,,
,,,,,R_9disKu97sWb6yKy,001,2025-08-27_15h53.20.921,continuous_performance_test,2024.2.4,MacIntel,120.4819277,252523df-34cf-42bb-83ae-9db6e6aed2e8,5,75.9104,77.6596,space,1,0,4,4,12,1,M,space,0.2893,,,,,,,,,,,
,,,,,R_9disKu97sWb6yKy,001,2025-08-27_15h53.20.921,continuous_performance_test,2024.2.4,MacIntel,120.4819277,252523df-34cf-42bb-83ae-9db6e6aed2e8,5,77.6608,79.5098,space,1,0,5,5,7,1,H,space,0.3612,,,,,,,,,,,
,,,,,R_9disKu97sWb6yKy,001,2025-08-27_15h53.20.921,continuous_performance_test,2024.2.4,MacIntel,120.4819277,252523df-34cf-42bb-83ae-9db6e6aed2e8,5,79.5111,81.4594,space,1,0,6,6,0,1,A,space,0.2735,,,,,,,,,,,
,,,,,R_9disKu97sWb6yKy,001,2025-08-27_15h53.20.921,continuous_performance_test,2024.2.4,MacIntel,120.4819277,252523df-34cf-42bb-83ae-9db6e6aed2e8,5,81.4604,83.1596,,1,0,7,7,26,1,X,,,,,,,,,,,,,
,,,,,R_9disKu97sWb6yKy,001,2025-08-27_15h53.20.921,continuous_performance_test,2024.2.4,MacIntel,120.4819277,252523df-34cf-42bb-83ae-9db6e6aed2e8,5,83.1608,84.8597,space,1,0,8,8,2,1,C,space,0.2757,,,,,,,,,,,
,,,,,R_9disKu97sWb6yKy,001,2025-08-27_15h53.20.921,continuous_performance_test,2024.2.4,MacIntel,120.4819277,252523df-34cf-42bb-83ae-9db6e6aed2e8,5,84.8608,86.6588,,0,0,9,9,9,1,J,space,,,,,,,,,,,,
,,,,,R_9disKu97sWb6yKy,001,2025-08-27_15h53.20.921,continuous_performance_test,2024.2.4,MacIntel,120.4819277,252523df-34cf-42bb-83ae-9db6e6aed2e8,5,86.6601,88.2594,space,1,0,10,10,8,1,I,space,0.3735,,,,,,,,,,,
,,,,,R_9disKu97sWb6yKy,001,2025-08-27_15h53.20.921,continuous_performance_test,2024.2.4,MacIntel,120.4819277,252523df-34cf-42bb-83ae-9db6e6aed2e8,5,88.2603,90.2096,space,1,0,11,11,13,1,N,space,0.3897,,,,,,,,,,,
,,,,,R_9disKu97sWb6yKy,001,2025-08-27_15h53.20.921,continuous_performance_test,2024.2.4,MacIntel,120.4819277,252523df-34cf-42bb-83ae-9db6e6aed2e8,5,90.2108,91.9095,,1,0,12,12,25,1,X,,,,,,,,,,,,,
,,,,,R_9disKu97sWb6yKy,001,2025-08-27_15h53.20.921,continuous_performance_test,2024.2.4,MacIntel,120.4819277,252523df-34cf-42bb-83ae-9db6e6aed2e8,5,91.9102,93.6595,space,0,0,13,13,27,1,X,,0.2674,,,,,,,,,,,
,,,,,R_9disKu97sWb6yKy,001,2025-08-27_15h53.20.921,continuous_performance_test,2024.2.4,MacIntel,120.4819277,252523df-34cf-42bb-83ae-9db6e6aed2e8,5,93.6606,95.5096,,0,0,14,14,23,1,Y,space,,,,,,,,,,,,
,,,,,R_9disKu97sWb6yKy,001,2025-08-27_15h53.20.921,continuous_performance_test,2024.2.4,MacIntel,120.4819277,252523df-34cf-42bb-83ae-9db6e6aed2e8,5,95.5105,97.4096,space,1,0,15,15,5,1,F,space,0.539,,,,,,,,,,,
,,,,,R_9disKu97sWb6yKy,001,2025-08-27_15h53.20.921,continuous_performance_test,2024.2.4,MacIntel,120.4819277,252523df-34cf-42bb-83ae-9db6e6aed2e8,5,97.4107,99.3095,space,1,0,16,16,11,1,L,space,0.3044,,,,,,,,,,,
,,,,,R_9disKu97sWb6yKy,001,2025-08-27_15h53.20.921,continuous_performance_test,2024.2.4,MacIntel,120.4819277,252523df-34cf-42bb-83ae-9db6e6aed2e8,5,99.3107,101.1595,space,1,0,17,17,21,1,V,space,0.3279,,,,,,,,,,,
,,,,,R_9disKu97sWb6yKy,001,2025-08-27_15h53.20.921,continuous_performance_test,2024.2.4,MacIntel,120.4819277,252523df-34cf-42bb-83ae-9db6e6aed2e8,5,101.1605,102.8094,space,1,0,18,18,14,1,O,space,0.2772,,,,,,,,,,,
,,,,,R_9disKu97sWb6yKy,001,2025-08-27_15h53.20.921,continuous_performance_test,2024.2.4,MacIntel,120.4819277,252523df-34cf-42bb-83ae-9db6e6aed2e8,5,102.81,104.7095,space,1,0,19,19,3,1,D,space,0.3241,,,,,,,,,,,
,,,,,R_9disKu97sWb6yKy,001,2025-08-27_15h53.20.921,continuous_performance_test,2024.2.4,MacIntel,120.4819277,252523df-34cf-42bb-83ae-9db6e6aed2e8,5,104.7105,106.7088,space,1,0,20,20,17,1,R,space,0.3118,,,,,,,,,,,
,,,,,R_9disKu97sWb6yKy,001,2025-08-27_15h53.20.921,continuous_performance_test,2024.2.4,MacIntel,120.4819277,252523df-34cf-42bb-83ae-9db6e6aed2e8,5,106.7095,108.5595,space,1,0,21,21,18,1,S,space,0.2966,,,,,,,,,,,
,,,,,R_9disKu97sWb6yKy,001,2025-08-27_15h53.20.921,continuous_performance_test,2024.2.4,MacIntel,120.4819277,252523df-34cf-42bb-83ae-9db6e6aed2e8,5,108.5606,110.4095,space,1,0,22,22,10,1,K,space,0.2698,,,,,,,,,,,
,,,,,R_9disKu97sWb6yKy,001,2025-08-27_15h53.20.921,continuous_performance_test,2024.2.4,MacIntel,120.4819277,252523df-34cf-42bb-83ae-9db6e6aed2e8,5,110.4106,112.4098,space,1,0,23,23,1,1,B,space,0.2642,,,,,,,,,,,
,,,,,R_9disKu97sWb6yKy,001,2025-08-27_15h53.20.921,continuous_performance_test,2024.2.4,MacIntel,120.4819277,252523df-34cf-42bb-83ae-9db6e6aed2e8,5,112.4106,114.2088,space,1,0,24,24,6,1,G,space,0.281,,,,,,,,,,,
,,,,,R_9disKu97sWb6yKy,001,2025-08-27_15h53.20.921,continuous_performance_test,2024.2.4,MacIntel,120.4819277,252523df-34cf-42bb-83ae-9db6e6aed2e8,5,114.21,116.2095,space,1,0,25,25,20,1,U,space,0.3056,,,,,,,,,,,
,,,,,R_9disKu97sWb6yKy,001,2025-08-27_15h53.20.921,continuous_performance_test,2024.2.4,MacIntel,120.4819277,252523df-34cf-42bb-83ae-9db6e6aed2e8,5,116.2107,117.8594,space,1,0,26,26,16,1,Q,space,0.232,,,,,,,,,,,
,,,,,R_9disKu97sWb6yKy,001,2025-08-27_15h53.20.921,continuous_performance_test,2024.2.4,MacIntel,120.4819277,252523df-34cf-42bb-83ae-9db6e6aed2e8,5,117.8605,119.5595,space,1,0,27,27,24,1,Z,space,0.2725,,,,,,,,,,,
,,,,,R_9disKu97sWb6yKy,001,2025-08-27_15h53.20.921,continuous_performance_test,2024.2.4,MacIntel,120.4819277,252523df-34cf-42bb-83ae-9db6e6aed2e8,5,119.5609,121.5093,space,0,0,28,28,29,1,X,,0.2731,,,,,,,,,,,
,,,,,R_9disKu97sWb6yKy,001,2025-08-27_15h53.20.921,continuous_performance_test,2024.2.4,MacIntel,120.4819277,252523df-34cf-42bb-83ae-9db6e6aed2e8,5,121.5104,123.0594,,0,0,29,29,19,1,T,space,,,,,,,,,,,,
,,,,,R_9disKu97sWb6yKy,001,2025-08-27_15h53.20.921,continuous_performance_test,2024.2.4,MacIntel,120.4819277,252523df-34cf-42bb-83ae-9db6e6aed2e8,5,123.2498,124.951,space,1,0,0,0,24,1,Z,space,0.7235,,123.0604,123.2429,space,0.1669,,,,,,
,,,,,R_9disKu97sWb6yKy,001,2025-08-27_15h53.20.921,continuous_performance_test,2024.2.4,MacIntel,120.4819277,252523df-34cf-42bb-83ae-9db6e6aed2e8,5,124.9522,126.9501,space,1,0,1,1,13,1,N,space,0.3829,,,,,,,,,,,
,,,,,R_9disKu97sWb6yKy,001,2025-08-27_15h53.20.921,continuous_performance_test,2024.2.4,MacIntel,120.4819277,252523df-34cf-42bb-83ae-9db6e6aed2e8,5,126.9513,128.5511,,1,0,2,2,25,1,X,,,,,,,,,,,,,
,,,,,R_9disKu97sWb6yKy,001,2025-08-27_15h53.20.921,continuous_performance_test,2024.2.4,MacIntel,120.4819277,252523df-34cf-42bb-83ae-9db6e6aed2e8,5,128.5524,130.5003,space,1,0,3,3,15,1,P,space,0.2494,,,,,,,,,,,
,,,,,R_9disKu97sWb6yKy,001,2025-08-27_15h53.20.921,continuous_performance_test,2024.2.4,MacIntel,120.4819277,252523df-34cf-42bb-83ae-9db6e6aed2e8,5,130.5011,132.101,space,1,0,4,4,9,1,J,space,0.384,,,,,,,,,,,
,,,,,R_9disKu97sWb6yKy,001,2025-08-27_15h53.20.921,continuous_performance_test,2024.2.4,MacIntel,120.4819277,252523df-34cf-42bb-83ae-9db6e6aed2e8,5,132.1022,133.8509,space,1,0,5,5,21,1,V,space,0.2895,,,,,,,,,,,
,,,,,R_9disKu97sWb6yKy,001,2025-08-27_15h53.20.921,continuous_performance_test,2024.2.4,MacIntel,120.4819277,252523df-34cf-42bb-83ae-9db6e6aed2e8,5,133.852,135.5512,space,1,0,6,6,11,1,L,space,0.2738,,,,,,,,,,,
,,,,,R_9disKu97sWb6yKy,001,2025-08-27_15h53.20.921,continuous_performance_test,2024.2.4,MacIntel,120.4819277,252523df-34cf-42bb-83ae-9db6e6aed2e8,5,135.5522,137.5509,space,1,0,7,7,3,1,D,space,0.2945,,,,,,,,,,,
,,,,,R_9disKu97sWb6yKy,001,2025-08-27_15h53.20.921,continuous_performance_test,2024.2.4,MacIntel,120.4819277,252523df-34cf-42bb-83ae-9db6e6aed2e8,5,137.552,139.101,space,0,0,8,8,29,1,X,,0.2818,,,,,,,,,,,
,,,,,R_9disKu97sWb6yKy,001,2025-08-27_15h53.20.921,continuous_performance_test,2024.2.4,MacIntel,120.4819277,252523df-34cf-42bb-83ae-9db6e6aed2e8,5,139.1022,140.6509,space,1,0,9,9,4,1,E,space,0.9476,,,,,,,,,,,
,,,,,R_9disKu97sWb6yKy,001,2025-08-27_15h53.20.921,continuous_performance_test,2024.2.4,MacIntel,120.4819277,252523df-34cf-42bb-83ae-9db6e6aed2e8,5,140.6519,142.351,space,1,0,10,10,2,1,C,space,0.3717,,,,,,,,,,,
,,,,,R_9disKu97sWb6yKy,001,2025-08-27_15h53.20.921,continuous_performance_test,2024.2.4,MacIntel,120.4819277,252523df-34cf-42bb-83ae-9db6e6aed2e8,5,142.352,144.251,space,1,0,11,11,10,1,K,space,0.4143,,,,,,,,,,,
,,,,,R_9disKu97sWb6yKy,001,2025-08-27_15h53.20.921,continuous_performance_test,2024.2.4,MacIntel,120.4819277,252523df-34cf-42bb-83ae-9db6e6aed2e8,5,144.252,145.8011,space,1,0,12,12,6,1,G,space,0.2992,,,,,,,,,,,
,,,,,R_9disKu97sWb6yKy,001,2025-08-27_15h53.20.921,continuous_performance_test,2024.2.4,MacIntel,120.4819277,252523df-34cf-42bb-83ae-9db6e6aed2e8,5,145.8022,147.5509,space,1,0,13,13,20,1,U,space,0.2533,,,,,,,,,,,
,,,,,R_9disKu97sWb6yKy,001,2025-08-27_15h53.20.921,continuous_performance_test,2024.2.4,MacIntel,120.4819277,252523df-34cf-42bb-83ae-9db6e6aed2e8,5,147.552,149.3509,space,1,0,14,14,17,1,R,space,0.3312,,,,,,,,,,,
,,,,,R_9disKu97sWb6yKy,001,2025-08-27_15h53.20.921,continuous_performance_test,2024.2.4,MacIntel,120.4819277,252523df-34cf-42bb-83ae-9db6e6aed2e8,5,149.352,151.0504,space,1,0,15,15,19,1,T,space,0.3727,,,,,,,,,,,
,,,,,R_9disKu97sWb6yKy,001,2025-08-27_15h53.20.921,continuous_performance_test,2024.2.4,MacIntel,120.4819277,252523df-34cf-42bb-83ae-9db6e6aed2e8,5,151.0515,152.6008,space,1,0,16,16,8,1,I,space,0.3876,,,,,,,,,,,
,,,,,R_9disKu97sWb6yKy,001,2025-08-27_15h53.20.921,continuous_performance_test,2024.2.4,MacIntel,120.4819277,252523df-34cf-42bb-83ae-9db6e6aed2e8,5,152.602,154.151,space,1,0,17,17,18,1,S,space,0.4061,,,,,,,,,,,
,,,,,R_9disKu97sWb6yKy,001,2025-08-27_15h53.20.921,continuous_performance_test,2024.2.4,MacIntel,120.4819277,252523df-34cf-42bb-83ae-9db6e6aed2e8,5,154.152,156.001,space,1,0,18,18,22,1,W,space,0.5583,,,,,,,,,,,
,,,,,R_9disKu97sWb6yKy,001,2025-08-27_15h53.20.921,continuous_performance_test,2024.2.4,MacIntel,120.4819277,252523df-34cf-42bb-83ae-9db6e6aed2e8,5,156.0022,157.8003,space,1,0,19,19,7,1,H,space,0.355,,,,,,,,,,,
,,,,,R_9disKu97sWb6yKy,001,2025-08-27_15h53.20.921,continuous_performance_test,2024.2.4,MacIntel,120.4819277,252523df-34cf-42bb-83ae-9db6e6aed2e8,5,157.8012,159.8002,,1,0,20,20,26,1,X,,,,,,,,,,,,,
,,,,,R_9disKu97sWb6yKy,001,2025-08-27_15h53.20.921,continuous_performance_test,2024.2.4,MacIntel,120.4819277,252523df-34cf-42bb-83ae-9db6e6aed2e8,5,159.8009,161.8002,space,0,0,21,21,27,1,X,,0.2825,,,,,,,,,,,
,,,,,R_9disKu97sWb6yKy,001,2025-08-27_15h53.20.921,continuous_performance_test,2024.2.4,MacIntel,120.4819277,252523df-34cf-42bb-83ae-9db6e6aed2e8,5,161.8015,163.4008,space,1,0,22,22,16,1,Q,space,0.359,,,,,,,,,,,
,,,,,R_9disKu97sWb6yKy,001,2025-08-27_15h53.20.921,continuous_performance_test,2024.2.4,MacIntel,120.4819277,252523df-34cf-42bb-83ae-9db6e6aed2e8,5,163.4024,165.1009,,1,0,23,23,28,1,X,,,,,,,,,,,,,
,,,,,R_9disKu97sWb6yKy,001,2025-08-27_15h53.20.921,continuous_performance_test,2024.2.4,MacIntel,120.4819277,252523df-34cf-42bb-83ae-9db6e6aed2e8,5,165.1019,167.1009,space,1,0,24,24,14,1,O,space,0.3398,,,,,,,,,,,
,,,,,R_9disKu97sWb6yKy,001,2025-08-27_15h53.20.921,continuous_performance_test,2024.2.4,MacIntel,120.4819277,252523df-34cf-42bb-83ae-9db6e6aed2e8,5,167.1018,168.7008,space,1,0,25,25,1,1,B,space,0.3772,,,,,,,,,,,
,,,,,R_9disKu97sWb6yKy,001,2025-08-27_15h53.20.921,continuous_performance_test,2024.2.4,MacIntel,120.4819277,252523df-34cf-42bb-83ae-9db6e6aed2e8,5,168.7018,170.6509,space,1,0,26,26,23,1,Y,space,0.303,,,,,,,,,,,
,,,,,R_9disKu97sWb6yKy,001,2025-08-27_15h53.20.921,continuous_performance_test,2024.2.4,MacIntel,120.4819277,252523df-34cf-42bb-83ae-9db6e6aed2e8,5,170.6516,172.6008,space,1,0,27,27,5,1,F,space,0.3733,,,,,,,,,,,
,,,,,R_9disKu97sWb6yKy,001,2025-08-27_15h53.20.921,continuous_performance_test,2024.2.4,MacIntel,120.4819277,252523df-34cf-42bb-83ae-9db6e6aed2e8,5,172.6019,174.3507,space,1,0,28,28,12,1,M,space,0.2562,,,,,,,,,,,
,,,,,R_9disKu97sWb6yKy,001,2025-08-27_15h53.20.921,continuous_performance_test,2024.2.4,MacIntel,120.4819277,252523df-34cf-42bb-83ae-9db6e6aed2e8,5,174.3518,176.2,space,1,0,29,29,0,1,A,space,0.3477,,,,,,,,,,,
,,,,,R_9disKu97sWb6yKy,001,2025-08-27_15h53.20.921,continuous_performance_test,2024.2.4,MacIntel,120.4819277,252523df-34cf-42bb-83ae-9db6e6aed2e8,5,186.0058,187.7508,space,1,0,0,0,21,1,V,space,0.4649,,176.2011,186.0008,space,9.7839,,,,,,
,,,,,R_9disKu97sWb6yKy,001,2025-08-27_15h53.20.921,continuous_performance_test,2024.2.4,MacIntel,120.4819277,252523df-34cf-42bb-83ae-9db6e6aed2e8,5,187.7517,189.7007,space,1,0,1,1,11,1,L,space,0.3827,,,,,,,,,,,
,,,,,R_9disKu97sWb6yKy,001,2025-08-27_15h53.20.921,continuous_performance_test,2024.2.4,MacIntel,120.4819277,252523df-34cf-42bb-83ae-9db6e6aed2e8,5,189.7016,191.4008,space,1,0,2,2,17,1,R,space,0.3399,,,,,,,,,,,
,,,,,R_9disKu97sWb6yKy,001,2025-08-27_15h53.20.921,continuous_performance_test,2024.2.4,MacIntel,120.4819277,252523df-34cf-42bb-83ae-9db6e6aed2e8,5,191.4019,193.0009,space,1,0,3,3,8,1,I,space,0.3158,,,,,,,,,,,
,,,,,R_9disKu97sWb6yKy,001,2025-08-27_15h53.20.921,continuous_performance_test,2024.2.4,MacIntel,120.4819277,252523df-34cf-42bb-83ae-9db6e6aed2e8,5,193.0021,194.6007,space,1,0,4,4,0,1,A,space,0.2869,,,,,,,,,,,
,,,,,R_9disKu97sWb6yKy,001,2025-08-27_15h53.20.921,continuous_performance_test,2024.2.4,MacIntel,120.4819277,252523df-34cf-42bb-83ae-9db6e6aed2e8,5,194.6018,196.6007,,1,0,5,5,27,1,X,,,,,,,,,,,,,
,,,,,R_9disKu97sWb6yKy,001,2025-08-27_15h53.20.921,continuous_performance_test,2024.2.4,MacIntel,120.4819277,252523df-34cf-42bb-83ae-9db6e6aed2e8,5,196.6015,198.4006,space,0,0,6,6,26,1,X,,0.2596,,,,,,,,,,,
,,,,,R_9disKu97sWb6yKy,001,2025-08-27_15h53.20.921,continuous_performance_test,2024.2.4,MacIntel,120.4819277,252523df-34cf-42bb-83ae-9db6e6aed2e8,5,198.4014,200.1497,,1,0,7,7,25,1,X,,,,,,,,,,,,,
,,,,,R_9disKu97sWb6yKy,001,2025-08-27_15h53.20.921,continuous_performance_test,2024.2.4,MacIntel,120.4819277,252523df-34cf-42bb-83ae-9db6e6aed2e8,5,200.1506,201.7009,space,1,0,8,8,20,1,U,space,0.4472,,,,,,,,,,,
,,,,,R_9disKu97sWb6yKy,001,2025-08-27_15h53.20.921,continuous_performance_test,2024.2.4,MacIntel,120.4819277,252523df-34cf-42bb-83ae-9db6e6aed2e8,5,201.7021,203.3507,space,1,0,9,9,3,1,D,space,0.4982,,,,,,,,,,,
,,,,,R_9disKu97sWb6yKy,001,2025-08-27_15h53.20.921,continuous_performance_test,2024.2.4,MacIntel,120.4819277,252523df-34cf-42bb-83ae-9db6e6aed2e8,5,203.3518,205.1509,space,1,0,10,10,13,1,N,space,0.2866,,,,,,,,,,,
,,,,,R_9disKu97sWb6yKy,001,2025-08-27_15h53.20.921,continuous_performance_test,2024.2.4,MacIntel,120.4819277,252523df-34cf-42bb-83ae-9db6e6aed2e8,5,205.1519,206.7497,space,1,0,11,11,18,1,S,space,0.2981,,,,,,,,,,,
,,,,,R_9disKu97sWb6yKy,001,2025-08-27_15h53.20.921,continuous_performance_test,2024.2.4,MacIntel,120.4819277,252523df-34cf-42bb-83ae-9db6e6aed2e8,5,206.7508,208.5504,space,1,0,12,12,4,1,E,space,0.4985,,,,,,,,,,,
,,,,,R_9disKu97sWb6yKy,001,2025-08-27_15h53.20.921,continuous_performance_test,2024.2.4,MacIntel,120.4819277,252523df-34cf-42bb-83ae-9db6e6aed2e8,5,208.5515,210.3505,space,1,0,13,13,5,1,F,space,0.3482,,,,,,,,,,,
,,,,,R_9disKu97sWb6yKy,001,2025-08-27_15h53.20.921,continuous_performance_test,2024.2.4,MacIntel,120.4819277,252523df-34cf-42bb-83ae-9db6e6aed2e8,5,210.3514,212.3507,space,1,0,14,14,16,1,Q,space,0.3639,,,,,,,,,,,
,,,,,R_9disKu97sWb6yKy,001,2025-08-27_15h53.20.921,continuous_performance_test,2024.2.4,MacIntel,120.4819277,252523df-34cf-42bb-83ae-9db6e6aed2e8,5,212.3517,214.0007,space,1,0,15,15,12,1,M,space,0.2909,,,,,,,,,,,
,,,,,R_9disKu97sWb6yKy,001,2025-08-27_15h53.20.921,continuous_performance_test,2024.2.4,MacIntel,120.4819277,252523df-34cf-42bb-83ae-9db6e6aed2e8,5,214.0018,215.9006,space,0,0,16,16,28,1,X,,0.2605,,,,,,,,,,,
,,,,,R_9disKu97sWb6yKy,001,2025-08-27_15h53.20.921,continuous_performance_test,2024.2.4,MacIntel,120.4819277,252523df-34cf-42bb-83ae-9db6e6aed2e8,5,215.9015,217.8002,space,1,0,17,17,9,1,J,space,0.4144,,,,,,,,,,,
,,,,,R_9disKu97sWb6yKy,001,2025-08-27_15h53.20.921,continuous_performance_test,2024.2.4,MacIntel,120.4819277,252523df-34cf-42bb-83ae-9db6e6aed2e8,5,217.8011,219.7957,space,1,0,18,18,14,1,O,space,0.3824,,,,,,,,,,,
,,,,,R_9disKu97sWb6yKy,001,2025-08-27_15h53.20.921,continuous_performance_test,2024.2.4,MacIntel,120.4819277,252523df-34cf-42bb-83ae-9db6e6aed2e8,5,219.7967,221.4964,space,1,0,19,19,10,1,K,space,0.4309,,,,,,,,,,,
,,,,,R_9disKu97sWb6yKy,001,2025-08-27_15h53.20.921,continuous_performance_test,2024.2.4,MacIntel,120.4819277,252523df-34cf-42bb-83ae-9db6e6aed2e8,5,221.4974,223.1965,space,1,0,20,20,24,1,Z,space,0.3638,,,,,,,,,,,
,,,,,R_9disKu97sWb6yKy,001,2025-08-27_15h53.20.921,continuous_performance_test,2024.2.4,MacIntel,120.4819277,252523df-34cf-42bb-83ae-9db6e6aed2e8,5,223.1973,225.1457,space,1,0,21,21,15,1,P,space,0.3474,,,,,,,,,,,
,,,,,R_9disKu97sWb6yKy,001,2025-08-27_15h53.20.921,continuous_performance_test,2024.2.4,MacIntel,120.4819277,252523df-34cf-42bb-83ae-9db6e6aed2e8,5,225.1468,227.0963,space,1,0,22,22,1,1,B,space,0.399,,,,,,,,,,,
,,,,,R_9disKu97sWb6yKy,001,2025-08-27_15h53.20.921,continuous_performance_test,2024.2.4,MacIntel,120.4819277,252523df-34cf-42bb-83ae-9db6e6aed2e8,5,227.0973,229.0964,space,1,0,23,23,22,1,W,space,0.3868,,,,,,,,,,,
,,,,,R_9disKu97sWb6yKy,001,2025-08-27_15h53.20.921,continuous_performance_test,2024.2.4,MacIntel,120.4819277,252523df-34cf-42bb-83ae-9db6e6aed2e8,5,229.0974,230.6463,space,1,0,24,24,19,1,T,space,0.3817,,,,,,,,,,,
,,,,,R_9disKu97sWb6yKy,001,2025-08-27_15h53.20.921,continuous_performance_test,2024.2.4,MacIntel,120.4819277,252523df-34cf-42bb-83ae-9db6e6aed2e8,5,230.6474,232.5461,space,1,0,25,25,23,1,Y,space,0.3134,,,,,,,,,,,
,,,,,R_9disKu97sWb6yKy,001,2025-08-27_15h53.20.921,continuous_performance_test,2024.2.4,MacIntel,120.4819277,252523df-34cf-42bb-83ae-9db6e6aed2e8,5,232.5472,234.0965,space,1,0,26,26,7,1,H,space,0.3616,,,,,,,,,,,
,,,,,R_9disKu97sWb6yKy,001,2025-08-27_15h53.20.921,continuous_performance_test,2024.2.4,MacIntel,120.4819277,252523df-34cf-42bb-83ae-9db6e6aed2e8,5,234.0978,235.7464,space,1,0,27,27,2,1,C,space,0.4562,,,,,,,,,,,
,,,,,R_9disKu97sWb6yKy,001,2025-08-27_15h53.20.921,continuous_performance_test,2024.2.4,MacIntel,120.4819277,252523df-34cf-42bb-83ae-9db6e6aed2e8,5,235.7473,237.5963,space,0,0,28,28,29,1,X,,0.3304,,,,,,,,,,,
,,,,,R_9disKu97sWb6yKy,001,2025-08-27_15h53.20.921,continuous_performance_test,2024.2.4,MacIntel,120.4819277,252523df-34cf-42bb-83ae-9db6e6aed2e8,5,237.5973,239.4458,space,1,0,29,29,6,1,G,space,0.3293,,,,,,,,,,,
,,,,,R_9disKu97sWb6yKy,001,2025-08-27_15h53.20.921,continuous_performance_test,2024.2.4,MacIntel,120.4819277,252523df-34cf-42bb-83ae-9db6e6aed2e8,5,249.035,250.7798,space,1,0,0,0,3,1,D,space,0.3649,,239.447,249.0299,space,9.5744,,,,,,
,,,,,R_9disKu97sWb6yKy,001,2025-08-27_15h53.20.921,continuous_performance_test,2024.2.4,MacIntel,120.4819277,252523df-34cf-42bb-83ae-9db6e6aed2e8,5,250.7809,252.7798,space,1,0,1,1,14,1,O,space,0.3465,,,,,,,,,,,
,,,,,R_9disKu97sWb6yKy,001,2025-08-27_15h53.20.921,continuous_performance_test,2024.2.4,MacIntel,120.4819277,252523df-34cf-42bb-83ae-9db6e6aed2e8,5,252.7811,254.7797,space,1,0,2,2,18,1,S,space,0.3539,,,,,,,,,,,
,,,,,R_9disKu97sWb6yKy,001,2025-08-27_15h53.20.921,continuous_performance_test,2024.2.4,MacIntel,120.4819277,252523df-34cf-42bb-83ae-9db6e6aed2e8,5,254.7808,256.6793,space,1,0,3,3,9,1,J,space,0.3555,,,,,,,,,,,
,,,,,R_9disKu97sWb6yKy,001,2025-08-27_15h53.20.921,continuous_performance_test,2024.2.4,MacIntel,120.4819277,252523df-34cf-42bb-83ae-9db6e6aed2e8,5,256.6803,258.4296,space,1,0,4,4,12,1,M,space,0.3476,,,,,,,,,,,
,,,,,R_9disKu97sWb6yKy,001,2025-08-27_15h53.20.921,continuous_performance_test,2024.2.4,MacIntel,120.4819277,252523df-34cf-42bb-83ae-9db6e6aed2e8,5,258.4307,259.9796,space,1,0,5,5,20,1,U,space,0.4486,,,,,,,,,,,
,,,,,R_9disKu97sWb6yKy,001,2025-08-27_15h53.20.921,continuous_performance_test,2024.2.4,MacIntel,120.4819277,252523df-34cf-42bb-83ae-9db6e6aed2e8,5,259.9806,261.6796,space,1,0,6,6,2,1,C,space,0.5815,,,,,,,,,,,
,,,,,R_9disKu97sWb6yKy,001,2025-08-27_15h53.20.921,continuous_performance_test,2024.2.4,MacIntel,120.4819277,252523df-34cf-42bb-83ae-9db6e6aed2e8,5,261.6806,263.3796,space,1,0,7,7,8,1,I,space,0.3162,,,,,,,,,,,
,,,,,R_9disKu97sWb6yKy,001,2025-08-27_15h53.20.921,continuous_performance_test,2024.2.4,MacIntel,120.4819277,252523df-34cf-42bb-83ae-9db6e6aed2e8,5,263.3804,265.0797,space,1,0,8,8,6,1,G,space,0.3654,,,,,,,,,,,
,,,,,R_9disKu97sWb6yKy,001,2025-08-27_15h53.20.921,continuous_performance_test,2024.2.4,MacIntel,120.4819277,252523df-34cf-42bb-83ae-9db6e6aed2e8,5,265.0809,267.0295,space,1,0,9,9,22,1,W,space,0.4065,,,,,,,,,,,
,,,,,R_9disKu97sWb6yKy,001,2025-08-27_15h53.20.921,continuous_performance_test,2024.2.4,MacIntel,120.4819277,252523df-34cf-42bb-83ae-9db6e6aed2e8,5,267.0306,268.9286,space,1,0,10,10,15,1,P,space,0.4234,,,,,,,,,,,
,,,,,R_9disKu97sWb6yKy,001,2025-08-27_15h53.20.921,continuous_performance_test,2024.2.4,MacIntel,120.4819277,252523df-34cf-42bb-83ae-9db6e6aed2e8,5,268.9297,270.8295,,1,0,11,11,29,1,X,,,,,,,,,,,,,
,,,,,R_9disKu97sWb6yKy,001,2025-08-27_15h53.20.921,continuous_performance_test,2024.2.4,MacIntel,120.4819277,252523df-34cf-42bb-83ae-9db6e6aed2e8,5,270.8305,272.3793,,1,0,12,12,27,1,X,,,,,,,,,,,,,
,,,,,R_9disKu97sWb6yKy,001,2025-08-27_15h53.20.921,continuous_performance_test,2024.2.4,MacIntel,120.4819277,252523df-34cf-42bb-83ae-9db6e6aed2e8,5,272.3803,274.3287,space,1,0,13,13,4,1,E,space,0.395,,,,,,,,,,,
,,,,,R_9disKu97sWb6yKy,001,2025-08-27_15h53.20.921,continuous_performance_test,2024.2.4,MacIntel,120.4819277,252523df-34cf-42bb-83ae-9db6e6aed2e8,5,274.3297,276.0296,space,1,0,14,14,1,1,B,space,0.3562,,,,,,,,,,,
,,,,,R_9disKu97sWb6yKy,001,2025-08-27_15h53.20.921,continuous_performance_test,2024.2.4,MacIntel,120.4819277,252523df-34cf-42bb-83ae-9db6e6aed2e8,5,276.0308,277.8295,,1,0,15,15,26,1,X,,,,,,,,,,,,,
,,,,,R_9disKu97sWb6yKy,001,2025-08-27_15h53.20.921,continuous_performance_test,2024.2.4,MacIntel,120.4819277,252523df-34cf-42bb-83ae-9db6e6aed2e8,5,277.8304,279.5792,space,1,0,16,16,19,1,T,space,0.3028,,,,,,,,,,,
,,,,,R_9disKu97sWb6yKy,001,2025-08-27_15h53.20.921,continuous_performance_test,2024.2.4,MacIntel,120.4819277,252523df-34cf-42bb-83ae-9db6e6aed2e8,5,279.5803,281.1794,,1,0,17,17,28,1,X,,,,,,,,,,,,,
,,,,,R_9disKu97sWb6yKy,001,2025-08-27_15h53.20.921,continuous_performance_test,2024.2.4,MacIntel,120.4819277,252523df-34cf-42bb-83ae-9db6e6aed2e8,5,281.1806,282.9795,space,1,0,18,18,7,1,H,space,0.3846,,,,,,,,,,,
,,,,,R_9disKu97sWb6yKy,001,2025-08-27_15h53.20.921,continuous_performance_test,2024.2.4,MacIntel,120.4819277,252523df-34cf-42bb-83ae-9db6e6aed2e8,5,282.9807,284.7795,space,0,0,19,19,25,1,X,,0.3826,,,,,,,,,,,
,,,,,R_9disKu97sWb6yKy,001,2025-08-27_15h53.20.921,continuous_performance_test,2024.2.4,MacIntel,120.4819277,252523df-34cf-42bb-83ae-9db6e6aed2e8,5,284.7804,286.5797,space,1,0,20,20,16,1,Q,space,0.5065,,,,,,,,,,,
,,,,,R_9disKu97sWb6yKy,001,2025-08-27_15h53.20.921,continuous_performance_test,2024.2.4,MacIntel,120.4819277,252523df-34cf-42bb-83ae-9db6e6aed2e8,5,286.5807,288.1291,space,1,0,21,21,24,1,Z,space,0.3981,,,,,,,,,,,
,,,,,R_9disKu97sWb6yKy,001,2025-08-27_15h53.20.921,continuous_performance_test,2024.2.4,MacIntel,120.4819277,252523df-34cf-42bb-83ae-9db6e6aed2e8,5,288.1302,289.7295,space,1,0,22,22,0,1,A,space,0.4303,,,,,,,,,,,
,,,,,R_9disKu97sWb6yKy,001,2025-08-27_15h53.20.921,continuous_performance_test,2024.2.4,MacIntel,120.4819277,252523df-34cf-42bb-83ae-9db6e6aed2e8,5,289.7306,291.5295,space,1,0,23,23,17,1,R,space,0.3557,,,,,,,,,,,
,,,,,R_9disKu97sWb6yKy,001,2025-08-27_15h53.20.921,continuous_performance_test,2024.2.4,MacIntel,120.4819277,252523df-34cf-42bb-83ae-9db6e6aed2e8,5,291.5305,293.4294,space,1,0,24,24,23,1,Y,space,0.348,,,,,,,,,,,
,,,,,R_9disKu97sWb6yKy,001,2025-08-27_15h53.20.921,continuous_performance_test,2024.2.4,MacIntel,120.4819277,252523df-34cf-42bb-83ae-9db6e6aed2e8,5,293.4307,295.3794,space,1,0,25,25,5,1,F,space,0.3904,,,,,,,,,,,
,,,,,R_9disKu97sWb6yKy,001,2025-08-27_15h53.20.921,continuous_performance_test,2024.2.4,MacIntel,120.4819277,252523df-34cf-42bb-83ae-9db6e6aed2e8,5,295.3804,297.3294,space,1,0,26,26,10,1,K,space,0.3586,,,,,,,,,,,
,,,,,R_9disKu97sWb6yKy,001,2025-08-27_15h53.20.921,continuous_performance_test,2024.2.4,MacIntel,120.4819277,252523df-34cf-42bb-83ae-9db6e6aed2e8,5,297.3306,299.3285,space,1,0,27,27,21,1,V,space,0.2972,,,,,,,,,,,
,,,,,R_9disKu97sWb6yKy,001,2025-08-27_15h53.20.921,continuous_performance_test,2024.2.4,MacIntel,120.4819277,252523df-34cf-42bb-83ae-9db6e6aed2e8,5,299.3295,301.1794,space,1,0,28,28,11,1,L,space,0.3811,,,,,,,,,,,
,,,,,R_9disKu97sWb6yKy,001,2025-08-27_15h53.20.921,continuous_performance_test,2024.2.4,MacIntel,120.4819277,252523df-34cf-42bb-83ae-9db6e6aed2e8,5,301.1804,302.8294,space,1,0,29,29,13,1,N,space,0.5152,,,,,,,,,,,
,,,,,R_9disKu97sWb6yKy,001,2025-08-27_15h53.20.921,continuous_performance_test,2024.2.4,MacIntel,120.4819277,252523df-34cf-42bb-83ae-9db6e6aed2e8,5,307.4508,309.096,space,1,0,0,0,7,1,H,space,0.4647,,302.8306,307.4455,space,4.6014,,,,,,
,,,,,R_9disKu97sWb6yKy,001,2025-08-27_15h53.20.921,continuous_performance_test,2024.2.4,MacIntel,120.4819277,252523df-34cf-42bb-83ae-9db6e6aed2e8,5,309.0971,310.9961,space,1,0,1,1,8,1,I,space,0.416,,,,,,,,,,,
,,,,,R_9disKu97sWb6yKy,001,2025-08-27_15h53.20.921,continuous_performance_test,2024.2.4,MacIntel,120.4819277,252523df-34cf-42bb-83ae-9db6e6aed2e8,5,310.9969,312.696,space,1,0,2,2,17,1,R,space,0.3218,,,,,,,,,,,
,,,,,R_9disKu97sWb6yKy,001,2025-08-27_15h53.20.921,continuous_performance_test,2024.2.4,MacIntel,120.4819277,252523df-34cf-42bb-83ae-9db6e6aed2e8,5,312.6969,314.2961,space,1,0,3,3,5,1,F,space,0.3728,,,,,,,,,,,
,,,,,R_9disKu97sWb6yKy,001,2025-08-27_15h53.20.921,continuous_performance_test,2024.2.4,MacIntel,120.4819277,252523df-34cf-42bb-83ae-9db6e6aed2e8,5,314.2971,315.846,space,1,0,4,4,14,1,O,space,0.3656,,,,,,,,,,,
,,,,,R_9disKu97sWb6yKy,001,2025-08-27_15h53.20.921,continuous_performance_test,2024.2.4,MacIntel,120.4819277,252523df-34cf-42bb-83ae-9db6e6aed2e8,5,315.847,317.646,space,1,0,5,5,19,1,T,space,0.3349,,,,,,,,,,,
,,,,,R_9disKu97sWb6yKy,001,2025-08-27_15h53.20.921,continuous_performance_test,2024.2.4,MacIntel,120.4819277,252523df-34cf-42bb-83ae-9db6e6aed2e8,5,317.647,319.396,,1,0,6,6,28,1,X,,,,,,,,,,,,,
,,,,,R_9disKu97sWb6yKy,001,2025-08-27_15h53.20.921,continuous_performance_test,2024.2.4,MacIntel,120.4819277,252523df-34cf-42bb-83ae-9db6e6aed2e8,5,319.3969,321.0961,,1,0,7,7,27,1,X,,,,,,,,,,,,,
,,,,,R_9disKu97sWb6yKy,001,2025-08-27_15h53.20.921,continuous_performance_test,2024.2.4,MacIntel,120.4819277,252523df-34cf-42bb-83ae-9db6e6aed2e8,5,321.0972,322.846,,1,0,8,8,29,1,X,,,,,,,,,,,,,
,,,,,R_9disKu97sWb6yKy,001,2025-08-27_15h53.20.921,continuous_performance_test,2024.2.4,MacIntel,120.4819277,252523df-34cf-42bb-83ae-9db6e6aed2e8,5,322.8472,324.6959,space,1,0,9,9,16,1,Q,space,0.3946,,,,,,,,,,,
,,,,,R_9disKu97sWb6yKy,001,2025-08-27_15h53.20.921,continuous_performance_test,2024.2.4,MacIntel,120.4819277,252523df-34cf-42bb-83ae-9db6e6aed2e8,5,324.6971,326.346,space,1,0,10,10,0,1,A,space,0.3976,,,,,,,,,,,
,,,,,R_9disKu97sWb6yKy,001,2025-08-27_15h53.20.921,continuous_performance_test,2024.2.4,MacIntel,120.4819277,252523df-34cf-42bb-83ae-9db6e6aed2e8,5,326.3473,328.346,space,1,0,11,11,11,1,L,space,0.3475,,,,,,,,,,,
,,,,,R_9disKu97sWb6yKy,001,2025-08-27_15h53.20.921,continuous_performance_test,2024.2.4,MacIntel,120.4819277,252523df-34cf-42bb-83ae-9db6e6aed2e8,5,328.3471,330.2451,space,1,0,12,12,6,1,G,space,0.3977,,,,,,,,,,,
,,,,,R_9disKu97sWb6yKy,001,2025-08-27_15h53.20.921,continuous_performance_test,2024.2.4,MacIntel,120.4819277,252523df-34cf-42bb-83ae-9db6e6aed2e8,5,330.2463,332.096,space,0,0,13,13,26,1,X,,0.3816,,,,,,,,,,,
,,,,,R_9disKu97sWb6yKy,001,2025-08-27_15h53.20.921,continuous_performance_test,2024.2.4,MacIntel,120.4819277,252523df-34cf-42bb-83ae-9db6e6aed2e8,5,332.0969,333.696,space,1,0,14,14,13,1,N,space,0.3571,,,,,,,,,,,
,,,,,R_9disKu97sWb6yKy,001,2025-08-27_15h53.20.921,continuous_performance_test,2024.2.4,MacIntel,120.4819277,252523df-34cf-42bb-83ae-9db6e6aed2e8,5,333.6971,335.4458,space,1,0,15,15,24,1,Z,space,0.5391,,,,,,,,,,,
,,,,,R_9disKu97sWb6yKy,001,2025-08-27_15h53.20.921,continuous_performance_test,2024.2.4,MacIntel,120.4819277,252523df-34cf-42bb-83ae-9db6e6aed2e8,5,335.447,336.996,space,1,0,16,16,12,1,M,space,0.4566,,,,,,,,,,,
,,,,,R_9disKu97sWb6yKy,001,2025-08-27_15h53.20.921,continuous_performance_test,2024.2.4,MacIntel,120.4819277,252523df-34cf-42bb-83ae-9db6e6aed2e8,5,336.9971,338.6459,space,1,0,17,17,18,1,S,space,0.4156,,,,,,,,,,,
,,,,,R_9disKu97sWb6yKy,001,2025-08-27_15h53.20.921,continuous_performance_test,2024.2.4,MacIntel,120.4819277,252523df-34cf-42bb-83ae-9db6e6aed2e8,5,338.6473,340.596,,1,0,18,18,25,1,X,,,,,,,,,,,,,
,,,,,R_9disKu97sWb6yKy,001,2025-08-27_15h53.20.921,continuous_performance_test,2024.2.4,MacIntel,120.4819277,252523df-34cf-42bb-83ae-9db6e6aed2e8,5,340.5972,342.196,space,1,0,19,19,1,1,B,space,0.4206,,,,,,,,,,,
,,,,,R_9disKu97sWb6yKy,001,2025-08-27_15h53.20.921,continuous_performance_test,2024.2.4,MacIntel,120.4819277,252523df-34cf-42bb-83ae-9db6e6aed2e8,5,342.1971,344.1959,space,1,0,20,20,10,1,K,space,0.2908,,,,,,,,,,,
,,,,,R_9disKu97sWb6yKy,001,2025-08-27_15h53.20.921,continuous_performance_test,2024.2.4,MacIntel,120.4819277,252523df-34cf-42bb-83ae-9db6e6aed2e8,5,344.1971,346.0958,space,1,0,21,21,21,1,V,space,0.3903,,,,,,,,,,,
,,,,,R_9disKu97sWb6yKy,001,2025-08-27_15h53.20.921,continuous_performance_test,2024.2.4,MacIntel,120.4819277,252523df-34cf-42bb-83ae-9db6e6aed2e8,5,346.0968,347.9458,space,1,0,22,22,9,1,J,space,0.7896,,,,,,,,,,,
,,,,,R_9disKu97sWb6yKy,001,2025-08-27_15h53.20.921,continuous_performance_test,2024.2.4,MacIntel,120.4819277,252523df-34cf-42bb-83ae-9db6e6aed2e8,5,347.9465,349.5453,space,1,0,23,23,22,1,W,space,0.464,,,,,,,,,,,
,,,,,R_9disKu97sWb6yKy,001,2025-08-27_15h53.20.921,continuous_performance_test,2024.2.4,MacIntel,120.4819277,252523df-34cf-42bb-83ae-9db6e6aed2e8,5,349.5463,351.196,space,1,0,24,24,23,1,Y,space,0.3813,,,,,,,,,,,
,,,,,R_9disKu97sWb6yKy,001,2025-08-27_15h53.20.921,continuous_performance_test,2024.2.4,MacIntel,120.4819277,252523df-34cf-42bb-83ae-9db6e6aed2e8,5,351.1972,352.8958,space,1,0,25,25,2,1,C,space,0.3972,,,,,,,,,,,
,,,,,R_9disKu97sWb6yKy,001,2025-08-27_15h53.20.921,continuous_performance_test,2024.2.4,MacIntel,120.4819277,252523df-34cf-42bb-83ae-9db6e6aed2e8,5,352.8967,354.8458,space,1,0,26,26,3,1,D,space,0.3974,,,,,,,,,,,
,,,,,R_9disKu97sWb6yKy,001,2025-08-27_15h53.20.921,continuous_performance_test,2024.2.4,MacIntel,120.4819277,252523df-34cf-42bb-83ae-9db6e6aed2e8,5,354.8466,356.6458,space,1,0,27,27,4,1,E,space,0.4123,,,,,,,,,,,
,,,,,R_9disKu97sWb6yKy,001,2025-08-27_15h53.20.921,continuous_performance_test,2024.2.4,MacIntel,120.4819277,252523df-34cf-42bb-83ae-9db6e6aed2e8,5,356.6468,358.2458,space,1,0,28,28,20,1,U,space,0.3894,,,,,,,,,,,
,,,,,R_9disKu97sWb6yKy,001,2025-08-27_15h53.20.921,continuous_performance_test,2024.2.4,MacIntel,120.4819277,252523df-34cf-42bb-83ae-9db6e6aed2e8,5,358.2469,360.1457,space,1,0,29,29,15,1,P,space,0.587,,,,,,,,,,,
,,,,,R_9disKu97sWb6yKy,001,2025-08-27_15h53.20.921,continuous_performance_test,2024.2.4,MacIntel,120.4819277,252523df-34cf-42bb-83ae-9db6e6aed2e8,5,363.8508,365.6457,space,0,0,0,0,26,1,X,,0.3952,,360.1465,363.8455,space,3.6839,,,,,,
,,,,,R_9disKu97sWb6yKy,001,2025-08-27_15h53.20.921,continuous_performance_test,2024.2.4,MacIntel,120.4819277,252523df-34cf-42bb-83ae-9db6e6aed2e8,5,365.6467,367.3957,space,1,0,1,1,20,1,U,space,0.2567,,,,,,,,,,,
,,,,,R_9disKu97sWb6yKy,001,2025-08-27_15h53.20.921,continuous_performance_test,2024.2.4,MacIntel,120.4819277,252523df-34cf-42bb-83ae-9db6e6aed2e8,5,367.3968,368.9453,space,1,0,2,2,12,1,M,space,0.3069,,,,,,,,,,,
,,,,,R_9disKu97sWb6yKy,001,2025-08-27_15h53.20.921,continuous_performance_test,2024.2.4,MacIntel,120.4819277,252523df-34cf-42bb-83ae-9db6e6aed2e8,5,368.946,370.4958,space,1,0,3,3,17,1,R,space,0.2827,,,,,,,,,,,
,,,,,R_9disKu97sWb6yKy,001,2025-08-27_15h53.20.921,continuous_performance_test,2024.2.4,MacIntel,120.4819277,252523df-34cf-42bb-83ae-9db6e6aed2e8,5,370.4968,372.1958,space,1,0,4,4,15,1,P,space,0.2884,,,,,,,,,,,
,,,,,R_9disKu97sWb6yKy,001,2025-08-27_15h53.20.921,continuous_performance_test,2024.2.4,MacIntel,120.4819277,252523df-34cf-42bb-83ae-9db6e6aed2e8,5,372.1968,374.0949,space,1,0,5,5,14,1,O,space,0.2864,,,,,,,,,,,
,,,,,R_9disKu97sWb6yKy,001,2025-08-27_15h53.20.921,continuous_performance_test,2024.2.4,MacIntel,120.4819277,252523df-34cf-42bb-83ae-9db6e6aed2e8,5,374.0961,375.6959,,1,0,6,6,29,1,X,,,,,,,,,,,,,
,,,,,R_9disKu97sWb6yKy,001,2025-08-27_15h53.20.921,continuous_performance_test,2024.2.4,MacIntel,120.4819277,252523df-34cf-42bb-83ae-9db6e6aed2e8,5,375.6967,377.6459,,1,0,7,7,27,1,X,,,,,,,,,,,,,
,,,,,R_9disKu97sWb6yKy,001,2025-08-27_15h53.20.921,continuous_performance_test,2024.2.4,MacIntel,120.4819277,252523df-34cf-42bb-83ae-9db6e6aed2e8,5,377.6469,379.6457,space,1,0,8,8,18,1,S,space,0.4737,,,,,,,,,,,
,,,,,R_9disKu97sWb6yKy,001,2025-08-27_15h53.20.921,continuous_performance_test,2024.2.4,MacIntel,120.4819277,252523df-34cf-42bb-83ae-9db6e6aed2e8,5,379.6469,381.2958,,1,0,9,9,25,1,X,,,,,,,,,,,,,
,,,,,R_9disKu97sWb6yKy,001,2025-08-27_15h53.20.921,continuous_performance_test,2024.2.4,MacIntel,120.4819277,252523df-34cf-42bb-83ae-9db6e6aed2e8,5,381.2968,383.1959,space,1,0,10,10,3,1,D,space,0.34,,,,,,,,,,,
,,,,,R_9disKu97sWb6yKy,001,2025-08-27_15h53.20.921,continuous_performance_test,2024.2.4,MacIntel,120.4819277,252523df-34cf-42bb-83ae-9db6e6aed2e8,5,383.1969,384.9457,space,1,0,11,11,7,1,H,space,0.35,,,,,,,,,,,
,,,,,R_9disKu97sWb6yKy,001,2025-08-27_15h53.20.921,continuous_performance_test,2024.2.4,MacIntel,120.4819277,252523df-34cf-42bb-83ae-9db6e6aed2e8,5,384.9466,386.8954,space,1,0,12,12,24,1,Z,space,0.3495,,,,,,,,,,,
,,,,,R_9disKu97sWb6yKy,001,2025-08-27_15h53.20.921,continuous_performance_test,2024.2.4,MacIntel,120.4819277,252523df-34cf-42bb-83ae-9db6e6aed2e8,5,386.8962,388.6456,space,1,0,13,13,1,1,B,space,0.3342,,,,,,,,,,,
,,,,,R_9disKu97sWb6yKy,001,2025-08-27_15h53.20.921,continuous_performance_test,2024.2.4,MacIntel,120.4819277,252523df-34cf-42bb-83ae-9db6e6aed2e8,5,388.6467,390.5957,space,1,0,14,14,22,1,W,space,0.3007,,,,,,,,,,,
,,,,,R_9disKu97sWb6yKy,001,2025-08-27_15h53.20.921,continuous_performance_test,2024.2.4,MacIntel,120.4819277,252523df-34cf-42bb-83ae-9db6e6aed2e8,5,390.5967,392.2957,space,1,0,15,15,21,1,V,space,0.2981,,,,,,,,,,,
,,,,,R_9disKu97sWb6yKy,001,2025-08-27_15h53.20.921,continuous_performance_test,2024.2.4,MacIntel,120.4819277,252523df-34cf-42bb-83ae-9db6e6aed2e8,5,392.2969,394.2957,space,1,0,16,16,19,1,T,space,0.2667,,,,,,,,,,,
,,,,,R_9disKu97sWb6yKy,001,2025-08-27_15h53.20.921,continuous_performance_test,2024.2.4,MacIntel,120.4819277,252523df-34cf-42bb-83ae-9db6e6aed2e8,5,394.297,396.1949,space,1,0,17,17,0,1,A,space,0.3113,,,,,,,,,,,
,,,,,R_9disKu97sWb6yKy,001,2025-08-27_15h53.20.921,continuous_performance_test,2024.2.4,MacIntel,120.4819277,252523df-34cf-42bb-83ae-9db6e6aed2e8,5,396.1959,398.0457,space,1,0,18,18,11,1,L,space,0.3073,,,,,,,,,,,
,,,,,R_9disKu97sWb6yKy,001,2025-08-27_15h53.20.921,continuous_performance_test,2024.2.4,MacIntel,120.4819277,252523df-34cf-42bb-83ae-9db6e6aed2e8,5,398.047,399.9951,space,1,0,19,19,4,1,E,space,0.2831,,,,,,,,,,,
,,,,,R_9disKu97sWb6yKy,001,2025-08-27_15h53.20.921,continuous_performance_test,2024.2.4,MacIntel,120.4819277,252523df-34cf-42bb-83ae-9db6e6aed2e8,5,399.996,401.9449,space,0,0,20,20,28,1,X,,0.3311,,,,,,,,,,,
,,,,,R_9disKu97sWb6yKy,001,2025-08-27_15h53.20.921,continuous_performance_test,2024.2.4,MacIntel,120.4819277,252523df-34cf-42bb-83ae-9db6e6aed2e8,5,401.9457,403.7957,space,1,0,21,21,2,1,C,space,0.3895,,,,,,,,,,,
,,,,,R_9disKu97sWb6yKy,001,2025-08-27_15h53.20.921,continuous_performance_test,2024.2.4,MacIntel,120.4819277,252523df-34cf-42bb-83ae-9db6e6aed2e8,5,403.7968,405.4949,space,1,0,22,22,6,1,G,space,0.3526,,,,,,,,,,,
,,,,,R_9disKu97sWb6yKy,001,2025-08-27_15h53.20.921,continuous_performance_test,2024.2.4,MacIntel,120.4819277,252523df-34cf-42bb-83ae-9db6e6aed2e8,5,405.4958,407.1456,space,1,0,23,23,5,1,F,space,0.3807,,,,,,,,,,,
,,,,,R_9disKu97sWb6yKy,001,2025-08-27_15h53.20.921,continuous_performance_test,2024.2.4,MacIntel,120.4819277,252523df-34cf-42bb-83ae-9db6e6aed2e8,5,407.1464,408.8457,space,1,0,24,24,10,1,K,space,0.3028,,,,,,,,,,,
,,,,,R_9disKu97sWb6yKy,001,2025-08-27_15h53.20.921,continuous_performance_test,2024.2.4,MacIntel,120.4819277,252523df-34cf-42bb-83ae-9db6e6aed2e8,5,408.8468,410.6946,space,1,0,25,25,8,1,I,space,0.409,,,,,,,,,,,
,,,,,R_9disKu97sWb6yKy,001,2025-08-27_15h53.20.921,continuous_performance_test,2024.2.4,MacIntel,120.4819277,252523df-34cf-42bb-83ae-9db6e6aed2e8,5,410.6959,412.5956,space,1,0,26,26,16,1,Q,space,0.4064,,,,,,,,,,,
,,,,,R_9disKu97sWb6yKy,001,2025-08-27_15h53.20.921,continuous_performance_test,2024.2.4,MacIntel,120.4819277,252523df-34cf-42bb-83ae-9db6e6aed2e8,5,412.5966,414.5956,space,1,0,27,27,9,1,J,space,0.42,,,,,,,,,,,
,,,,,R_9disKu97sWb6yKy,001,2025-08-27_15h53.20.921,continuous_performance_test,2024.2.4,MacIntel,120.4819277,252523df-34cf-42bb-83ae-9db6e6aed2e8,5,414.5966,416.3456,space,1,0,28,28,13,1,N,space,0.3396,,,,,,,,,,,
,,,,,R_9disKu97sWb6yKy,001,2025-08-27_15h53.20.921,continuous_performance_test,2024.2.4,MacIntel,120.4819277,252523df-34cf-42bb-83ae-9db6e6aed2e8,5,416.3468,418.1457,space,1,0,29,29,23,1,Y,space,0.3891,,,,,,,,,,,
,,,,,R_9disKu97sWb6yKy,001,2025-08-27_15h53.20.921,continuous_performance_test,2024.2.4,MacIntel,120.4819277,252523df-34cf-42bb-83ae-9db6e6aed2e8,5,425.2005,427.0953,space,1,0,0,0,0,1,A,space,0.3734,,418.1468,425.1958,space,7.0315,,,,,,
,,,,,R_9disKu97sWb6yKy,001,2025-08-27_15h53.20.921,continuous_performance_test,2024.2.4,MacIntel,120.4819277,252523df-34cf-42bb-83ae-9db6e6aed2e8,5,427.0966,428.9454,space,1,0,1,1,10,1,K,space,0.3543,,,,,,,,,,,
,,,,,R_9disKu97sWb6yKy,001,2025-08-27_15h53.20.921,continuous_performance_test,2024.2.4,MacIntel,120.4819277,252523df-34cf-42bb-83ae-9db6e6aed2e8,5,428.9461,430.5955,space,1,0,2,2,16,1,Q,space,0.3154,,,,,,,,,,,
,,,,,R_9disKu97sWb6yKy,001,2025-08-27_15h53.20.921,continuous_performance_test,2024.2.4,MacIntel,120.4819277,252523df-34cf-42bb-83ae-9db6e6aed2e8,5,430.5964,432.4453,space,1,0,3,3,22,1,W,space,0.3218,,,,,,,,,,,
,,,,,R_9disKu97sWb6yKy,001,2025-08-27_15h53.20.921,continuous_performance_test,2024.2.4,MacIntel,120.4819277,252523df-34cf-42bb-83ae-9db6e6aed2e8,5,432.4462,434.0955,space,1,0,4,4,15,1,P,space,0.32,,,,,,,,,,,
,,,,,R_9disKu97sWb6yKy,001,2025-08-27_15h53.20.921,continuous_performance_test,2024.2.4,MacIntel,120.4819277,252523df-34cf-42bb-83ae-9db6e6aed2e8,5,434.0967,435.8946,space,1,0,5,5,9,1,J,space,0.3065,,,,,,,,,,,
,,,,,R_9disKu97sWb6yKy,001,2025-08-27_15h53.20.921,continuous_performance_test,2024.2.4,MacIntel,120.4819277,252523df-34cf-42bb-83ae-9db6e6aed2e8,5,435.8955,437.6953,space,1,0,6,6,24,1,Z,space,0.3498,,,,,,,,,,,
,,,,,R_9disKu97sWb6yKy,001,2025-08-27_15h53.20.921,continuous_performance_test,2024.2.4,MacIntel,120.4819277,252523df-34cf-42bb-83ae-9db6e6aed2e8,5,437.6963,439.6454,space,1,0,7,7,1,1,B,space,0.3176,,,,,,,,,,,
,,,,,R_9disKu97sWb6yKy,001,2025-08-27_15h53.20.921,continuous_performance_test,2024.2.4,MacIntel,120.4819277,252523df-34cf-42bb-83ae-9db6e6aed2e8,5,439.6466,441.3954,space,1,0,8,8,20,1,U,space,0.3389,,,,,,,,,,,
,,,,,R_9disKu97sWb6yKy,001,2025-08-27_15h53.20.921,continuous_performance_test,2024.2.4,MacIntel,120.4819277,252523df-34cf-42bb-83ae-9db6e6aed2e8,5,441.3964,442.9912,space,1,0,9,9,21,1,V,space,0.3366,,,,,,,,,,,
,,,,,R_9disKu97sWb6yKy,001,2025-08-27_15h53.20.921,continuous_performance_test,2024.2.4,MacIntel,120.4819277,252523df-34cf-42bb-83ae-9db6e6aed2e8,5,442.9923,444.9413,space,1,0,10,10,11,1,L,space,0.373,,,,,,,,,,,
,,,,,R_9disKu97sWb6yKy,001,2025-08-27_15h53.20.921,continuous_performance_test,2024.2.4,MacIntel,120.4819277,252523df-34cf-42bb-83ae-9db6e6aed2e8,5,444.9423,446.7365,space,1,0,11,11,4,1,E,space,0.7156,,,,,,,,,,,
,,,,,R_9disKu97sWb6yKy,001,2025-08-27_15h53.20.921,continuous_performance_test,2024.2.4,MacIntel,120.4819277,252523df-34cf-42bb-83ae-9db6e6aed2e8,5,446.7375,448.2871,,1,0,12,12,28,1,X,,,,,,,,,,,,,
,,,,,R_9disKu97sWb6yKy,001,2025-08-27_15h53.20.921,continuous_performance_test,2024.2.4,MacIntel,120.4819277,252523df-34cf-42bb-83ae-9db6e6aed2e8,5,448.2881,450.237,space,1,0,13,13,12,1,M,space,0.4234,,,,,,,,,,,
,,,,,R_9disKu97sWb6yKy,001,2025-08-27_15h53.20.921,continuous_performance_test,2024.2.4,MacIntel,120.4819277,252523df-34cf-42bb-83ae-9db6e6aed2e8,5,450.2381,451.7872,space,1,0,14,14,6,1,G,space,0.4185,,,,,,,,,,,
,,,,,R_9disKu97sWb6yKy,001,2025-08-27_15h53.20.921,continuous_performance_test,2024.2.4,MacIntel,120.4819277,252523df-34cf-42bb-83ae-9db6e6aed2e8,5,451.7883,453.687,space,1,0,15,15,19,1,T,space,0.3321,,,,,,,,,,,
,,,,,R_9disKu97sWb6yKy,001,2025-08-27_15h53.20.921,continuous_performance_test,2024.2.4,MacIntel,120.4819277,252523df-34cf-42bb-83ae-9db6e6aed2e8,5,453.6879,455.6864,space,1,0,16,16,5,1,F,space,0.3434,,,,,,,,,,,
,,,,,R_9disKu97sWb6yKy,001,2025-08-27_15h53.20.921,continuous_performance_test,2024.2.4,MacIntel,120.4819277,252523df-34cf-42bb-83ae-9db6e6aed2e8,5,455.6874,457.6871,space,1,0,17,17,3,1,D,space,0.34,,,,,,,,,,,
,,,,,R_9disKu97sWb6yKy,001,2025-08-27_15h53.20.921,continuous_performance_test,2024.2.4,MacIntel,120.4819277,252523df-34cf-42bb-83ae-9db6e6aed2e8,5,457.6881,459.287,space,1,0,18,18,8,1,I,space,0.3654,,,,,,,,,,,
,,,,,R_9disKu97sWb6yKy,001,2025-08-27_15h53.20.921,continuous_performance_test,2024.2.4,MacIntel,120.4819277,252523df-34cf-42bb-83ae-9db6e6aed2e8,5,459.2879,460.987,,1,0,19,19,25,1,X,,,,,,,,,,,,,
,,,,,R_9disKu97sWb6yKy,001,2025-08-27_15h53.20.921,continuous_performance_test,2024.2.4,MacIntel,120.4819277,252523df-34cf-42bb-83ae-9db6e6aed2e8,5,460.9881,462.636,space,1,0,20,20,23,1,Y,space,0.3797,,,,,,,,,,,
,,,,,R_9disKu97sWb6yKy,001,2025-08-27_15h53.20.921,continuous_performance_test,2024.2.4,MacIntel,120.4819277,252523df-34cf-42bb-83ae-9db6e6aed2e8,5,462.6371,464.5867,space,1,0,21,21,17,1,R,space,0.3646,,,,,,,,,,,
,,,,,R_9disKu97sWb6yKy,001,2025-08-27_15h53.20.921,continuous_performance_test,2024.2.4,MacIntel,120.4819277,252523df-34cf-42bb-83ae-9db6e6aed2e8,5,464.5877,466.2361,space,1,0,22,22,13,1,N,space,0.4111,,,,,,,,,,,
,,,,,R_9disKu97sWb6yKy,001,2025-08-27_15h53.20.921,continuous_performance_test,2024.2.4,MacIntel,120.4819277,252523df-34cf-42bb-83ae-9db6e6aed2e8,5,466.237,468.1368,,1,0,23,23,29,1,X,,,,,,,,,,,,,
,,,,,R_9disKu97sWb6yKy,001,2025-08-27_15h53.20.921,continuous_performance_test,2024.2.4,MacIntel,120.4819277,252523df-34cf-42bb-83ae-9db6e6aed2e8,5,468.1378,469.8869,space,1,0,24,24,7,1,H,space,0.542,,,,,,,,,,,
,,,,,R_9disKu97sWb6yKy,001,2025-08-27_15h53.20.921,continuous_performance_test,2024.2.4,MacIntel,120.4819277,252523df-34cf-42bb-83ae-9db6e6aed2e8,5,469.8877,471.687,space,1,0,25,25,18,1,S,space,0.3776,,,,,,,,,,,
,,,,,R_9disKu97sWb6yKy,001,2025-08-27_15h53.20.921,continuous_performance_test,2024.2.4,MacIntel,120.4819277,252523df-34cf-42bb-83ae-9db6e6aed2e8,5,471.6885,473.637,space,1,0,26,26,2,1,C,space,0.381,,,,,,,,,,,
,,,,,R_9disKu97sWb6yKy,001,2025-08-27_15h53.20.921,continuous_performance_test,2024.2.4,MacIntel,120.4819277,252523df-34cf-42bb-83ae-9db6e6aed2e8,5,473.6381,475.287,,1,0,27,27,26,1,X,,,,,,,,,,,,,
,,,,,R_9disKu97sWb6yKy,001,2025-08-27_15h53.20.921,continuous_performance_test,2024.2.4,MacIntel,120.4819277,252523df-34cf-42bb-83ae-9db6e6aed2e8,5,475.2881,476.8869,space,1,0,28,28,14,1,O,space,0.2614,,,,,,,,,,,
,,,,,R_9disKu97sWb6yKy,001,2025-08-27_15h53.20.921,continuous_performance_test,2024.2.4,MacIntel,120.4819277,252523df-34cf-42bb-83ae-9db6e6aed2e8,5,476.8878,478.687,space,0,0,29,29,27,1,X,,0.3026,,,,,,,,,,,
,,,,,R_9disKu97sWb6yKy,001,2025-08-27_15h53.20.921,continuous_performance_test,2024.2.4,MacIntel,120.4819277,252523df-34cf-42bb-83ae-9db6e6aed2e8,5,480.0838,481.8786,space,1,0,0,0,18,1,S,space,0.373,,478.6881,480.0788,space,1.3761,,,,,,
,,,,,R_9disKu97sWb6yKy,001,2025-08-27_15h53.20.921,continuous_performance_test,2024.2.4,MacIntel,120.4819277,252523df-34cf-42bb-83ae-9db6e6aed2e8,5,481.8797,483.8286,space,1,0,1,1,14,1,O,space,0.2813,,,,,,,,,,,
,,,,,R_9disKu97sWb6yKy,001,2025-08-27_15h53.20.921,continuous_performance_test,2024.2.4,MacIntel,120.4819277,252523df-34cf-42bb-83ae-9db6e6aed2e8,5,483.8295,485.4785,space,1,0,2,2,9,1,J,space,0.2808,,,,,,,,,,,
,,,,,R_9disKu97sWb6yKy,001,2025-08-27_15h53.20.921,continuous_performance_test,2024.2.4,MacIntel,120.4819277,252523df-34cf-42bb-83ae-9db6e6aed2e8,5,485.4798,487.2285,space,1,0,3,3,0,1,A,space,0.2737,,,,,,,,,,,
,,,,,R_9disKu97sWb6yKy,001,2025-08-27_15h53.20.921,continuous_performance_test,2024.2.4,MacIntel,120.4819277,252523df-34cf-42bb-83ae-9db6e6aed2e8,5,487.2295,488.9785,space,1,0,4,4,24,1,Z,space,0.2608,,,,,,,,,,,
,,,,,R_9disKu97sWb6yKy,001,2025-08-27_15h53.20.921,continuous_performance_test,2024.2.4,MacIntel,120.4819277,252523df-34cf-42bb-83ae-9db6e6aed2e8,5,488.9796,490.8277,space,1,0,5,5,22,1,W,space,0.2724,,,,,,,,,,,
,,,,,R_9disKu97sWb6yKy,001,2025-08-27_15h53.20.921,continuous_performance_test,2024.2.4,MacIntel,120.4819277,252523df-34cf-42bb-83ae-9db6e6aed2e8,5,490.8288,492.6285,space,0,0,6,6,26,1,X,,0.2507,,,,,,,,,,,
,,,,,R_9disKu97sWb6yKy,001,2025-08-27_15h53.20.921,continuous_performance_test,2024.2.4,MacIntel,120.4819277,252523df-34cf-42bb-83ae-9db6e6aed2e8,5,492.6296,494.3276,space,1,0,7,7,11,1,L,space,0.2223,,,,,,,,,,,
,,,,,R_9disKu97sWb6yKy,001,2025-08-27_15h53.20.921,continuous_performance_test,2024.2.4,MacIntel,120.4819277,252523df-34cf-42bb-83ae-9db6e6aed2e8,5,494.3286,495.9776,space,1,0,8,8,10,1,K,space,0.4161,,,,,,,,,,,
,,,,,R_9disKu97sWb6yKy,001,2025-08-27_15h53.20.921,continuous_performance_test,2024.2.4,MacIntel,120.4819277,252523df-34cf-42bb-83ae-9db6e6aed2e8,5,495.9783,497.6286,space,1,0,9,9,2,1,C,space,0.2401,,,,,,,,,,,
,,,,,R_9disKu97sWb6yKy,001,2025-08-27_15h53.20.921,continuous_performance_test,2024.2.4,MacIntel,120.4819277,252523df-34cf-42bb-83ae-9db6e6aed2e8,5,497.6298,499.2785,space,0,0,10,10,27,1,X,,0.2982,,,,,,,,,,,
,,,,,R_9disKu97sWb6yKy,001,2025-08-27_15h53.20.921,continuous_performance_test,2024.2.4,MacIntel,120.4819277,252523df-34cf-42bb-83ae-9db6e6aed2e8,5,499.2795,500.8285,space,1,0,11,11,20,1,U,space,0.2314,,,,,,,,,,,
,,,,,R_9disKu97sWb6yKy,001,2025-08-27_15h53.20.921,continuous_performance_test,2024.2.4,MacIntel,120.4819277,252523df-34cf-42bb-83ae-9db6e6aed2e8,5,500.8295,502.5281,space,1,0,12,12,23,1,Y,space,0.2891,,,,,,,,,,,
,,,,,R_9disKu97sWb6yKy,001,2025-08-27_15h53.20.921,continuous_performance_test,2024.2.4,MacIntel,120.4819277,252523df-34cf-42bb-83ae-9db6e6aed2e8,5,502.529,504.4785,space,1,0,13,13,4,1,E,space,0.3284,,,,,,,,,,,
,,,,,R_9disKu97sWb6yKy,001,2025-08-27_15h53.20.921,continuous_performance_test,2024.2.4,MacIntel,120.4819277,252523df-34cf-42bb-83ae-9db6e6aed2e8,5,504.4795,506.0779,space,1,0,14,14,8,1,I,space,0.2775,,,,,,,,,,,
,,,,,R_9disKu97sWb6yKy,001,2025-08-27_15h53.20.921,continuous_performance_test,2024.2.4,MacIntel,120.4819277,252523df-34cf-42bb-83ae-9db6e6aed2e8,5,506.0789,507.8783,space,1,0,15,15,15,1,P,space,0.4035,,,,,,,,,,,
,,,,,R_9disKu97sWb6yKy,001,2025-08-27_15h53.20.921,continuous_performance_test,2024.2.4,MacIntel,120.4819277,252523df-34cf-42bb-83ae-9db6e6aed2e8,5,507.8792,509.5287,space,1,0,16,16,16,1,Q,space,0.4099,,,,,,,,,,,
,,,,,R_9disKu97sWb6yKy,001,2025-08-27_15h53.20.921,continuous_performance_test,2024.2.4,MacIntel,120.4819277,252523df-34cf-42bb-83ae-9db6e6aed2e8,5,509.5298,511.5285,space,1,0,17,17,5,1,F,space,0.3976,,,,,,,,,,,
,,,,,R_9disKu97sWb6yKy,001,2025-08-27_15h53.20.921,continuous_performance_test,2024.2.4,MacIntel,120.4819277,252523df-34cf-42bb-83ae-9db6e6aed2e8,5,511.5296,513.0784,space,1,0,18,18,21,1,V,space,0.332,,,,,,,,,,,
,,,,,R_9disKu97sWb6yKy,001,2025-08-27_15h53.20.921,continuous_performance_test,2024.2.4,MacIntel,120.4819277,252523df-34cf-42bb-83ae-9db6e6aed2e8,5,513.0795,514.7782,space,1,0,19,19,19,1,T,space,0.3807,,,,,,,,,,,
,,,,,R_9disKu97sWb6yKy,001,2025-08-27_15h53.20.921,continuous_performance_test,2024.2.4,MacIntel,120.4819277,252523df-34cf-42bb-83ae-9db6e6aed2e8,5,514.7794,516.3286,space,1,0,20,20,3,1,D,space,0.2884,,,,,,,,,,,
,,,,,R_9disKu97sWb6yKy,001,2025-08-27_15h53.20.921,continuous_performance_test,2024.2.4,MacIntel,120.4819277,252523df-34cf-42bb-83ae-9db6e6aed2e8,5,516.3295,518.2784,space,1,0,21,21,7,1,H,space,0.3224,,,,,,,,,,,
,,,,,R_9disKu97sWb6yKy,001,2025-08-27_15h53.20.921,continuous_performance_test,2024.2.4,MacIntel,120.4819277,252523df-34cf-42bb-83ae-9db6e6aed2e8,5,518.2794,519.878,space,1,0,22,22,12,1,M,space,0.2595,,,,,,,,,,,
,,,,,R_9disKu97sWb6yKy,001,2025-08-27_15h53.20.921,continuous_performance_test,2024.2.4,MacIntel,120.4819277,252523df-34cf-42bb-83ae-9db6e6aed2e8,5,519.8793,521.6285,space,0,0,23,23,28,1,X,,0.2718,,,,,,,,,,,
,,,,,R_9disKu97sWb6yKy,001,2025-08-27_15h53.20.921,continuous_performance_test,2024.2.4,MacIntel,120.4819277,252523df-34cf-42bb-83ae-9db6e6aed2e8,5,521.6295,523.2784,space,0,0,24,24,25,1,X,,0.2427,,,,,,,,,,,
,,,,,R_9disKu97sWb6yKy,001,2025-08-27_15h53.20.921,continuous_performance_test,2024.2.4,MacIntel,120.4819277,252523df-34cf-42bb-83ae-9db6e6aed2e8,5,523.2792,525.2784,,1,0,25,25,29,1,X,,,,,,,,,,,,,
,,,,,R_9disKu97sWb6yKy,001,2025-08-27_15h53.20.921,continuous_performance_test,2024.2.4,MacIntel,120.4819277,252523df-34cf-42bb-83ae-9db6e6aed2e8,5,525.2792,527.0775,space,1,0,26,26,6,1,G,space,0.2641,,,,,,,,,,,
,,,,,R_9disKu97sWb6yKy,001,2025-08-27_15h53.20.921,continuous_performance_test,2024.2.4,MacIntel,120.4819277,252523df-34cf-42bb-83ae-9db6e6aed2e8,5,527.0784,528.7785,space,1,0,27,27,1,1,B,space,0.2639,,,,,,,,,,,
,,,,,R_9disKu97sWb6yKy,001,2025-08-27_15h53.20.921,continuous_performance_test,2024.2.4,MacIntel,120.4819277,252523df-34cf-42bb-83ae-9db6e6aed2e8,5,528.78,530.6285,space,1,0,28,28,13,1,N,space,0.2556,,,,,,,,,,,
,,,,,R_9disKu97sWb6yKy,001,2025-08-27_15h53.20.921,continuous_performance_test,2024.2.4,MacIntel,120.4819277,252523df-34cf-42bb-83ae-9db6e6aed2e8,5,530.6294,532.6283,space,1,0,29,29,17,1,R,space,0.265,,,,,,,,,,,
,,,,,R_9disKu97sWb6yKy,001,2025-08-27_15h53.20.921,continuous_performance_test,2024.2.4,MacIntel,120.4819277,252523df-34cf-42bb-83ae-9db6e6aed2e8,5,538.5417,540.1363,space,1,0,0,0,11,1,L,space,0.4216,,532.6292,538.5367,space,5.8931,,,,,,
,,,,,R_9disKu97sWb6yKy,001,2025-08-27_15h53.20.921,continuous_performance_test,2024.2.4,MacIntel,120.4819277,252523df-34cf-42bb-83ae-9db6e6aed2e8,5,540.1372,542.1367,space,1,0,1,1,4,1,E,space,0.2815,,,,,,,,,,,
,,,,,R_9disKu97sWb6yKy,001,2025-08-27_15h53.20.921,continuous_performance_test,2024.2.4,MacIntel,120.4819277,252523df-34cf-42bb-83ae-9db6e6aed2e8,5,542.1375,543.8361,space,1,0,2,2,23,1,Y,space,0.3054,,,,,,,,,,,
,,,,,R_9disKu97sWb6yKy,001,2025-08-27_15h53.20.921,continuous_performance_test,2024.2.4,MacIntel,120.4819277,252523df-34cf-42bb-83ae-9db6e6aed2e8,5,543.837,545.6366,space,1,0,3,3,16,1,Q,space,0.323,,,,,,,,,,,
,,,,,R_9disKu97sWb6yKy,001,2025-08-27_15h53.20.921,continuous_performance_test,2024.2.4,MacIntel,120.4819277,252523df-34cf-42bb-83ae-9db6e6aed2e8,5,545.6374,547.3368,space,1,0,4,4,19,1,T,space,0.2977,,,,,,,,,,,
,,,,,R_9disKu97sWb6yKy,001,2025-08-27_15h53.20.921,continuous_performance_test,2024.2.4,MacIntel,120.4819277,252523df-34cf-42bb-83ae-9db6e6aed2e8,5,547.3376,548.9866,space,1,0,5,5,21,1,V,space,0.3473,,,,,,,,,,,
,,,,,R_9disKu97sWb6yKy,001,2025-08-27_15h53.20.921,continuous_performance_test,2024.2.4,MacIntel,120.4819277,252523df-34cf-42bb-83ae-9db6e6aed2e8,5,548.9874,550.6866,space,1,0,6,6,17,1,R,space,0.2979,,,,,,,,,,,
,,,,,R_9disKu97sWb6yKy,001,2025-08-27_15h53.20.921,continuous_performance_test,2024.2.4,MacIntel,120.4819277,252523df-34cf-42bb-83ae-9db6e6aed2e8,5,550.6874,552.5867,,1,0,7,7,27,1,X,,,,,,,,,,,,,
,,,,,R_9disKu97sWb6yKy,001,2025-08-27_15h53.20.921,continuous_performance_test,2024.2.4,MacIntel,120.4819277,252523df-34cf-42bb-83ae-9db6e6aed2e8,5,552.5875,554.3866,space,1,0,8,8,22,1,W,space,0.2836,,,,,,,,,,,
,,,,,R_9disKu97sWb6yKy,001,2025-08-27_15h53.20.921,continuous_performance_test,2024.2.4,MacIntel,120.4819277,252523df-34cf-42bb-83ae-9db6e6aed2e8,5,554.3875,556.0363,space,0,0,9,9,25,1,X,,0.2965,,,,,,,,,,,
,,,,,R_9disKu97sWb6yKy,001,2025-08-27_15h53.20.921,continuous_performance_test,2024.2.4,MacIntel,120.4819277,252523df-34cf-42bb-83ae-9db6e6aed2e8,5,556.0372,557.786,space,1,0,10,10,15,1,P,space,0.2459,,,,,,,,,,,
,,,,,R_9disKu97sWb6yKy,001,2025-08-27_15h53.20.921,continuous_performance_test,2024.2.4,MacIntel,120.4819277,252523df-34cf-42bb-83ae-9db6e6aed2e8,5,557.7867,559.4362,space,1,0,11,11,8,1,I,space,0.3314,,,,,,,,,,,
,,,,,R_9disKu97sWb6yKy,001,2025-08-27_15h53.20.921,continuous_performance_test,2024.2.4,MacIntel,120.4819277,252523df-34cf-42bb-83ae-9db6e6aed2e8,5,559.4372,561.1866,space,1,0,12,12,3,1,D,space,0.3146,,,,,,,,,,,
,,,,,R_9disKu97sWb6yKy,001,2025-08-27_15h53.20.921,continuous_performance_test,2024.2.4,MacIntel,120.4819277,252523df-34cf-42bb-83ae-9db6e6aed2e8,5,561.1873,563.0866,space,1,0,13,13,5,1,F,space,0.2714,,,,,,,,,,,
,,,,,R_9disKu97sWb6yKy,001,2025-08-27_15h53.20.921,continuous_performance_test,2024.2.4,MacIntel,120.4819277,252523df-34cf-42bb-83ae-9db6e6aed2e8,5,563.0875,564.686,space,1,0,14,14,7,1,H,space,0.2467,,,,,,,,,,,
,,,,,R_9disKu97sWb6yKy,001,2025-08-27_15h53.20.921,continuous_performance_test,2024.2.4,MacIntel,120.4819277,252523df-34cf-42bb-83ae-9db6e6aed2e8,5,564.6869,566.3868,space,1,0,15,15,0,1,A,space,0.2718,,,,,,,,,,,
,,,,,R_9disKu97sWb6yKy,001,2025-08-27_15h53.20.921,continuous_performance_test,2024.2.4,MacIntel,120.4819277,252523df-34cf-42bb-83ae-9db6e6aed2e8,5,566.3875,568.1858,,0,0,16,16,9,1,J,space,,,,,,,,,,,,
,,,,,R_9disKu97sWb6yKy,001,2025-08-27_15h53.20.921,continuous_performance_test,2024.2.4,MacIntel,120.4819277,252523df-34cf-42bb-83ae-9db6e6aed2e8,5,568.1866,570.0867,space,1,0,17,17,18,1,S,space,0.2824,,,,,,,,,,,
,,,,,R_9disKu97sWb6yKy,001,2025-08-27_15h53.20.921,continuous_performance_test,2024.2.4,MacIntel,120.4819277,252523df-34cf-42bb-83ae-9db6e6aed2e8,5,570.0875,571.6866,space,0,0,18,18,28,1,X,,0.3137,,,,,,,,,,,
,,,,,R_9disKu97sWb6yKy,001,2025-08-27_15h53.20.921,continuous_performance_test,2024.2.4,MacIntel,120.4819277,252523df-34cf-42bb-83ae-9db6e6aed2e8,5,571.6876,573.3865,space,1,0,19,19,14,1,O,space,0.2738,,,,,,,,,,,
,,,,,R_9disKu97sWb6yKy,001,2025-08-27_15h53.20.921,continuous_performance_test,2024.2.4,MacIntel,120.4819277,252523df-34cf-42bb-83ae-9db6e6aed2e8,5,573.3873,575.0362,space,1,0,20,20,2,1,C,space,0.2763,,,,,,,,,,,
,,,,,R_9disKu97sWb6yKy,001,2025-08-27_15h53.20.921,continuous_performance_test,2024.2.4,MacIntel,120.4819277,252523df-34cf-42bb-83ae-9db6e6aed2e8,5,575.0369,576.8365,space,1,0,21,21,20,1,U,space,0.2762,,,,,,,,,,,
,,,,,R_9disKu97sWb6yKy,001,2025-08-27_15h53.20.921,continuous_performance_test,2024.2.4,MacIntel,120.4819277,252523df-34cf-42bb-83ae-9db6e6aed2e8,5,576.8372,578.3857,space,1,0,22,22,10,1,K,space,0.3481,,,,,,,,,,,
,,,,,R_9disKu97sWb6yKy,001,2025-08-27_15h53.20.921,continuous_performance_test,2024.2.4,MacIntel,120.4819277,252523df-34cf-42bb-83ae-9db6e6aed2e8,5,578.3866,579.9862,space,1,0,23,23,24,1,Z,space,0.6308,,,,,,,,,,,
,,,,,R_9disKu97sWb6yKy,001,2025-08-27_15h53.20.921,continuous_performance_test,2024.2.4,MacIntel,120.4819277,252523df-34cf-42bb-83ae-9db6e6aed2e8,5,579.987,581.8863,space,1,0,24,24,1,1,B,space,0.3858,,,,,,,,,,,
,,,,,R_9disKu97sWb6yKy,001,2025-08-27_15h53.20.921,continuous_performance_test,2024.2.4,MacIntel,120.4819277,252523df-34cf-42bb-83ae-9db6e6aed2e8,5,581.8872,583.8365,space,1,0,25,25,13,1,N,space,0.3156,,,,,,,,,,,
,,,,,R_9disKu97sWb6yKy,001,2025-08-27_15h53.20.921,continuous_performance_test,2024.2.4,MacIntel,120.4819277,252523df-34cf-42bb-83ae-9db6e6aed2e8,5,583.8373,585.6364,space,1,0,26,26,12,1,M,space,0.3097,,,,,,,,,,,
,,,,,R_9disKu97sWb6yKy,001,2025-08-27_15h53.20.921,continuous_performance_test,2024.2.4,MacIntel,120.4819277,252523df-34cf-42bb-83ae-9db6e6aed2e8,5,585.6372,587.5864,,1,0,27,27,26,1,X,,,,,,,,,,,,,
,,,,,R_9disKu97sWb6yKy,001,2025-08-27_15h53.20.921,continuous_performance_test,2024.2.4,MacIntel,120.4819277,252523df-34cf-42bb-83ae-9db6e6aed2e8,5,587.5871,589.1865,space,1,0,28,28,6,1,G,space,0.2852,,,,,,,,,,,
,,,,,R_9disKu97sWb6yKy,001,2025-08-27_15h53.20.921,continuous_performance_test,2024.2.4,MacIntel,120.4819277,252523df-34cf-42bb-83ae-9db6e6aed2e8,5,589.1875,591.0866,space,0,0,29,29,29,1,X,,0.307,,,,,,,,,,,
,,,,,R_9disKu97sWb6yKy,001,2025-08-27_15h53.20.921,continuous_performance_test,2024.2.4,MacIntel,120.4819277,252523df-34cf-42bb-83ae-9db6e6aed2e8,5,,,,,,,,,,,,,,591.0874,591.0879,,,,591.0883,599.1037,space,8.0053,
