Instructions.started,Instructions.stopped,key_resp.keys,key_resp.rt,key_resp.duration,participant,session,date,expName,psychopyVersion,OS,frameRate,Trial_noX.started,Trial_noX.stopped,response.keys,response.corr,trials_noX.thisRepN,trials_noX.thisTrialN,trials_noX.thisN,trials_noX.thisIndex,trials_noX.ran,letter,corrAns,response.rt,response.duration,BlockBreak.started,BlockBreak.stopped,key_instruct.keys,key_instruct.rt,key_instruct.duration,End_NoX.started,End_NoX.stopped,key_resp_end_noX.keys,key_resp_end_noX.rt,key_resp_end_noX.duration
0.0004,31.2359,space,31.1781,,R_9DYDk9iFYbXY8m1,001,2025-08-01_11h25.34.970,continuous_performance_test,2024.2.4,Win32,59.17159763,,,,,,,,,,,,,,,,,,,,,,,
,,,,,R_9DYDk9iFYbXY8m1,001,2025-08-01_11h25.34.970,continuous_performance_test,2024.2.4,Win32,59.17159763,31.2723,32.8188,,1,0,0,0,26,1,X,,,,,,,,,,,,,
,,,,,R_9DYDk9iFYbXY8m1,001,2025-08-01_11h25.34.970,continuous_performance_test,2024.2.4,Win32,59.17159763,32.8228,34.6687,,0,0,1,1,23,1,Y,space,,,,,,,,,,,,
,,,,,R_9DYDk9iFYbXY8m1,001,2025-08-01_11h25.34.970,continuous_performance_test,2024.2.4,Win32,59.17159763,34.6721,36.2179,,0,0,2,2,20,1,U,space,,,,,,,,,,,,
,,,,,R_9DYDk9iFYbXY8m1,001,2025-08-01_11h25.34.970,continuous_performance_test,2024.2.4,Win32,59.17159763,36.2204,37.9185,space,1,0,3,3,19,1,T,space,0.9467,,,,,,,,,,,
,,,,,R_9DYDk9iFYbXY8m1,001,2025-08-01_11h25.34.970,continuous_performance_test,2024.2.4,Win32,59.17159763,37.9224,39.9241,space,1,0,4,4,4,1,E,space,0.6999,,,,,,,,,,,
,,,,,R_9DYDk9iFYbXY8m1,001,2025-08-01_11h25.34.970,continuous_performance_test,2024.2.4,Win32,59.17159763,39.9272,41.4685,space,1,0,5,5,7,1,H,space,0.4655,,,,,,,,,,,
,,,,,R_9DYDk9iFYbXY8m1,001,2025-08-01_11h25.34.970,continuous_performance_test,2024.2.4,Win32,59.17159763,41.4716,43.0687,space,1,0,6,6,9,1,J,space,0.4358,,,,,,,,,,,
,,,,,R_9DYDk9iFYbXY8m1,001,2025-08-01_11h25.34.970,continuous_performance_test,2024.2.4,Win32,59.17159763,43.0736,44.9684,space,1,0,7,7,13,1,N,space,0.4013,,,,,,,,,,,
,,,,,R_9DYDk9iFYbXY8m1,001,2025-08-01_11h25.34.970,continuous_performance_test,2024.2.4,Win32,59.17159763,44.973,46.6183,space,1,0,8,8,14,1,O,space,0.2891,,,,,,,,,,,
,,,,,R_9DYDk9iFYbXY8m1,001,2025-08-01_11h25.34.970,continuous_performance_test,2024.2.4,Win32,59.17159763,46.6213,48.5183,space,1,0,9,9,3,1,D,space,0.3022,,,,,,,,,,,
,,,,,R_9DYDk9iFYbXY8m1,001,2025-08-01_11h25.34.970,continuous_performance_test,2024.2.4,Win32,59.17159763,48.5218,50.1684,space,1,0,10,10,21,1,V,space,0.3343,,,,,,,,,,,
,,,,,R_9DYDk9iFYbXY8m1,001,2025-08-01_11h25.34.970,continuous_performance_test,2024.2.4,Win32,59.17159763,50.1721,51.7686,space,1,0,11,11,0,1,A,space,0.3706,,,,,,,,,,,
,,,,,R_9DYDk9iFYbXY8m1,001,2025-08-01_11h25.34.970,continuous_performance_test,2024.2.4,Win32,59.17159763,51.7715,53.6683,space,0,0,12,12,29,1,X,,0.3508,,,,,,,,,,,
,,,,,R_9DYDk9iFYbXY8m1,001,2025-08-01_11h25.34.970,continuous_performance_test,2024.2.4,Win32,59.17159763,53.6721,55.5182,,0,0,13,13,6,1,G,space,,,,,,,,,,,,
,,,,,R_9DYDk9iFYbXY8m1,001,2025-08-01_11h25.34.970,continuous_performance_test,2024.2.4,Win32,59.17159763,55.5211,57.4184,space,0,0,14,14,28,1,X,,0.2373,,,,,,,,,,,
,,,,,R_9DYDk9iFYbXY8m1,001,2025-08-01_11h25.34.970,continuous_performance_test,2024.2.4,Win32,59.17159763,57.4223,59.3684,space,1,0,15,15,16,1,Q,space,0.4808,,,,,,,,,,,
,,,,,R_9DYDk9iFYbXY8m1,001,2025-08-01_11h25.34.970,continuous_performance_test,2024.2.4,Win32,59.17159763,59.3733,61.018,,0,0,16,16,18,1,S,space,,,,,,,,,,,,
,,,,,R_9DYDk9iFYbXY8m1,001,2025-08-01_11h25.34.970,continuous_performance_test,2024.2.4,Win32,59.17159763,61.0219,63.0182,space,1,0,17,17,8,1,I,space,0.3013,,,,,,,,,,,
,,,,,R_9DYDk9iFYbXY8m1,001,2025-08-01_11h25.34.970,continuous_performance_test,2024.2.4,Win32,59.17159763,63.0216,64.8178,space,1,0,18,18,12,1,M,space,0.439,,,,,,,,,,,
,,,,,R_9DYDk9iFYbXY8m1,001,2025-08-01_11h25.34.970,continuous_performance_test,2024.2.4,Win32,59.17159763,64.8211,66.7181,space,1,0,19,19,11,1,L,space,0.2194,,,,,,,,,,,
,,,,,R_9DYDk9iFYbXY8m1,001,2025-08-01_11h25.34.970,continuous_performance_test,2024.2.4,Win32,59.17159763,66.722,68.6683,space,1,0,20,20,22,1,W,space,0.2881,,,,,,,,,,,
,,,,,R_9DYDk9iFYbXY8m1,001,2025-08-01_11h25.34.970,continuous_performance_test,2024.2.4,Win32,59.17159763,68.6721,70.668,space,1,0,21,21,15,1,P,space,0.2851,,,,,,,,,,,
,,,,,R_9DYDk9iFYbXY8m1,001,2025-08-01_11h25.34.970,continuous_performance_test,2024.2.4,Win32,59.17159763,70.6715,72.4183,space,1,0,22,22,2,1,C,space,0.2847,,,,,,,,,,,
,,,,,R_9DYDk9iFYbXY8m1,001,2025-08-01_11h25.34.970,continuous_performance_test,2024.2.4,Win32,59.17159763,72.4224,74.1182,space,1,0,23,23,1,1,B,space,0.3011,,,,,,,,,,,
,,,,,R_9DYDk9iFYbXY8m1,001,2025-08-01_11h25.34.970,continuous_performance_test,2024.2.4,Win32,59.17159763,74.122,75.768,space,1,0,24,24,5,1,F,space,0.2675,,,,,,,,,,,
,,,,,R_9DYDk9iFYbXY8m1,001,2025-08-01_11h25.34.970,continuous_performance_test,2024.2.4,Win32,59.17159763,75.772,77.5181,space,1,0,25,25,24,1,Z,space,0.2737,,,,,,,,,,,
,,,,,R_9DYDk9iFYbXY8m1,001,2025-08-01_11h25.34.970,continuous_performance_test,2024.2.4,Win32,59.17159763,77.5222,79.5182,space,1,0,26,26,10,1,K,space,0.3203,,,,,,,,,,,
,,,,,R_9DYDk9iFYbXY8m1,001,2025-08-01_11h25.34.970,continuous_performance_test,2024.2.4,Win32,59.17159763,79.5212,81.1682,space,0,0,27,27,25,1,X,,0.2514,,,,,,,,,,,
,,,,,R_9DYDk9iFYbXY8m1,001,2025-08-01_11h25.34.970,continuous_performance_test,2024.2.4,Win32,59.17159763,81.1706,82.918,space,0,0,28,28,27,1,X,,0.3188,,,,,,,,,,,
,,,,,R_9DYDk9iFYbXY8m1,001,2025-08-01_11h25.34.970,continuous_performance_test,2024.2.4,Win32,59.17159763,82.9226,84.8728,space,1,0,29,29,17,1,R,space,0.3849,,,,,,,,,,,
,,,,,R_9DYDk9iFYbXY8m1,001,2025-08-01_11h25.34.970,continuous_performance_test,2024.2.4,Win32,59.17159763,92.2683,93.8678,space,1,0,0,0,23,1,Y,space,0.4378,,84.8745,92.2518,space,7.3551,,,,,,
,,,,,R_9DYDk9iFYbXY8m1,001,2025-08-01_11h25.34.970,continuous_performance_test,2024.2.4,Win32,59.17159763,93.871,95.5679,space,0,0,1,1,27,1,X,,0.353,,,,,,,,,,,
,,,,,R_9DYDk9iFYbXY8m1,001,2025-08-01_11h25.34.970,continuous_performance_test,2024.2.4,Win32,59.17159763,95.571,97.3682,space,1,0,2,2,18,1,S,space,0.367,,,,,,,,,,,
,,,,,R_9DYDk9iFYbXY8m1,001,2025-08-01_11h25.34.970,continuous_performance_test,2024.2.4,Win32,59.17159763,97.3717,99.1179,space,1,0,3,3,0,1,A,space,0.3518,,,,,,,,,,,
,,,,,R_9DYDk9iFYbXY8m1,001,2025-08-01_11h25.34.970,continuous_performance_test,2024.2.4,Win32,59.17159763,99.1211,100.7679,space,1,0,4,4,14,1,O,space,0.3554,,,,,,,,,,,
,,,,,R_9DYDk9iFYbXY8m1,001,2025-08-01_11h25.34.970,continuous_performance_test,2024.2.4,Win32,59.17159763,100.7711,102.668,space,1,0,5,5,22,1,W,space,0.3711,,,,,,,,,,,
,,,,,R_9DYDk9iFYbXY8m1,001,2025-08-01_11h25.34.970,continuous_performance_test,2024.2.4,Win32,59.17159763,102.671,104.6601,space,1,0,6,6,19,1,T,space,0.3812,,,,,,,,,,,
,,,,,R_9DYDk9iFYbXY8m1,001,2025-08-01_11h25.34.970,continuous_performance_test,2024.2.4,Win32,59.17159763,104.663,106.4506,space,0,0,7,7,25,1,X,,0.3025,,,,,,,,,,,
,,,,,R_9DYDk9iFYbXY8m1,001,2025-08-01_11h25.34.970,continuous_performance_test,2024.2.4,Win32,59.17159763,106.4528,108.2512,space,1,0,8,8,3,1,D,space,0.4689,,,,,,,,,,,
,,,,,R_9DYDk9iFYbXY8m1,001,2025-08-01_11h25.34.970,continuous_performance_test,2024.2.4,Win32,59.17159763,108.2551,109.8511,space,1,0,9,9,6,1,G,space,0.3553,,,,,,,,,,,
,,,,,R_9DYDk9iFYbXY8m1,001,2025-08-01_11h25.34.970,continuous_performance_test,2024.2.4,Win32,59.17159763,109.8554,111.401,,1,0,10,10,26,1,X,,,,,,,,,,,,,
,,,,,R_9DYDk9iFYbXY8m1,001,2025-08-01_11h25.34.970,continuous_performance_test,2024.2.4,Win32,59.17159763,111.4036,113.2013,space,1,0,11,11,8,1,I,space,0.3126,,,,,,,,,,,
,,,,,R_9DYDk9iFYbXY8m1,001,2025-08-01_11h25.34.970,continuous_performance_test,2024.2.4,Win32,59.17159763,113.2046,114.9511,,1,0,12,12,28,1,X,,,,,,,,,,,,,
,,,,,R_9DYDk9iFYbXY8m1,001,2025-08-01_11h25.34.970,continuous_performance_test,2024.2.4,Win32,59.17159763,114.9543,116.901,space,1,0,13,13,15,1,P,space,0.3578,,,,,,,,,,,
,,,,,R_9DYDk9iFYbXY8m1,001,2025-08-01_11h25.34.970,continuous_performance_test,2024.2.4,Win32,59.17159763,116.9041,118.651,space,1,0,14,14,5,1,F,space,0.3703,,,,,,,,,,,
,,,,,R_9DYDk9iFYbXY8m1,001,2025-08-01_11h25.34.970,continuous_performance_test,2024.2.4,Win32,59.17159763,118.6539,120.501,space,1,0,15,15,21,1,V,space,0.355,,,,,,,,,,,
,,,,,R_9DYDk9iFYbXY8m1,001,2025-08-01_11h25.34.970,continuous_performance_test,2024.2.4,Win32,59.17159763,120.5045,122.1011,space,1,0,16,16,1,1,B,space,0.385,,,,,,,,,,,
,,,,,R_9DYDk9iFYbXY8m1,001,2025-08-01_11h25.34.970,continuous_performance_test,2024.2.4,Win32,59.17159763,122.1044,123.9505,space,1,0,17,17,13,1,N,space,0.3341,,,,,,,,,,,
,,,,,R_9DYDk9iFYbXY8m1,001,2025-08-01_11h25.34.970,continuous_performance_test,2024.2.4,Win32,59.17159763,123.9533,125.7009,space,1,0,18,18,24,1,Z,space,0.4679,,,,,,,,,,,
,,,,,R_9DYDk9iFYbXY8m1,001,2025-08-01_11h25.34.970,continuous_performance_test,2024.2.4,Win32,59.17159763,125.7036,127.3009,space,1,0,19,19,12,1,M,space,0.4248,,,,,,,,,,,
,,,,,R_9DYDk9iFYbXY8m1,001,2025-08-01_11h25.34.970,continuous_performance_test,2024.2.4,Win32,59.17159763,127.3039,129.1006,space,1,0,20,20,9,1,J,space,0.3529,,,,,,,,,,,
,,,,,R_9DYDk9iFYbXY8m1,001,2025-08-01_11h25.34.970,continuous_performance_test,2024.2.4,Win32,59.17159763,129.1032,130.801,space,1,0,21,21,4,1,E,space,0.3514,,,,,,,,,,,
,,,,,R_9DYDk9iFYbXY8m1,001,2025-08-01_11h25.34.970,continuous_performance_test,2024.2.4,Win32,59.17159763,130.8038,132.3506,space,1,0,22,22,11,1,L,space,0.4535,,,,,,,,,,,
,,,,,R_9DYDk9iFYbXY8m1,001,2025-08-01_11h25.34.970,continuous_performance_test,2024.2.4,Win32,59.17159763,132.3537,134.301,space,1,0,23,23,10,1,K,space,0.3214,,,,,,,,,,,
,,,,,R_9DYDk9iFYbXY8m1,001,2025-08-01_11h25.34.970,continuous_performance_test,2024.2.4,Win32,59.17159763,134.3046,136.0007,space,1,0,24,24,20,1,U,space,0.436,,,,,,,,,,,
,,,,,R_9DYDk9iFYbXY8m1,001,2025-08-01_11h25.34.970,continuous_performance_test,2024.2.4,Win32,59.17159763,136.0048,137.9007,space,1,0,25,25,17,1,R,space,0.3607,,,,,,,,,,,
,,,,,R_9DYDk9iFYbXY8m1,001,2025-08-01_11h25.34.970,continuous_performance_test,2024.2.4,Win32,59.17159763,137.9038,139.9005,space,1,0,26,26,7,1,H,space,0.3014,,,,,,,,,,,
,,,,,R_9DYDk9iFYbXY8m1,001,2025-08-01_11h25.34.970,continuous_performance_test,2024.2.4,Win32,59.17159763,139.9034,141.501,space,1,0,27,27,2,1,C,space,0.3577,,,,,,,,,,,
,,,,,R_9DYDk9iFYbXY8m1,001,2025-08-01_11h25.34.970,continuous_performance_test,2024.2.4,Win32,59.17159763,141.5038,143.5093,,1,0,28,28,29,1,X,,,,,,,,,,,,,
,,,,,R_9DYDk9iFYbXY8m1,001,2025-08-01_11h25.34.970,continuous_performance_test,2024.2.4,Win32,59.17159763,143.5127,145.3011,space,1,0,29,29,16,1,Q,space,0.2848,,,,,,,,,,,
,,,,,R_9DYDk9iFYbXY8m1,001,2025-08-01_11h25.34.970,continuous_performance_test,2024.2.4,Win32,59.17159763,150.3595,152.1002,space,1,0,0,0,5,1,F,space,0.4041,,145.304,150.3504,space,5.0181,,,,,,
,,,,,R_9DYDk9iFYbXY8m1,001,2025-08-01_11h25.34.970,continuous_performance_test,2024.2.4,Win32,59.17159763,152.1032,153.7006,space,1,0,1,1,0,1,A,space,0.4009,,,,,,,,,,,
,,,,,R_9DYDk9iFYbXY8m1,001,2025-08-01_11h25.34.970,continuous_performance_test,2024.2.4,Win32,59.17159763,153.7031,155.3006,space,1,0,2,2,19,1,T,space,0.4318,,,,,,,,,,,
,,,,,R_9DYDk9iFYbXY8m1,001,2025-08-01_11h25.34.970,continuous_performance_test,2024.2.4,Win32,59.17159763,155.3034,157.3007,,1,0,3,3,25,1,X,,,,,,,,,,,,,
,,,,,R_9DYDk9iFYbXY8m1,001,2025-08-01_11h25.34.970,continuous_performance_test,2024.2.4,Win32,59.17159763,157.3035,158.9001,space,1,0,4,4,17,1,R,space,0.3515,,,,,,,,,,,
,,,,,R_9DYDk9iFYbXY8m1,001,2025-08-01_11h25.34.970,continuous_performance_test,2024.2.4,Win32,59.17159763,158.9027,160.5607,space,1,0,5,5,14,1,O,space,0.3712,,,,,,,,,,,
,,,,,R_9DYDk9iFYbXY8m1,001,2025-08-01_11h25.34.970,continuous_performance_test,2024.2.4,Win32,59.17159763,160.5631,162.5005,space,1,0,6,6,20,1,U,space,0.3477,,,,,,,,,,,
,,,,,R_9DYDk9iFYbXY8m1,001,2025-08-01_11h25.34.970,continuous_performance_test,2024.2.4,Win32,59.17159763,162.5031,164.2504,space,1,0,7,7,7,1,H,space,0.324,,,,,,,,,,,
,,,,,R_9DYDk9iFYbXY8m1,001,2025-08-01_11h25.34.970,continuous_performance_test,2024.2.4,Win32,59.17159763,164.2538,166.0002,space,1,0,8,8,4,1,E,space,0.3018,,,,,,,,,,,
,,,,,R_9DYDk9iFYbXY8m1,001,2025-08-01_11h25.34.970,continuous_performance_test,2024.2.4,Win32,59.17159763,166.0026,167.5503,space,1,0,9,9,12,1,M,space,0.4191,,,,,,,,,,,
,,,,,R_9DYDk9iFYbXY8m1,001,2025-08-01_11h25.34.970,continuous_performance_test,2024.2.4,Win32,59.17159763,167.5535,169.2001,space,1,0,10,10,13,1,N,space,0.4368,,,,,,,,,,,
,,,,,R_9DYDk9iFYbXY8m1,001,2025-08-01_11h25.34.970,continuous_performance_test,2024.2.4,Win32,59.17159763,169.2037,171.2001,space,1,0,11,11,15,1,P,space,0.4013,,,,,,,,,,,
,,,,,R_9DYDk9iFYbXY8m1,001,2025-08-01_11h25.34.970,continuous_performance_test,2024.2.4,Win32,59.17159763,171.2032,173.0505,space,1,0,12,12,22,1,W,space,0.4495,,,,,,,,,,,
,,,,,R_9DYDk9iFYbXY8m1,001,2025-08-01_11h25.34.970,continuous_performance_test,2024.2.4,Win32,59.17159763,173.0538,174.6001,space,1,0,13,13,11,1,L,space,0.4455,,,,,,,,,,,
,,,,,R_9DYDk9iFYbXY8m1,001,2025-08-01_11h25.34.970,continuous_performance_test,2024.2.4,Win32,59.17159763,174.6034,176.3503,,1,0,14,14,28,1,X,,,,,,,,,,,,,
,,,,,R_9DYDk9iFYbXY8m1,001,2025-08-01_11h25.34.970,continuous_performance_test,2024.2.4,Win32,59.17159763,176.3538,177.9001,space,1,0,15,15,2,1,C,space,0.3537,,,,,,,,,,,
,,,,,R_9DYDk9iFYbXY8m1,001,2025-08-01_11h25.34.970,continuous_performance_test,2024.2.4,Win32,59.17159763,177.9033,179.5499,space,1,0,16,16,24,1,Z,space,0.3406,,,,,,,,,,,
,,,,,R_9DYDk9iFYbXY8m1,001,2025-08-01_11h25.34.970,continuous_performance_test,2024.2.4,Win32,59.17159763,179.5526,181.4507,space,1,0,17,17,23,1,Y,space,0.4511,,,,,,,,,,,
,,,,,R_9DYDk9iFYbXY8m1,001,2025-08-01_11h25.34.970,continuous_performance_test,2024.2.4,Win32,59.17159763,181.4545,183.1002,space,1,0,18,18,10,1,K,space,0.4338,,,,,,,,,,,
,,,,,R_9DYDk9iFYbXY8m1,001,2025-08-01_11h25.34.970,continuous_performance_test,2024.2.4,Win32,59.17159763,183.1037,184.7501,space,1,0,19,19,6,1,G,space,0.4175,,,,,,,,,,,
,,,,,R_9DYDk9iFYbXY8m1,001,2025-08-01_11h25.34.970,continuous_performance_test,2024.2.4,Win32,59.17159763,184.7533,186.6502,,1,0,20,20,29,1,X,,,,,,,,,,,,,
,,,,,R_9DYDk9iFYbXY8m1,001,2025-08-01_11h25.34.970,continuous_performance_test,2024.2.4,Win32,59.17159763,186.652,188.2002,space,0,0,21,21,27,1,X,,0.3361,,,,,,,,,,,
,,,,,R_9DYDk9iFYbXY8m1,001,2025-08-01_11h25.34.970,continuous_performance_test,2024.2.4,Win32,59.17159763,188.2036,190.1933,space,1,0,22,22,9,1,J,space,0.4358,,,,,,,,,,,
,,,,,R_9DYDk9iFYbXY8m1,001,2025-08-01_11h25.34.970,continuous_performance_test,2024.2.4,Win32,59.17159763,190.1962,191.8413,space,1,0,23,23,21,1,V,space,0.4226,,,,,,,,,,,
,,,,,R_9DYDk9iFYbXY8m1,001,2025-08-01_11h25.34.970,continuous_performance_test,2024.2.4,Win32,59.17159763,191.8439,193.6832,space,1,0,24,24,1,1,B,space,0.4352,,,,,,,,,,,
,,,,,R_9DYDk9iFYbXY8m1,001,2025-08-01_11h25.34.970,continuous_performance_test,2024.2.4,Win32,59.17159763,193.6872,195.2833,space,1,0,25,25,3,1,D,space,0.4371,,,,,,,,,,,
,,,,,R_9DYDk9iFYbXY8m1,001,2025-08-01_11h25.34.970,continuous_performance_test,2024.2.4,Win32,59.17159763,195.2864,196.8333,space,1,0,26,26,8,1,I,space,0.6359,,,,,,,,,,,
,,,,,R_9DYDk9iFYbXY8m1,001,2025-08-01_11h25.34.970,continuous_performance_test,2024.2.4,Win32,59.17159763,196.8365,198.6332,,1,0,27,27,26,1,X,,,,,,,,,,,,,
,,,,,R_9DYDk9iFYbXY8m1,001,2025-08-01_11h25.34.970,continuous_performance_test,2024.2.4,Win32,59.17159763,198.6362,200.4332,space,1,0,28,28,18,1,S,space,0.4689,,,,,,,,,,,
,,,,,R_9DYDk9iFYbXY8m1,001,2025-08-01_11h25.34.970,continuous_performance_test,2024.2.4,Win32,59.17159763,200.4368,202.0334,space,1,0,29,29,16,1,Q,space,0.5858,,,,,,,,,,,
,,,,,R_9DYDk9iFYbXY8m1,001,2025-08-01_11h25.34.970,continuous_performance_test,2024.2.4,Win32,59.17159763,206.2717,207.8163,,1,0,0,0,26,1,X,,,,202.0359,206.2621,space,4.2001,,,,,,
,,,,,R_9DYDk9iFYbXY8m1,001,2025-08-01_11h25.34.970,continuous_performance_test,2024.2.4,Win32,59.17159763,207.8188,209.7167,space,1,0,1,1,2,1,C,space,0.3833,,,,,,,,,,,
,,,,,R_9DYDk9iFYbXY8m1,001,2025-08-01_11h25.34.970,continuous_performance_test,2024.2.4,Win32,59.17159763,209.7193,211.7162,,1,0,2,2,29,1,X,,,,,,,,,,,,,
,,,,,R_9DYDk9iFYbXY8m1,001,2025-08-01_11h25.34.970,continuous_performance_test,2024.2.4,Win32,59.17159763,211.7192,213.6666,space,1,0,3,3,11,1,L,space,0.4155,,,,,,,,,,,
,,,,,R_9DYDk9iFYbXY8m1,001,2025-08-01_11h25.34.970,continuous_performance_test,2024.2.4,Win32,59.17159763,213.6694,215.266,,1,0,4,4,28,1,X,,,,,,,,,,,,,
,,,,,R_9DYDk9iFYbXY8m1,001,2025-08-01_11h25.34.970,continuous_performance_test,2024.2.4,Win32,59.17159763,215.2681,217.1166,space,1,0,5,5,4,1,E,space,0.5307,,,,,,,,,,,
,,,,,R_9DYDk9iFYbXY8m1,001,2025-08-01_11h25.34.970,continuous_performance_test,2024.2.4,Win32,59.17159763,217.1194,218.8159,space,1,0,6,6,21,1,V,space,0.5997,,,,,,,,,,,
,,,,,R_9DYDk9iFYbXY8m1,001,2025-08-01_11h25.34.970,continuous_performance_test,2024.2.4,Win32,59.17159763,218.8185,220.5593,space,1,0,7,7,19,1,T,space,0.5195,,,,,,,,,,,
,,,,,R_9DYDk9iFYbXY8m1,001,2025-08-01_11h25.34.970,continuous_performance_test,2024.2.4,Win32,59.17159763,220.5614,222.1595,space,1,0,8,8,20,1,U,space,0.4849,,,,,,,,,,,
,,,,,R_9DYDk9iFYbXY8m1,001,2025-08-01_11h25.34.970,continuous_performance_test,2024.2.4,Win32,59.17159763,222.1619,223.9099,space,1,0,9,9,3,1,D,space,0.4291,,,,,,,,,,,
,,,,,R_9DYDk9iFYbXY8m1,001,2025-08-01_11h25.34.970,continuous_performance_test,2024.2.4,Win32,59.17159763,223.9119,225.6092,space,1,0,10,10,16,1,Q,space,0.6684,,,,,,,,,,,
,,,,,R_9DYDk9iFYbXY8m1,001,2025-08-01_11h25.34.970,continuous_performance_test,2024.2.4,Win32,59.17159763,225.6112,227.4095,space,1,0,11,11,23,1,Y,space,0.6016,,,,,,,,,,,
,,,,,R_9DYDk9iFYbXY8m1,001,2025-08-01_11h25.34.970,continuous_performance_test,2024.2.4,Win32,59.17159763,227.412,229.3603,space,1,0,12,12,13,1,N,space,0.4353,,,,,,,,,,,
,,,,,R_9DYDk9iFYbXY8m1,001,2025-08-01_11h25.34.970,continuous_performance_test,2024.2.4,Win32,59.17159763,229.3622,231.1604,space,1,0,13,13,15,1,P,space,0.4182,,,,,,,,,,,
,,,,,R_9DYDk9iFYbXY8m1,001,2025-08-01_11h25.34.970,continuous_performance_test,2024.2.4,Win32,59.17159763,231.1626,233.0096,space,1,0,14,14,7,1,H,space,0.4353,,,,,,,,,,,
,,,,,R_9DYDk9iFYbXY8m1,001,2025-08-01_11h25.34.970,continuous_performance_test,2024.2.4,Win32,59.17159763,233.0117,234.8104,space,1,0,15,15,1,1,B,space,0.4847,,,,,,,,,,,
,,,,,R_9DYDk9iFYbXY8m1,001,2025-08-01_11h25.34.970,continuous_performance_test,2024.2.4,Win32,59.17159763,234.8125,236.4093,space,1,0,16,16,8,1,I,space,0.4187,,,,,,,,,,,
,,,,,R_9DYDk9iFYbXY8m1,001,2025-08-01_11h25.34.970,continuous_performance_test,2024.2.4,Win32,59.17159763,236.4119,238.3095,space,1,0,17,17,9,1,J,space,0.452,,,,,,,,,,,
,,,,,R_9DYDk9iFYbXY8m1,001,2025-08-01_11h25.34.970,continuous_performance_test,2024.2.4,Win32,59.17159763,238.3116,240.3093,space,1,0,18,18,12,1,M,space,0.4188,,,,,,,,,,,
,,,,,R_9DYDk9iFYbXY8m1,001,2025-08-01_11h25.34.970,continuous_performance_test,2024.2.4,Win32,59.17159763,240.3116,242.0092,space,0,0,19,19,25,1,X,,0.4182,,,,,,,,,,,
,,,,,R_9DYDk9iFYbXY8m1,001,2025-08-01_11h25.34.970,continuous_performance_test,2024.2.4,Win32,59.17159763,242.0112,243.7593,space,1,0,20,20,14,1,O,space,0.4516,,,,,,,,,,,
,,,,,R_9DYDk9iFYbXY8m1,001,2025-08-01_11h25.34.970,continuous_performance_test,2024.2.4,Win32,59.17159763,243.7616,245.6092,space,1,0,21,21,22,1,W,space,0.7354,,,,,,,,,,,
,,,,,R_9DYDk9iFYbXY8m1,001,2025-08-01_11h25.34.970,continuous_performance_test,2024.2.4,Win32,59.17159763,245.6118,247.2091,space,1,0,22,22,24,1,Z,space,0.5848,,,,,,,,,,,
,,,,,R_9DYDk9iFYbXY8m1,001,2025-08-01_11h25.34.970,continuous_performance_test,2024.2.4,Win32,59.17159763,247.2117,248.9589,space,1,0,23,23,6,1,G,space,0.4683,,,,,,,,,,,
,,,,,R_9DYDk9iFYbXY8m1,001,2025-08-01_11h25.34.970,continuous_performance_test,2024.2.4,Win32,59.17159763,248.961,250.7089,space,1,0,24,24,0,1,A,space,0.5017,,,,,,,,,,,
,,,,,R_9DYDk9iFYbXY8m1,001,2025-08-01_11h25.34.970,continuous_performance_test,2024.2.4,Win32,59.17159763,250.7109,252.4592,space,1,0,25,25,10,1,K,space,0.5353,,,,,,,,,,,
,,,,,R_9DYDk9iFYbXY8m1,001,2025-08-01_11h25.34.970,continuous_performance_test,2024.2.4,Win32,59.17159763,252.4617,254.0093,space,1,0,26,26,18,1,S,space,0.4686,,,,,,,,,,,
,,,,,R_9DYDk9iFYbXY8m1,001,2025-08-01_11h25.34.970,continuous_performance_test,2024.2.4,Win32,59.17159763,254.0115,255.8593,,1,0,27,27,27,1,X,,,,,,,,,,,,,
,,,,,R_9DYDk9iFYbXY8m1,001,2025-08-01_11h25.34.970,continuous_performance_test,2024.2.4,Win32,59.17159763,255.8615,257.4091,space,1,0,28,28,17,1,R,space,0.4682,,,,,,,,,,,
,,,,,R_9DYDk9iFYbXY8m1,001,2025-08-01_11h25.34.970,continuous_performance_test,2024.2.4,Win32,59.17159763,257.4113,259.4087,space,1,0,29,29,5,1,F,space,0.4356,,,,,,,,,,,
,,,,,R_9DYDk9iFYbXY8m1,001,2025-08-01_11h25.34.970,continuous_performance_test,2024.2.4,Win32,59.17159763,267.9882,269.9323,,1,0,0,0,29,1,X,,,,259.4106,267.9772,space,8.5499,,,,,,
,,,,,R_9DYDk9iFYbXY8m1,001,2025-08-01_11h25.34.970,continuous_performance_test,2024.2.4,Win32,59.17159763,269.9354,271.8321,space,1,0,1,1,10,1,K,space,0.4852,,,,,,,,,,,
,,,,,R_9DYDk9iFYbXY8m1,001,2025-08-01_11h25.34.970,continuous_performance_test,2024.2.4,Win32,59.17159763,271.8346,273.8321,space,1,0,2,2,0,1,A,space,0.5384,,,,,,,,,,,
,,,,,R_9DYDk9iFYbXY8m1,001,2025-08-01_11h25.34.970,continuous_performance_test,2024.2.4,Win32,59.17159763,273.8343,275.732,space,1,0,3,3,7,1,H,space,0.439,,,,,,,,,,,
,,,,,R_9DYDk9iFYbXY8m1,001,2025-08-01_11h25.34.970,continuous_performance_test,2024.2.4,Win32,59.17159763,275.7351,277.482,space,1,0,4,4,16,1,Q,space,0.4817,,,,,,,,,,,
,,,,,R_9DYDk9iFYbXY8m1,001,2025-08-01_11h25.34.970,continuous_performance_test,2024.2.4,Win32,59.17159763,277.4846,279.2323,space,1,0,5,5,1,1,B,space,0.3893,,,,,,,,,,,
,,,,,R_9DYDk9iFYbXY8m1,001,2025-08-01_11h25.34.970,continuous_performance_test,2024.2.4,Win32,59.17159763,279.2353,280.8906,space,1,0,6,6,6,1,G,space,0.3835,,,,,,,,,,,
,,,,,R_9DYDk9iFYbXY8m1,001,2025-08-01_11h25.34.970,continuous_performance_test,2024.2.4,Win32,59.17159763,280.8936,282.482,space,1,0,7,7,2,1,C,space,0.4728,,,,,,,,,,,
,,,,,R_9DYDk9iFYbXY8m1,001,2025-08-01_11h25.34.970,continuous_performance_test,2024.2.4,Win32,59.17159763,282.4851,284.3322,space,1,0,8,8,22,1,W,space,0.6236,,,,,,,,,,,
,,,,,R_9DYDk9iFYbXY8m1,001,2025-08-01_11h25.34.970,continuous_performance_test,2024.2.4,Win32,59.17159763,284.3355,286.3323,space,1,0,9,9,24,1,Z,space,0.6708,,,,,,,,,,,
,,,,,R_9DYDk9iFYbXY8m1,001,2025-08-01_11h25.34.970,continuous_performance_test,2024.2.4,Win32,59.17159763,286.3356,288.0823,space,1,0,10,10,11,1,L,space,0.4793,,,,,,,,,,,
,,,,,R_9DYDk9iFYbXY8m1,001,2025-08-01_11h25.34.970,continuous_performance_test,2024.2.4,Win32,59.17159763,288.0853,290.032,space,1,0,11,11,5,1,F,space,0.4531,,,,,,,,,,,
,,,,,R_9DYDk9iFYbXY8m1,001,2025-08-01_11h25.34.970,continuous_performance_test,2024.2.4,Win32,59.17159763,290.0346,291.8321,space,1,0,12,12,4,1,E,space,0.4687,,,,,,,,,,,
,,,,,R_9DYDk9iFYbXY8m1,001,2025-08-01_11h25.34.970,continuous_performance_test,2024.2.4,Win32,59.17159763,291.8343,293.4819,space,1,0,13,13,13,1,N,space,0.3956,,,,,,,,,,,
,,,,,R_9DYDk9iFYbXY8m1,001,2025-08-01_11h25.34.970,continuous_performance_test,2024.2.4,Win32,59.17159763,293.4851,295.3822,,1,0,14,14,27,1,X,,,,,,,,,,,,,
,,,,,R_9DYDk9iFYbXY8m1,001,2025-08-01_11h25.34.970,continuous_performance_test,2024.2.4,Win32,59.17159763,295.3854,297.1819,space,1,0,15,15,14,1,O,space,0.5185,,,,,,,,,,,
,,,,,R_9DYDk9iFYbXY8m1,001,2025-08-01_11h25.34.970,continuous_performance_test,2024.2.4,Win32,59.17159763,297.185,299.032,space,1,0,16,16,23,1,Y,space,0.5213,,,,,,,,,,,
,,,,,R_9DYDk9iFYbXY8m1,001,2025-08-01_11h25.34.970,continuous_performance_test,2024.2.4,Win32,59.17159763,299.035,300.8319,space,1,0,17,17,12,1,M,space,0.4517,,,,,,,,,,,
,,,,,R_9DYDk9iFYbXY8m1,001,2025-08-01_11h25.34.970,continuous_performance_test,2024.2.4,Win32,59.17159763,300.8349,302.6819,space,1,0,18,18,9,1,J,space,0.4178,,,,,,,,,,,
,,,,,R_9DYDk9iFYbXY8m1,001,2025-08-01_11h25.34.970,continuous_performance_test,2024.2.4,Win32,59.17159763,302.6851,304.582,,1,0,19,19,28,1,X,,,,,,,,,,,,,
,,,,,R_9DYDk9iFYbXY8m1,001,2025-08-01_11h25.34.970,continuous_performance_test,2024.2.4,Win32,59.17159763,304.5853,306.2315,space,1,0,20,20,15,1,P,space,0.5017,,,,,,,,,,,
,,,,,R_9DYDk9iFYbXY8m1,001,2025-08-01_11h25.34.970,continuous_performance_test,2024.2.4,Win32,59.17159763,306.2341,307.9316,,1,0,21,21,26,1,X,,,,,,,,,,,,,
,,,,,R_9DYDk9iFYbXY8m1,001,2025-08-01_11h25.34.970,continuous_performance_test,2024.2.4,Win32,59.17159763,307.9344,309.5317,space,1,0,22,22,8,1,I,space,0.4317,,,,,,,,,,,
,,,,,R_9DYDk9iFYbXY8m1,001,2025-08-01_11h25.34.970,continuous_performance_test,2024.2.4,Win32,59.17159763,309.5346,311.1818,,1,0,23,23,25,1,X,,,,,,,,,,,,,
,,,,,R_9DYDk9iFYbXY8m1,001,2025-08-01_11h25.34.970,continuous_performance_test,2024.2.4,Win32,59.17159763,311.1845,312.8381,space,1,0,24,24,3,1,D,space,0.3553,,,,,,,,,,,
,,,,,R_9DYDk9iFYbXY8m1,001,2025-08-01_11h25.34.970,continuous_performance_test,2024.2.4,Win32,59.17159763,312.8408,314.7316,space,1,0,25,25,18,1,S,space,0.3837,,,,,,,,,,,
,,,,,R_9DYDk9iFYbXY8m1,001,2025-08-01_11h25.34.970,continuous_performance_test,2024.2.4,Win32,59.17159763,314.734,316.6316,space,1,0,26,26,17,1,R,space,0.4372,,,,,,,,,,,
,,,,,R_9DYDk9iFYbXY8m1,001,2025-08-01_11h25.34.970,continuous_performance_test,2024.2.4,Win32,59.17159763,316.6339,318.5812,space,1,0,27,27,21,1,V,space,0.4203,,,,,,,,,,,
,,,,,R_9DYDk9iFYbXY8m1,001,2025-08-01_11h25.34.970,continuous_performance_test,2024.2.4,Win32,59.17159763,318.5838,320.2317,space,1,0,28,28,19,1,T,space,0.6811,,,,,,,,,,,
,,,,,R_9DYDk9iFYbXY8m1,001,2025-08-01_11h25.34.970,continuous_performance_test,2024.2.4,Win32,59.17159763,320.2341,322.1818,space,1,0,29,29,20,1,U,space,0.4562,,,,,,,,,,,
,,,,,R_9DYDk9iFYbXY8m1,001,2025-08-01_11h25.34.970,continuous_performance_test,2024.2.4,Win32,59.17159763,328.8934,330.5315,space,1,0,0,0,16,1,Q,space,0.436,,322.1837,328.8814,space,6.6672,,,,,,
,,,,,R_9DYDk9iFYbXY8m1,001,2025-08-01_11h25.34.970,continuous_performance_test,2024.2.4,Win32,59.17159763,330.5345,332.3816,space,1,0,1,1,21,1,V,space,0.4354,,,,,,,,,,,
,,,,,R_9DYDk9iFYbXY8m1,001,2025-08-01_11h25.34.970,continuous_performance_test,2024.2.4,Win32,59.17159763,332.3838,333.9817,space,1,0,2,2,8,1,I,space,0.6851,,,,,,,,,,,
,,,,,R_9DYDk9iFYbXY8m1,001,2025-08-01_11h25.34.970,continuous_performance_test,2024.2.4,Win32,59.17159763,333.9846,335.5815,space,1,0,3,3,11,1,L,space,0.4179,,,,,,,,,,,
,,,,,R_9DYDk9iFYbXY8m1,001,2025-08-01_11h25.34.970,continuous_performance_test,2024.2.4,Win32,59.17159763,335.5842,337.1313,,1,0,4,4,27,1,X,,,,,,,,,,,,,
,,,,,R_9DYDk9iFYbXY8m1,001,2025-08-01_11h25.34.970,continuous_performance_test,2024.2.4,Win32,59.17159763,337.1342,339.0813,space,1,0,5,5,15,1,P,space,0.4029,,,,,,,,,,,
,,,,,R_9DYDk9iFYbXY8m1,001,2025-08-01_11h25.34.970,continuous_performance_test,2024.2.4,Win32,59.17159763,339.0841,340.8374,space,1,0,6,6,19,1,T,space,0.3733,,,,,,,,,,,
,,,,,R_9DYDk9iFYbXY8m1,001,2025-08-01_11h25.34.970,continuous_performance_test,2024.2.4,Win32,59.17159763,340.8395,342.5814,space,1,0,7,7,13,1,N,space,0.4179,,,,,,,,,,,
,,,,,R_9DYDk9iFYbXY8m1,001,2025-08-01_11h25.34.970,continuous_performance_test,2024.2.4,Win32,59.17159763,342.5846,344.3816,space,1,0,8,8,10,1,K,space,0.6019,,,,,,,,,,,
,,,,,R_9DYDk9iFYbXY8m1,001,2025-08-01_11h25.34.970,continuous_performance_test,2024.2.4,Win32,59.17159763,344.3847,346.1816,space,1,0,9,9,18,1,S,space,0.4345,,,,,,,,,,,
,,,,,R_9DYDk9iFYbXY8m1,001,2025-08-01_11h25.34.970,continuous_performance_test,2024.2.4,Win32,59.17159763,346.1846,348.0813,space,1,0,10,10,17,1,R,space,0.468,,,,,,,,,,,
,,,,,R_9DYDk9iFYbXY8m1,001,2025-08-01_11h25.34.970,continuous_performance_test,2024.2.4,Win32,59.17159763,348.0843,350.0814,space,1,0,11,11,2,1,C,space,0.3863,,,,,,,,,,,
,,,,,R_9DYDk9iFYbXY8m1,001,2025-08-01_11h25.34.970,continuous_performance_test,2024.2.4,Win32,59.17159763,350.0844,351.9313,space,1,0,12,12,22,1,W,space,0.3568,,,,,,,,,,,
,,,,,R_9DYDk9iFYbXY8m1,001,2025-08-01_11h25.34.970,continuous_performance_test,2024.2.4,Win32,59.17159763,351.9343,353.5815,space,1,0,13,13,1,1,B,space,0.5684,,,,,,,,,,,
,,,,,R_9DYDk9iFYbXY8m1,001,2025-08-01_11h25.34.970,continuous_performance_test,2024.2.4,Win32,59.17159763,353.5846,355.481,space,1,0,14,14,20,1,U,space,0.3744,,,,,,,,,,,
,,,,,R_9DYDk9iFYbXY8m1,001,2025-08-01_11h25.34.970,continuous_performance_test,2024.2.4,Win32,59.17159763,355.4835,357.4811,,1,0,15,15,29,1,X,,,,,,,,,,,,,
,,,,,R_9DYDk9iFYbXY8m1,001,2025-08-01_11h25.34.970,continuous_performance_test,2024.2.4,Win32,59.17159763,357.4836,359.4311,space,1,0,16,16,0,1,A,space,0.4122,,,,,,,,,,,
,,,,,R_9DYDk9iFYbXY8m1,001,2025-08-01_11h25.34.970,continuous_performance_test,2024.2.4,Win32,59.17159763,359.4345,361.2311,space,1,0,17,17,7,1,H,space,0.4572,,,,,,,,,,,
,,,,,R_9DYDk9iFYbXY8m1,001,2025-08-01_11h25.34.970,continuous_performance_test,2024.2.4,Win32,59.17159763,361.2345,362.9811,space,1,0,18,18,9,1,J,space,0.3889,,,,,,,,,,,
,,,,,R_9DYDk9iFYbXY8m1,001,2025-08-01_11h25.34.970,continuous_performance_test,2024.2.4,Win32,59.17159763,362.984,364.8311,space,1,0,19,19,5,1,F,space,0.4536,,,,,,,,,,,
,,,,,R_9DYDk9iFYbXY8m1,001,2025-08-01_11h25.34.970,continuous_performance_test,2024.2.4,Win32,59.17159763,364.8336,366.581,space,1,0,20,20,3,1,D,space,0.4178,,,,,,,,,,,
,,,,,R_9DYDk9iFYbXY8m1,001,2025-08-01_11h25.34.970,continuous_performance_test,2024.2.4,Win32,59.17159763,366.5841,368.5309,space,1,0,21,21,23,1,Y,space,0.3546,,,,,,,,,,,
,,,,,R_9DYDk9iFYbXY8m1,001,2025-08-01_11h25.34.970,continuous_performance_test,2024.2.4,Win32,59.17159763,368.5341,370.0809,space,1,0,22,22,12,1,M,space,0.3985,,,,,,,,,,,
,,,,,R_9DYDk9iFYbXY8m1,001,2025-08-01_11h25.34.970,continuous_performance_test,2024.2.4,Win32,59.17159763,370.0837,371.9311,space,1,0,23,23,14,1,O,space,0.3205,,,,,,,,,,,
,,,,,R_9DYDk9iFYbXY8m1,001,2025-08-01_11h25.34.970,continuous_performance_test,2024.2.4,Win32,59.17159763,371.9343,373.531,space,0,0,24,24,25,1,X,,0.3687,,,,,,,,,,,
,,,,,R_9DYDk9iFYbXY8m1,001,2025-08-01_11h25.34.970,continuous_performance_test,2024.2.4,Win32,59.17159763,373.5336,375.331,space,1,0,25,25,24,1,Z,space,0.7116,,,,,,,,,,,
,,,,,R_9DYDk9iFYbXY8m1,001,2025-08-01_11h25.34.970,continuous_performance_test,2024.2.4,Win32,59.17159763,375.3337,377.1309,space,1,0,26,26,6,1,G,space,0.6015,,,,,,,,,,,
,,,,,R_9DYDk9iFYbXY8m1,001,2025-08-01_11h25.34.970,continuous_performance_test,2024.2.4,Win32,59.17159763,377.1341,378.981,space,1,0,27,27,4,1,E,space,0.4029,,,,,,,,,,,
,,,,,R_9DYDk9iFYbXY8m1,001,2025-08-01_11h25.34.970,continuous_performance_test,2024.2.4,Win32,59.17159763,378.9837,380.7807,,1,0,28,28,28,1,X,,,,,,,,,,,,,
,,,,,R_9DYDk9iFYbXY8m1,001,2025-08-01_11h25.34.970,continuous_performance_test,2024.2.4,Win32,59.17159763,380.7823,382.6306,,1,0,29,29,26,1,X,,,,,,,,,,,,,
,,,,,R_9DYDk9iFYbXY8m1,001,2025-08-01_11h25.34.970,continuous_performance_test,2024.2.4,Win32,59.17159763,389.0741,390.9141,space,1,0,0,0,3,1,D,space,0.5518,,382.6323,389.0641,space,6.401,,,,,,
,,,,,R_9DYDk9iFYbXY8m1,001,2025-08-01_11h25.34.970,continuous_performance_test,2024.2.4,Win32,59.17159763,390.9173,392.6142,space,1,0,1,1,11,1,L,space,0.4172,,,,,,,,,,,
,,,,,R_9DYDk9iFYbXY8m1,001,2025-08-01_11h25.34.970,continuous_performance_test,2024.2.4,Win32,59.17159763,392.6173,394.564,space,1,0,2,2,6,1,G,space,0.4287,,,,,,,,,,,
,,,,,R_9DYDk9iFYbXY8m1,001,2025-08-01_11h25.34.970,continuous_performance_test,2024.2.4,Win32,59.17159763,394.5671,396.164,space,1,0,3,3,8,1,I,space,0.4849,,,,,,,,,,,
,,,,,R_9DYDk9iFYbXY8m1,001,2025-08-01_11h25.34.970,continuous_performance_test,2024.2.4,Win32,59.17159763,396.1664,397.964,space,1,0,4,4,20,1,U,space,0.3039,,,,,,,,,,,
,,,,,R_9DYDk9iFYbXY8m1,001,2025-08-01_11h25.34.970,continuous_performance_test,2024.2.4,Win32,59.17159763,397.967,399.7137,space,1,0,5,5,19,1,T,space,0.4856,,,,,,,,,,,
,,,,,R_9DYDk9iFYbXY8m1,001,2025-08-01_11h25.34.970,continuous_performance_test,2024.2.4,Win32,59.17159763,399.7161,401.514,space,1,0,6,6,12,1,M,space,0.4739,,,,,,,,,,,
,,,,,R_9DYDk9iFYbXY8m1,001,2025-08-01_11h25.34.970,continuous_performance_test,2024.2.4,Win32,59.17159763,401.5166,403.064,space,1,0,7,7,13,1,N,space,0.4012,,,,,,,,,,,
,,,,,R_9DYDk9iFYbXY8m1,001,2025-08-01_11h25.34.970,continuous_performance_test,2024.2.4,Win32,59.17159763,403.0668,404.914,space,1,0,8,8,24,1,Z,space,0.6207,,,,,,,,,,,
,,,,,R_9DYDk9iFYbXY8m1,001,2025-08-01_11h25.34.970,continuous_performance_test,2024.2.4,Win32,59.17159763,404.9169,406.7638,,1,0,9,9,26,1,X,,,,,,,,,,,,,
,,,,,R_9DYDk9iFYbXY8m1,001,2025-08-01_11h25.34.970,continuous_performance_test,2024.2.4,Win32,59.17159763,406.7662,408.6137,space,1,0,10,10,15,1,P,space,0.436,,,,,,,,,,,
,,,,,R_9DYDk9iFYbXY8m1,001,2025-08-01_11h25.34.970,continuous_performance_test,2024.2.4,Win32,59.17159763,408.6164,410.3138,space,1,0,11,11,10,1,K,space,0.6952,,,,,,,,,,,
,,,,,R_9DYDk9iFYbXY8m1,001,2025-08-01_11h25.34.970,continuous_performance_test,2024.2.4,Win32,59.17159763,410.3167,411.8637,,1,0,12,12,28,1,X,,,,,,,,,,,,,
,,,,,R_9DYDk9iFYbXY8m1,001,2025-08-01_11h25.34.970,continuous_performance_test,2024.2.4,Win32,59.17159763,411.866,413.4637,space,1,0,13,13,5,1,F,space,0.381,,,,,,,,,,,
,,,,,R_9DYDk9iFYbXY8m1,001,2025-08-01_11h25.34.970,continuous_performance_test,2024.2.4,Win32,59.17159763,413.4661,415.4637,space,0,0,14,14,25,1,X,,0.3819,,,,,,,,,,,
,,,,,R_9DYDk9iFYbXY8m1,001,2025-08-01_11h25.34.970,continuous_performance_test,2024.2.4,Win32,59.17159763,415.4654,417.4637,,1,0,15,15,27,1,X,,,,,,,,,,,,,
,,,,,R_9DYDk9iFYbXY8m1,001,2025-08-01_11h25.34.970,continuous_performance_test,2024.2.4,Win32,59.17159763,417.4663,419.0136,space,1,0,16,16,23,1,Y,space,0.4011,,,,,,,,,,,
,,,,,R_9DYDk9iFYbXY8m1,001,2025-08-01_11h25.34.970,continuous_performance_test,2024.2.4,Win32,59.17159763,419.0163,420.6636,space,1,0,17,17,18,1,S,space,0.4289,,,,,,,,,,,
,,,,,R_9DYDk9iFYbXY8m1,001,2025-08-01_11h25.34.970,continuous_performance_test,2024.2.4,Win32,59.17159763,420.6662,422.6637,space,1,0,18,18,17,1,R,space,0.5511,,,,,,,,,,,
,,,,,R_9DYDk9iFYbXY8m1,001,2025-08-01_11h25.34.970,continuous_performance_test,2024.2.4,Win32,59.17159763,422.6662,424.2635,space,1,0,19,19,9,1,J,space,0.4549,,,,,,,,,,,
,,,,,R_9DYDk9iFYbXY8m1,001,2025-08-01_11h25.34.970,continuous_performance_test,2024.2.4,Win32,59.17159763,424.2663,426.0634,space,1,0,20,20,4,1,E,space,0.5962,,,,,,,,,,,
,,,,,R_9DYDk9iFYbXY8m1,001,2025-08-01_11h25.34.970,continuous_performance_test,2024.2.4,Win32,59.17159763,426.066,427.9137,space,1,0,21,21,7,1,H,space,0.5383,,,,,,,,,,,
,,,,,R_9DYDk9iFYbXY8m1,001,2025-08-01_11h25.34.970,continuous_performance_test,2024.2.4,Win32,59.17159763,427.9162,429.7136,space,1,0,22,22,1,1,B,space,0.4014,,,,,,,,,,,
,,,,,R_9DYDk9iFYbXY8m1,001,2025-08-01_11h25.34.970,continuous_performance_test,2024.2.4,Win32,59.17159763,429.7161,431.4636,space,1,0,23,23,22,1,W,space,0.5366,,,,,,,,,,,
,,,,,R_9DYDk9iFYbXY8m1,001,2025-08-01_11h25.34.970,continuous_performance_test,2024.2.4,Win32,59.17159763,431.4663,433.3636,space,1,0,24,24,21,1,V,space,0.4853,,,,,,,,,,,
,,,,,R_9DYDk9iFYbXY8m1,001,2025-08-01_11h25.34.970,continuous_performance_test,2024.2.4,Win32,59.17159763,433.3666,435.0636,space,1,0,25,25,16,1,Q,space,0.5225,,,,,,,,,,,
,,,,,R_9DYDk9iFYbXY8m1,001,2025-08-01_11h25.34.970,continuous_performance_test,2024.2.4,Win32,59.17159763,435.0665,436.9636,space,0,0,26,26,29,1,X,,0.3871,,,,,,,,,,,
,,,,,R_9DYDk9iFYbXY8m1,001,2025-08-01_11h25.34.970,continuous_performance_test,2024.2.4,Win32,59.17159763,436.9668,438.5133,space,1,0,27,27,2,1,C,space,0.3278,,,,,,,,,,,
,,,,,R_9DYDk9iFYbXY8m1,001,2025-08-01_11h25.34.970,continuous_performance_test,2024.2.4,Win32,59.17159763,438.5161,440.1634,space,1,0,28,28,0,1,A,space,0.3848,,,,,,,,,,,
,,,,,R_9DYDk9iFYbXY8m1,001,2025-08-01_11h25.34.970,continuous_performance_test,2024.2.4,Win32,59.17159763,440.1663,441.8134,space,1,0,29,29,14,1,O,space,0.4402,,,,,,,,,,,
,,,,,R_9DYDk9iFYbXY8m1,001,2025-08-01_11h25.34.970,continuous_performance_test,2024.2.4,Win32,59.17159763,446.6067,448.2466,space,1,0,0,0,2,1,C,space,0.6849,,441.8157,446.5968,space,4.7536,,,,,,
,,,,,R_9DYDk9iFYbXY8m1,001,2025-08-01_11h25.34.970,continuous_performance_test,2024.2.4,Win32,59.17159763,448.2492,449.9466,space,1,0,1,1,21,1,V,space,0.4348,,,,,,,,,,,
,,,,,R_9DYDk9iFYbXY8m1,001,2025-08-01_11h25.34.970,continuous_performance_test,2024.2.4,Win32,59.17159763,449.9498,451.9465,space,1,0,2,2,7,1,H,space,0.4174,,,,,,,,,,,
,,,,,R_9DYDk9iFYbXY8m1,001,2025-08-01_11h25.34.970,continuous_performance_test,2024.2.4,Win32,59.17159763,451.9489,453.7466,space,1,0,3,3,8,1,I,space,0.418,,,,,,,,,,,
,,,,,R_9DYDk9iFYbXY8m1,001,2025-08-01_11h25.34.970,continuous_performance_test,2024.2.4,Win32,59.17159763,453.7506,455.5964,space,1,0,4,4,3,1,D,space,0.4014,,,,,,,,,,,
,,,,,R_9DYDk9iFYbXY8m1,001,2025-08-01_11h25.34.970,continuous_performance_test,2024.2.4,Win32,59.17159763,455.5992,457.4514,space,1,0,5,5,18,1,S,space,0.3575,,,,,,,,,,,
,,,,,R_9DYDk9iFYbXY8m1,001,2025-08-01_11h25.34.970,continuous_performance_test,2024.2.4,Win32,59.17159763,457.4545,459.3467,space,1,0,6,6,19,1,T,space,0.3181,,,,,,,,,,,
,,,,,R_9DYDk9iFYbXY8m1,001,2025-08-01_11h25.34.970,continuous_performance_test,2024.2.4,Win32,59.17159763,459.3495,461.0463,space,1,0,7,7,6,1,G,space,0.3184,,,,,,,,,,,
,,,,,R_9DYDk9iFYbXY8m1,001,2025-08-01_11h25.34.970,continuous_performance_test,2024.2.4,Win32,59.17159763,461.0494,462.8465,,1,0,8,8,27,1,X,,,,,,,,,,,,,
,,,,,R_9DYDk9iFYbXY8m1,001,2025-08-01_11h25.34.970,continuous_performance_test,2024.2.4,Win32,59.17159763,462.8481,464.7965,space,0,0,9,9,28,1,X,,0.299,,,,,,,,,,,
,,,,,R_9DYDk9iFYbXY8m1,001,2025-08-01_11h25.34.970,continuous_performance_test,2024.2.4,Win32,59.17159763,464.7998,466.4463,space,1,0,10,10,4,1,E,space,0.3513,,,,,,,,,,,
,,,,,R_9DYDk9iFYbXY8m1,001,2025-08-01_11h25.34.970,continuous_performance_test,2024.2.4,Win32,59.17159763,466.4494,468.2963,space,1,0,11,11,17,1,R,space,0.3895,,,,,,,,,,,
,,,,,R_9DYDk9iFYbXY8m1,001,2025-08-01_11h25.34.970,continuous_performance_test,2024.2.4,Win32,59.17159763,468.2995,469.9465,,1,0,12,12,29,1,X,,,,,,,,,,,,,
,,,,,R_9DYDk9iFYbXY8m1,001,2025-08-01_11h25.34.970,continuous_performance_test,2024.2.4,Win32,59.17159763,469.9492,471.7964,space,1,0,13,13,9,1,J,space,0.3356,,,,,,,,,,,
,,,,,R_9DYDk9iFYbXY8m1,001,2025-08-01_11h25.34.970,continuous_performance_test,2024.2.4,Win32,59.17159763,471.7993,473.5962,space,1,0,14,14,5,1,F,space,0.4517,,,,,,,,,,,
,,,,,R_9DYDk9iFYbXY8m1,001,2025-08-01_11h25.34.970,continuous_performance_test,2024.2.4,Win32,59.17159763,473.6,475.3962,space,1,0,15,15,22,1,W,space,0.6022,,,,,,,,,,,
,,,,,R_9DYDk9iFYbXY8m1,001,2025-08-01_11h25.34.970,continuous_performance_test,2024.2.4,Win32,59.17159763,475.3993,477.0463,space,1,0,16,16,10,1,K,space,0.5155,,,,,,,,,,,
,,,,,R_9DYDk9iFYbXY8m1,001,2025-08-01_11h25.34.970,continuous_performance_test,2024.2.4,Win32,59.17159763,477.0495,478.9462,space,1,0,17,17,16,1,Q,space,0.4011,,,,,,,,,,,
,,,,,R_9DYDk9iFYbXY8m1,001,2025-08-01_11h25.34.970,continuous_performance_test,2024.2.4,Win32,59.17159763,478.9496,480.6963,space,1,0,18,18,24,1,Z,space,0.4727,,,,,,,,,,,
,,,,,R_9DYDk9iFYbXY8m1,001,2025-08-01_11h25.34.970,continuous_performance_test,2024.2.4,Win32,59.17159763,480.6988,482.4462,space,1,0,19,19,12,1,M,space,0.498,,,,,,,,,,,
,,,,,R_9DYDk9iFYbXY8m1,001,2025-08-01_11h25.34.970,continuous_performance_test,2024.2.4,Win32,59.17159763,482.4492,484.296,space,1,0,20,20,1,1,B,space,0.5127,,,,,,,,,,,
,,,,,R_9DYDk9iFYbXY8m1,001,2025-08-01_11h25.34.970,continuous_performance_test,2024.2.4,Win32,59.17159763,484.299,486.0961,space,1,0,21,21,13,1,N,space,0.4007,,,,,,,,,,,
,,,,,R_9DYDk9iFYbXY8m1,001,2025-08-01_11h25.34.970,continuous_performance_test,2024.2.4,Win32,59.17159763,486.099,487.9962,space,1,0,22,22,20,1,U,space,0.4011,,,,,,,,,,,
,,,,,R_9DYDk9iFYbXY8m1,001,2025-08-01_11h25.34.970,continuous_performance_test,2024.2.4,Win32,59.17159763,487.9994,489.946,space,1,0,23,23,0,1,A,space,0.4819,,,,,,,,,,,
,,,,,R_9DYDk9iFYbXY8m1,001,2025-08-01_11h25.34.970,continuous_performance_test,2024.2.4,Win32,59.17159763,489.95,491.6891,space,1,0,24,24,23,1,Y,space,0.5848,,,,,,,,,,,
,,,,,R_9DYDk9iFYbXY8m1,001,2025-08-01_11h25.34.970,continuous_performance_test,2024.2.4,Win32,59.17159763,491.6919,493.5292,space,1,0,25,25,14,1,O,space,0.419,,,,,,,,,,,
,,,,,R_9DYDk9iFYbXY8m1,001,2025-08-01_11h25.34.970,continuous_performance_test,2024.2.4,Win32,59.17159763,493.5323,495.4292,space,1,0,26,26,15,1,P,space,0.5705,,,,,,,,,,,
,,,,,R_9DYDk9iFYbXY8m1,001,2025-08-01_11h25.34.970,continuous_performance_test,2024.2.4,Win32,59.17159763,495.4318,497.3294,,1,0,27,27,26,1,X,,,,,,,,,,,,,
,,,,,R_9DYDk9iFYbXY8m1,001,2025-08-01_11h25.34.970,continuous_performance_test,2024.2.4,Win32,59.17159763,497.3311,499.1862,,1,0,28,28,25,1,X,,,,,,,,,,,,,
,,,,,R_9DYDk9iFYbXY8m1,001,2025-08-01_11h25.34.970,continuous_performance_test,2024.2.4,Win32,59.17159763,499.1892,500.7792,space,1,0,29,29,11,1,L,space,0.429,,,,,,,,,,,
,,,,,R_9DYDk9iFYbXY8m1,001,2025-08-01_11h25.34.970,continuous_performance_test,2024.2.4,Win32,59.17159763,507.5068,509.2455,space,1,0,0,0,24,1,Z,space,0.8513,,500.781,507.4962,space,6.6835,,,,,,
,,,,,R_9DYDk9iFYbXY8m1,001,2025-08-01_11h25.34.970,continuous_performance_test,2024.2.4,Win32,59.17159763,509.2477,510.8455,,1,0,1,1,25,1,X,,,,,,,,,,,,,
,,,,,R_9DYDk9iFYbXY8m1,001,2025-08-01_11h25.34.970,continuous_performance_test,2024.2.4,Win32,59.17159763,510.8476,512.4459,space,1,0,2,2,15,1,P,space,0.5176,,,,,,,,,,,
,,,,,R_9DYDk9iFYbXY8m1,001,2025-08-01_11h25.34.970,continuous_performance_test,2024.2.4,Win32,59.17159763,512.4485,513.9959,space,1,0,3,3,18,1,S,space,0.5718,,,,,,,,,,,
,,,,,R_9DYDk9iFYbXY8m1,001,2025-08-01_11h25.34.970,continuous_performance_test,2024.2.4,Win32,59.17159763,513.9987,515.6956,space,1,0,4,4,1,1,B,space,0.6211,,,,,,,,,,,
,,,,,R_9DYDk9iFYbXY8m1,001,2025-08-01_11h25.34.970,continuous_performance_test,2024.2.4,Win32,59.17159763,515.6979,517.2456,space,1,0,5,5,11,1,L,space,0.5999,,,,,,,,,,,
,,,,,R_9DYDk9iFYbXY8m1,001,2025-08-01_11h25.34.970,continuous_performance_test,2024.2.4,Win32,59.17159763,517.2483,519.2455,space,1,0,6,6,6,1,G,space,0.5524,,,,,,,,,,,
,,,,,R_9DYDk9iFYbXY8m1,001,2025-08-01_11h25.34.970,continuous_performance_test,2024.2.4,Win32,59.17159763,519.2478,520.8355,space,1,0,7,7,19,1,T,space,0.4834,,,,,,,,,,,
,,,,,R_9DYDk9iFYbXY8m1,001,2025-08-01_11h25.34.970,continuous_performance_test,2024.2.4,Win32,59.17159763,520.838,522.6792,space,1,0,8,8,9,1,J,space,0.3678,,,,,,,,,,,
,,,,,R_9DYDk9iFYbXY8m1,001,2025-08-01_11h25.34.970,continuous_performance_test,2024.2.4,Win32,59.17159763,522.6825,524.6791,space,1,0,9,9,20,1,U,space,0.4346,,,,,,,,,,,
,,,,,R_9DYDk9iFYbXY8m1,001,2025-08-01_11h25.34.970,continuous_performance_test,2024.2.4,Win32,59.17159763,524.6823,526.5287,space,1,0,10,10,4,1,E,space,0.3874,,,,,,,,,,,
,,,,,R_9DYDk9iFYbXY8m1,001,2025-08-01_11h25.34.970,continuous_performance_test,2024.2.4,Win32,59.17159763,526.5317,528.2289,,1,0,11,11,28,1,X,,,,,,,,,,,,,
,,,,,R_9DYDk9iFYbXY8m1,001,2025-08-01_11h25.34.970,continuous_performance_test,2024.2.4,Win32,59.17159763,528.2314,529.9791,space,1,0,12,12,12,1,M,space,0.4846,,,,,,,,,,,
,,,,,R_9DYDk9iFYbXY8m1,001,2025-08-01_11h25.34.970,continuous_performance_test,2024.2.4,Win32,59.17159763,529.9818,531.6791,,1,0,13,13,26,1,X,,,,,,,,,,,,,
,,,,,R_9DYDk9iFYbXY8m1,001,2025-08-01_11h25.34.970,continuous_performance_test,2024.2.4,Win32,59.17159763,531.6818,533.4788,space,1,0,14,14,8,1,I,space,0.4357,,,,,,,,,,,
,,,,,R_9DYDk9iFYbXY8m1,001,2025-08-01_11h25.34.970,continuous_performance_test,2024.2.4,Win32,59.17159763,533.4819,535.4288,space,1,0,15,15,17,1,R,space,0.4202,,,,,,,,,,,
,,,,,R_9DYDk9iFYbXY8m1,001,2025-08-01_11h25.34.970,continuous_performance_test,2024.2.4,Win32,59.17159763,535.4313,537.3787,space,1,0,16,16,22,1,W,space,0.4675,,,,,,,,,,,
,,,,,R_9DYDk9iFYbXY8m1,001,2025-08-01_11h25.34.970,continuous_performance_test,2024.2.4,Win32,59.17159763,537.3808,539.1289,space,1,0,17,17,2,1,C,space,0.4732,,,,,,,,,,,
,,,,,R_9DYDk9iFYbXY8m1,001,2025-08-01_11h25.34.970,continuous_performance_test,2024.2.4,Win32,59.17159763,539.1321,540.8322,space,1,0,18,18,14,1,O,space,0.5522,,,,,,,,,,,
,,,,,R_9DYDk9iFYbXY8m1,001,2025-08-01_11h25.34.970,continuous_performance_test,2024.2.4,Win32,59.17159763,540.8342,542.6286,space,1,0,19,19,5,1,F,space,0.4909,,,,,,,,,,,
,,,,,R_9DYDk9iFYbXY8m1,001,2025-08-01_11h25.34.970,continuous_performance_test,2024.2.4,Win32,59.17159763,542.6311,544.2288,space,1,0,20,20,0,1,A,space,0.5063,,,,,,,,,,,
,,,,,R_9DYDk9iFYbXY8m1,001,2025-08-01_11h25.34.970,continuous_performance_test,2024.2.4,Win32,59.17159763,544.2321,546.0287,space,1,0,21,21,21,1,V,space,0.621,,,,,,,,,,,
,,,,,R_9DYDk9iFYbXY8m1,001,2025-08-01_11h25.34.970,continuous_performance_test,2024.2.4,Win32,59.17159763,546.031,547.9287,space,1,0,22,22,3,1,D,space,0.4014,,,,,,,,,,,
,,,,,R_9DYDk9iFYbXY8m1,001,2025-08-01_11h25.34.970,continuous_performance_test,2024.2.4,Win32,59.17159763,547.9318,549.6286,space,1,0,23,23,13,1,N,space,0.4481,,,,,,,,,,,
,,,,,R_9DYDk9iFYbXY8m1,001,2025-08-01_11h25.34.970,continuous_performance_test,2024.2.4,Win32,59.17159763,549.6323,551.4284,space,1,0,24,24,23,1,Y,space,0.5796,,,,,,,,,,,
,,,,,R_9DYDk9iFYbXY8m1,001,2025-08-01_11h25.34.970,continuous_performance_test,2024.2.4,Win32,59.17159763,551.4314,553.2284,,1,0,25,25,29,1,X,,,,,,,,,,,,,
,,,,,R_9DYDk9iFYbXY8m1,001,2025-08-01_11h25.34.970,continuous_performance_test,2024.2.4,Win32,59.17159763,553.2315,554.8793,space,1,0,26,26,10,1,K,space,0.6022,,,,,,,,,,,
,,,,,R_9DYDk9iFYbXY8m1,001,2025-08-01_11h25.34.970,continuous_performance_test,2024.2.4,Win32,59.17159763,554.8824,556.4285,,1,0,27,27,27,1,X,,,,,,,,,,,,,
,,,,,R_9DYDk9iFYbXY8m1,001,2025-08-01_11h25.34.970,continuous_performance_test,2024.2.4,Win32,59.17159763,556.4316,557.9789,space,1,0,28,28,16,1,Q,space,0.5688,,,,,,,,,,,
,,,,,R_9DYDk9iFYbXY8m1,001,2025-08-01_11h25.34.970,continuous_performance_test,2024.2.4,Win32,59.17159763,557.9824,559.9288,space,1,0,29,29,7,1,H,space,0.5821,,,,,,,,,,,
,,,,,R_9DYDk9iFYbXY8m1,001,2025-08-01_11h25.34.970,continuous_performance_test,2024.2.4,Win32,59.17159763,567.7057,569.2453,space,1,0,0,0,9,1,J,space,0.4521,,559.9315,567.6953,space,7.7346,,,,,,
,,,,,R_9DYDk9iFYbXY8m1,001,2025-08-01_11h25.34.970,continuous_performance_test,2024.2.4,Win32,59.17159763,569.2481,571.0951,space,1,0,1,1,7,1,H,space,0.5783,,,,,,,,,,,
,,,,,R_9DYDk9iFYbXY8m1,001,2025-08-01_11h25.34.970,continuous_performance_test,2024.2.4,Win32,59.17159763,571.0985,572.7949,space,1,0,2,2,6,1,G,space,0.4503,,,,,,,,,,,
,,,,,R_9DYDk9iFYbXY8m1,001,2025-08-01_11h25.34.970,continuous_performance_test,2024.2.4,Win32,59.17159763,572.798,574.3452,space,1,0,3,3,8,1,I,space,0.4512,,,,,,,,,,,
,,,,,R_9DYDk9iFYbXY8m1,001,2025-08-01_11h25.34.970,continuous_performance_test,2024.2.4,Win32,59.17159763,574.3479,576.0945,space,1,0,4,4,16,1,Q,space,0.4341,,,,,,,,,,,
,,,,,R_9DYDk9iFYbXY8m1,001,2025-08-01_11h25.34.970,continuous_performance_test,2024.2.4,Win32,59.17159763,576.0969,577.9878,space,1,0,5,5,18,1,S,space,0.5064,,,,,,,,,,,
,,,,,R_9DYDk9iFYbXY8m1,001,2025-08-01_11h25.34.970,continuous_performance_test,2024.2.4,Win32,59.17159763,577.9903,579.6785,space,1,0,6,6,23,1,Y,space,0.584,,,,,,,,,,,
,,,,,R_9DYDk9iFYbXY8m1,001,2025-08-01_11h25.34.970,continuous_performance_test,2024.2.4,Win32,59.17159763,579.6824,581.228,,1,0,7,7,29,1,X,,,,,,,,,,,,,
,,,,,R_9DYDk9iFYbXY8m1,001,2025-08-01_11h25.34.970,continuous_performance_test,2024.2.4,Win32,59.17159763,581.2307,582.9784,space,1,0,8,8,17,1,R,space,0.6326,,,,,,,,,,,
,,,,,R_9DYDk9iFYbXY8m1,001,2025-08-01_11h25.34.970,continuous_performance_test,2024.2.4,Win32,59.17159763,582.9817,584.6282,space,1,0,9,9,1,1,B,space,0.5849,,,,,,,,,,,
,,,,,R_9DYDk9iFYbXY8m1,001,2025-08-01_11h25.34.970,continuous_performance_test,2024.2.4,Win32,59.17159763,584.6305,586.536,space,1,0,10,10,3,1,D,space,0.4682,,,,,,,,,,,
,,,,,R_9DYDk9iFYbXY8m1,001,2025-08-01_11h25.34.970,continuous_performance_test,2024.2.4,Win32,59.17159763,586.5386,588.3281,space,1,0,11,11,13,1,N,space,0.4693,,,,,,,,,,,
,,,,,R_9DYDk9iFYbXY8m1,001,2025-08-01_11h25.34.970,continuous_performance_test,2024.2.4,Win32,59.17159763,588.3312,590.2281,space,1,0,12,12,5,1,F,space,0.5535,,,,,,,,,,,
,,,,,R_9DYDk9iFYbXY8m1,001,2025-08-01_11h25.34.970,continuous_performance_test,2024.2.4,Win32,59.17159763,590.2309,592.2282,space,1,0,13,13,11,1,L,space,0.5549,,,,,,,,,,,
,,,,,R_9DYDk9iFYbXY8m1,001,2025-08-01_11h25.34.970,continuous_performance_test,2024.2.4,Win32,59.17159763,592.2317,594.178,space,1,0,14,14,24,1,Z,space,0.7193,,,,,,,,,,,
,,,,,R_9DYDk9iFYbXY8m1,001,2025-08-01_11h25.34.970,continuous_performance_test,2024.2.4,Win32,59.17159763,594.1807,595.8312,,1,0,15,15,26,1,X,,,,,,,,,,,,,
,,,,,R_9DYDk9iFYbXY8m1,001,2025-08-01_11h25.34.970,continuous_performance_test,2024.2.4,Win32,59.17159763,595.8324,597.5783,,1,0,16,16,28,1,X,,,,,,,,,,,,,
,,,,,R_9DYDk9iFYbXY8m1,001,2025-08-01_11h25.34.970,continuous_performance_test,2024.2.4,Win32,59.17159763,597.5816,599.187,space,1,0,17,17,10,1,K,space,0.5845,,,,,,,,,,,
,,,,,R_9DYDk9iFYbXY8m1,001,2025-08-01_11h25.34.970,continuous_performance_test,2024.2.4,Win32,59.17159763,599.1899,600.8781,space,1,0,18,18,15,1,P,space,0.5857,,,,,,,,,,,
,,,,,R_9DYDk9iFYbXY8m1,001,2025-08-01_11h25.34.970,continuous_performance_test,2024.2.4,Win32,59.17159763,600.881,602.5777,space,1,0,19,19,21,1,V,space,0.4843,,,,,,,,,,,
,,,,,R_9DYDk9iFYbXY8m1,001,2025-08-01_11h25.34.970,continuous_performance_test,2024.2.4,Win32,59.17159763,602.5802,604.428,space,1,0,20,20,0,1,A,space,0.5345,,,,,,,,,,,
,,,,,R_9DYDk9iFYbXY8m1,001,2025-08-01_11h25.34.970,continuous_performance_test,2024.2.4,Win32,59.17159763,604.4303,605.988,space,1,0,21,21,2,1,C,space,0.5677,,,,,,,,,,,
,,,,,R_9DYDk9iFYbXY8m1,001,2025-08-01_11h25.34.970,continuous_performance_test,2024.2.4,Win32,59.17159763,605.9905,607.7778,space,1,0,22,22,19,1,T,space,0.4452,,,,,,,,,,,
,,,,,R_9DYDk9iFYbXY8m1,001,2025-08-01_11h25.34.970,continuous_performance_test,2024.2.4,Win32,59.17159763,607.7806,609.4783,space,1,0,23,23,22,1,W,space,0.5597,,,,,,,,,,,
,,,,,R_9DYDk9iFYbXY8m1,001,2025-08-01_11h25.34.970,continuous_performance_test,2024.2.4,Win32,59.17159763,609.4808,611.0778,,1,0,24,24,25,1,X,,,,,,,,,,,,,
,,,,,R_9DYDk9iFYbXY8m1,001,2025-08-01_11h25.34.970,continuous_performance_test,2024.2.4,Win32,59.17159763,611.0807,612.8315,space,1,0,25,25,12,1,M,space,0.6075,,,,,,,,,,,
,,,,,R_9DYDk9iFYbXY8m1,001,2025-08-01_11h25.34.970,continuous_performance_test,2024.2.4,Win32,59.17159763,612.8337,614.4276,space,1,0,26,26,20,1,U,space,0.571,,,,,,,,,,,
,,,,,R_9DYDk9iFYbXY8m1,001,2025-08-01_11h25.34.970,continuous_performance_test,2024.2.4,Win32,59.17159763,614.4302,616.1277,,1,0,27,27,27,1,X,,,,,,,,,,,,,
,,,,,R_9DYDk9iFYbXY8m1,001,2025-08-01_11h25.34.970,continuous_performance_test,2024.2.4,Win32,59.17159763,616.1305,617.7281,space,1,0,28,28,4,1,E,space,0.4475,,,,,,,,,,,
,,,,,R_9DYDk9iFYbXY8m1,001,2025-08-01_11h25.34.970,continuous_performance_test,2024.2.4,Win32,59.17159763,617.7309,619.3778,space,1,0,29,29,14,1,O,space,0.4211,,,,,,,,,,,
,,,,,R_9DYDk9iFYbXY8m1,001,2025-08-01_11h25.34.970,continuous_performance_test,2024.2.4,Win32,59.17159763,,,,,,,,,,,,,,619.3797,619.3816,,,,619.3821,625.8359,space,6.4303,
