Instructions.started,Instructions.stopped,key_resp.keys,key_resp.rt,key_resp.duration,participant,session,date,expName,psychopyVersion,OS,frameRate,realeye-tester-id,realeye-tester-quality_grade,Trial_noX.started,Trial_noX.stopped,response.keys,response.corr,trials_noX.thisRepN,trials_noX.thisTrialN,trials_noX.thisN,trials_noX.thisIndex,trials_noX.ran,letter,corrAns,response.rt,response.duration,BlockBreak.started,BlockBreak.stopped,key_instruct.keys,key_instruct.rt,key_instruct.duration,End_NoX.started,End_NoX.stopped,key_resp_end_noX.keys,key_resp_end_noX.rt,key_resp_end_noX.duration
0.0004,13.4211,space,13.3967,,R_9dDWY865eapQxZF,001,2025-08-27_19h29.04.541,continuous_performance_test,2024.2.4,Win32,59.88023952,dabfa304-d66f-4d85-a328-7fd8e22338d3,6,,,,,,,,,,,,,,,,,,,,,,,
,,,,,R_9dDWY865eapQxZF,001,2025-08-27_19h29.04.541,continuous_performance_test,2024.2.4,Win32,59.88023952,dabfa304-d66f-4d85-a328-7fd8e22338d3,6,13.4328,14.9733,,0,0,0,0,14,1,O,space,,,,,,,,,,,,
,,,,,R_9dDWY865eapQxZF,001,2025-08-27_19h29.04.541,continuous_performance_test,2024.2.4,Win32,59.88023952,dabfa304-d66f-4d85-a328-7fd8e22338d3,6,14.9743,16.8707,space,1,0,1,1,11,1,L,space,0.5575,,,,,,,,,,,
,,,,,R_9dDWY865eapQxZF,001,2025-08-27_19h29.04.541,continuous_performance_test,2024.2.4,Win32,59.88023952,dabfa304-d66f-4d85-a328-7fd8e22338d3,6,16.8715,18.7207,space,0,0,2,2,25,1,X,,0.4115,,,,,,,,,,,
,,,,,R_9dDWY865eapQxZF,001,2025-08-27_19h29.04.541,continuous_performance_test,2024.2.4,Win32,59.88023952,dabfa304-d66f-4d85-a328-7fd8e22338d3,6,18.7214,20.6707,,1,0,3,3,29,1,X,,,,,,,,,,,,,
,,,,,R_9dDWY865eapQxZF,001,2025-08-27_19h29.04.541,continuous_performance_test,2024.2.4,Win32,59.88023952,dabfa304-d66f-4d85-a328-7fd8e22338d3,6,20.6718,22.6207,space,1,0,4,4,21,1,V,space,0.3997,,,,,,,,,,,
,,,,,R_9dDWY865eapQxZF,001,2025-08-27_19h29.04.541,continuous_performance_test,2024.2.4,Win32,59.88023952,dabfa304-d66f-4d85-a328-7fd8e22338d3,6,22.6218,24.5707,space,1,0,5,5,0,1,A,space,0.3858,,,,,,,,,,,
,,,,,R_9dDWY865eapQxZF,001,2025-08-27_19h29.04.541,continuous_performance_test,2024.2.4,Win32,59.88023952,dabfa304-d66f-4d85-a328-7fd8e22338d3,6,24.5717,26.5707,space,1,0,6,6,22,1,W,space,0.4338,,,,,,,,,,,
,,,,,R_9dDWY865eapQxZF,001,2025-08-27_19h29.04.541,continuous_performance_test,2024.2.4,Win32,59.88023952,dabfa304-d66f-4d85-a328-7fd8e22338d3,6,26.5715,28.5706,space,1,0,7,7,8,1,I,space,0.4418,,,,,,,,,,,
,,,,,R_9dDWY865eapQxZF,001,2025-08-27_19h29.04.541,continuous_performance_test,2024.2.4,Win32,59.88023952,dabfa304-d66f-4d85-a328-7fd8e22338d3,6,28.5714,30.4206,,1,0,8,8,28,1,X,,,,,,,,,,,,,
,,,,,R_9dDWY865eapQxZF,001,2025-08-27_19h29.04.541,continuous_performance_test,2024.2.4,Win32,59.88023952,dabfa304-d66f-4d85-a328-7fd8e22338d3,6,30.4214,32.1206,space,1,0,9,9,1,1,B,space,0.4277,,,,,,,,,,,
,,,,,R_9dDWY865eapQxZF,001,2025-08-27_19h29.04.541,continuous_performance_test,2024.2.4,Win32,59.88023952,dabfa304-d66f-4d85-a328-7fd8e22338d3,6,32.1212,33.9706,space,0,0,10,10,27,1,X,,0.3699,,,,,,,,,,,
,,,,,R_9dDWY865eapQxZF,001,2025-08-27_19h29.04.541,continuous_performance_test,2024.2.4,Win32,59.88023952,dabfa304-d66f-4d85-a328-7fd8e22338d3,6,33.9714,35.5206,space,1,0,11,11,23,1,Y,space,0.6598,,,,,,,,,,,
,,,,,R_9dDWY865eapQxZF,001,2025-08-27_19h29.04.541,continuous_performance_test,2024.2.4,Win32,59.88023952,dabfa304-d66f-4d85-a328-7fd8e22338d3,6,35.5214,37.1205,space,1,0,12,12,18,1,S,space,0.4837,,,,,,,,,,,
,,,,,R_9dDWY865eapQxZF,001,2025-08-27_19h29.04.541,continuous_performance_test,2024.2.4,Win32,59.88023952,dabfa304-d66f-4d85-a328-7fd8e22338d3,6,37.1213,38.8205,space,1,0,13,13,2,1,C,space,0.4716,,,,,,,,,,,
,,,,,R_9dDWY865eapQxZF,001,2025-08-27_19h29.04.541,continuous_performance_test,2024.2.4,Win32,59.88023952,dabfa304-d66f-4d85-a328-7fd8e22338d3,6,38.8213,40.6204,space,1,0,14,14,17,1,R,space,0.3916,,,,,,,,,,,
,,,,,R_9dDWY865eapQxZF,001,2025-08-27_19h29.04.541,continuous_performance_test,2024.2.4,Win32,59.88023952,dabfa304-d66f-4d85-a328-7fd8e22338d3,6,40.6212,42.6204,space,1,0,15,15,4,1,E,space,0.4637,,,,,,,,,,,
,,,,,R_9dDWY865eapQxZF,001,2025-08-27_19h29.04.541,continuous_performance_test,2024.2.4,Win32,59.88023952,dabfa304-d66f-4d85-a328-7fd8e22338d3,6,42.6212,44.3226,space,1,0,16,16,5,1,F,space,0.3799,,,,,,,,,,,
,,,,,R_9dDWY865eapQxZF,001,2025-08-27_19h29.04.541,continuous_performance_test,2024.2.4,Win32,59.88023952,dabfa304-d66f-4d85-a328-7fd8e22338d3,6,44.3233,45.8705,space,1,0,17,17,12,1,M,space,0.3901,,,,,,,,,,,
,,,,,R_9dDWY865eapQxZF,001,2025-08-27_19h29.04.541,continuous_performance_test,2024.2.4,Win32,59.88023952,dabfa304-d66f-4d85-a328-7fd8e22338d3,6,45.8712,47.5207,space,1,0,18,18,10,1,K,space,0.4358,,,,,,,,,,,
,,,,,R_9dDWY865eapQxZF,001,2025-08-27_19h29.04.541,continuous_performance_test,2024.2.4,Win32,59.88023952,dabfa304-d66f-4d85-a328-7fd8e22338d3,6,47.5216,49.1707,space,1,0,19,19,7,1,H,space,0.4664,,,,,,,,,,,
,,,,,R_9dDWY865eapQxZF,001,2025-08-27_19h29.04.541,continuous_performance_test,2024.2.4,Win32,59.88023952,dabfa304-d66f-4d85-a328-7fd8e22338d3,6,49.1715,50.7205,space,1,0,20,20,19,1,T,space,0.3717,,,,,,,,,,,
,,,,,R_9dDWY865eapQxZF,001,2025-08-27_19h29.04.541,continuous_performance_test,2024.2.4,Win32,59.88023952,dabfa304-d66f-4d85-a328-7fd8e22338d3,6,50.721,52.4704,space,0,0,21,21,26,1,X,,0.3997,,,,,,,,,,,
,,,,,R_9dDWY865eapQxZF,001,2025-08-27_19h29.04.541,continuous_performance_test,2024.2.4,Win32,59.88023952,dabfa304-d66f-4d85-a328-7fd8e22338d3,6,52.4711,54.2704,space,1,0,22,22,3,1,D,space,0.0539,,,,,,,,,,,
,,,,,R_9dDWY865eapQxZF,001,2025-08-27_19h29.04.541,continuous_performance_test,2024.2.4,Win32,59.88023952,dabfa304-d66f-4d85-a328-7fd8e22338d3,6,54.2712,56.0704,space,1,0,23,23,20,1,U,space,0.358,,,,,,,,,,,
,,,,,R_9dDWY865eapQxZF,001,2025-08-27_19h29.04.541,continuous_performance_test,2024.2.4,Win32,59.88023952,dabfa304-d66f-4d85-a328-7fd8e22338d3,6,56.0711,57.7203,space,1,0,24,24,16,1,Q,space,0.4278,,,,,,,,,,,
,,,,,R_9dDWY865eapQxZF,001,2025-08-27_19h29.04.541,continuous_performance_test,2024.2.4,Win32,59.88023952,dabfa304-d66f-4d85-a328-7fd8e22338d3,6,57.7212,59.6705,space,1,0,25,25,13,1,N,space,0.4618,,,,,,,,,,,
,,,,,R_9dDWY865eapQxZF,001,2025-08-27_19h29.04.541,continuous_performance_test,2024.2.4,Win32,59.88023952,dabfa304-d66f-4d85-a328-7fd8e22338d3,6,59.6713,61.4203,space,1,0,26,26,15,1,P,space,0.5039,,,,,,,,,,,
,,,,,R_9dDWY865eapQxZF,001,2025-08-27_19h29.04.541,continuous_performance_test,2024.2.4,Win32,59.88023952,dabfa304-d66f-4d85-a328-7fd8e22338d3,6,61.4212,63.0702,space,1,0,27,27,6,1,G,space,0.358,,,,,,,,,,,
,,,,,R_9dDWY865eapQxZF,001,2025-08-27_19h29.04.541,continuous_performance_test,2024.2.4,Win32,59.88023952,dabfa304-d66f-4d85-a328-7fd8e22338d3,6,63.0711,64.7202,space,1,0,28,28,9,1,J,space,0.5498,,,,,,,,,,,
,,,,,R_9dDWY865eapQxZF,001,2025-08-27_19h29.04.541,continuous_performance_test,2024.2.4,Win32,59.88023952,dabfa304-d66f-4d85-a328-7fd8e22338d3,6,64.7211,66.4702,space,1,0,29,29,24,1,Z,space,0.3665,,,,,,,,,,,
,,,,,R_9dDWY865eapQxZF,001,2025-08-27_19h29.04.541,continuous_performance_test,2024.2.4,Win32,59.88023952,dabfa304-d66f-4d85-a328-7fd8e22338d3,6,76.3422,78.0367,space,1,0,0,0,13,1,N,space,0.7678,,66.4705,76.3371,space,9.8448,,,,,,
,,,,,R_9dDWY865eapQxZF,001,2025-08-27_19h29.04.541,continuous_performance_test,2024.2.4,Win32,59.88023952,dabfa304-d66f-4d85-a328-7fd8e22338d3,6,78.0375,79.6368,space,1,0,1,1,0,1,A,space,0.3997,,,,,,,,,,,
,,,,,R_9dDWY865eapQxZF,001,2025-08-27_19h29.04.541,continuous_performance_test,2024.2.4,Win32,59.88023952,dabfa304-d66f-4d85-a328-7fd8e22338d3,6,79.6375,81.3368,space,1,0,2,2,24,1,Z,space,0.4916,,,,,,,,,,,
,,,,,R_9dDWY865eapQxZF,001,2025-08-27_19h29.04.541,continuous_performance_test,2024.2.4,Win32,59.88023952,dabfa304-d66f-4d85-a328-7fd8e22338d3,6,81.3374,83.1868,space,1,0,3,3,1,1,B,space,0.4175,,,,,,,,,,,
,,,,,R_9dDWY865eapQxZF,001,2025-08-27_19h29.04.541,continuous_performance_test,2024.2.4,Win32,59.88023952,dabfa304-d66f-4d85-a328-7fd8e22338d3,6,83.1875,84.8368,space,1,0,4,4,14,1,O,space,0.4633,,,,,,,,,,,
,,,,,R_9dDWY865eapQxZF,001,2025-08-27_19h29.04.541,continuous_performance_test,2024.2.4,Win32,59.88023952,dabfa304-d66f-4d85-a328-7fd8e22338d3,6,84.8374,86.6867,space,1,0,5,5,5,1,F,space,0.4455,,,,,,,,,,,
,,,,,R_9dDWY865eapQxZF,001,2025-08-27_19h29.04.541,continuous_performance_test,2024.2.4,Win32,59.88023952,dabfa304-d66f-4d85-a328-7fd8e22338d3,6,86.6873,88.4367,space,1,0,6,6,4,1,E,space,0.4164,,,,,,,,,,,
,,,,,R_9dDWY865eapQxZF,001,2025-08-27_19h29.04.541,continuous_performance_test,2024.2.4,Win32,59.88023952,dabfa304-d66f-4d85-a328-7fd8e22338d3,6,88.4374,90.3867,space,1,0,7,7,11,1,L,space,0.3854,,,,,,,,,,,
,,,,,R_9dDWY865eapQxZF,001,2025-08-27_19h29.04.541,continuous_performance_test,2024.2.4,Win32,59.88023952,dabfa304-d66f-4d85-a328-7fd8e22338d3,6,90.3873,92.2867,space,1,0,8,8,15,1,P,space,0.3826,,,,,,,,,,,
,,,,,R_9dDWY865eapQxZF,001,2025-08-27_19h29.04.541,continuous_performance_test,2024.2.4,Win32,59.88023952,dabfa304-d66f-4d85-a328-7fd8e22338d3,6,92.2873,93.8368,space,1,0,9,9,10,1,K,space,0.4635,,,,,,,,,,,
,,,,,R_9dDWY865eapQxZF,001,2025-08-27_19h29.04.541,continuous_performance_test,2024.2.4,Win32,59.88023952,dabfa304-d66f-4d85-a328-7fd8e22338d3,6,93.8374,95.7366,space,0,0,10,10,27,1,X,,0.3796,,,,,,,,,,,
,,,,,R_9dDWY865eapQxZF,001,2025-08-27_19h29.04.541,continuous_performance_test,2024.2.4,Win32,59.88023952,dabfa304-d66f-4d85-a328-7fd8e22338d3,6,95.7372,97.4366,space,1,0,11,11,20,1,U,space,0.4502,,,,,,,,,,,
,,,,,R_9dDWY865eapQxZF,001,2025-08-27_19h29.04.541,continuous_performance_test,2024.2.4,Win32,59.88023952,dabfa304-d66f-4d85-a328-7fd8e22338d3,6,97.4372,98.9866,space,0,0,12,12,28,1,X,,0.4017,,,,,,,,,,,
,,,,,R_9dDWY865eapQxZF,001,2025-08-27_19h29.04.541,continuous_performance_test,2024.2.4,Win32,59.88023952,dabfa304-d66f-4d85-a328-7fd8e22338d3,6,98.9871,100.7366,space,0,0,13,13,29,1,X,,0.5009,,,,,,,,,,,
,,,,,R_9dDWY865eapQxZF,001,2025-08-27_19h29.04.541,continuous_performance_test,2024.2.4,Win32,59.88023952,dabfa304-d66f-4d85-a328-7fd8e22338d3,6,100.7374,102.4866,space,1,0,14,14,12,1,M,space,0.7096,,,,,,,,,,,
,,,,,R_9dDWY865eapQxZF,001,2025-08-27_19h29.04.541,continuous_performance_test,2024.2.4,Win32,59.88023952,dabfa304-d66f-4d85-a328-7fd8e22338d3,6,102.4872,104.2367,space,0,0,15,15,26,1,X,,0.3998,,,,,,,,,,,
,,,,,R_9dDWY865eapQxZF,001,2025-08-27_19h29.04.541,continuous_performance_test,2024.2.4,Win32,59.88023952,dabfa304-d66f-4d85-a328-7fd8e22338d3,6,104.2372,106.1865,space,1,0,16,16,6,1,G,space,0.5297,,,,,,,,,,,
,,,,,R_9dDWY865eapQxZF,001,2025-08-27_19h29.04.541,continuous_performance_test,2024.2.4,Win32,59.88023952,dabfa304-d66f-4d85-a328-7fd8e22338d3,6,106.1871,107.7366,space,1,0,17,17,16,1,Q,space,0.5237,,,,,,,,,,,
,,,,,R_9dDWY865eapQxZF,001,2025-08-27_19h29.04.541,continuous_performance_test,2024.2.4,Win32,59.88023952,dabfa304-d66f-4d85-a328-7fd8e22338d3,6,107.7372,109.4865,space,1,0,18,18,23,1,Y,space,0.4218,,,,,,,,,,,
,,,,,R_9dDWY865eapQxZF,001,2025-08-27_19h29.04.541,continuous_performance_test,2024.2.4,Win32,59.88023952,dabfa304-d66f-4d85-a328-7fd8e22338d3,6,109.4871,111.2865,space,1,0,19,19,9,1,J,space,0.4536,,,,,,,,,,,
,,,,,R_9dDWY865eapQxZF,001,2025-08-27_19h29.04.541,continuous_performance_test,2024.2.4,Win32,59.88023952,dabfa304-d66f-4d85-a328-7fd8e22338d3,6,111.287,113.1865,space,1,0,20,20,22,1,W,space,0.5217,,,,,,,,,,,
,,,,,R_9dDWY865eapQxZF,001,2025-08-27_19h29.04.541,continuous_performance_test,2024.2.4,Win32,59.88023952,dabfa304-d66f-4d85-a328-7fd8e22338d3,6,113.187,115.0365,space,1,0,21,21,2,1,C,space,0.4235,,,,,,,,,,,
,,,,,R_9dDWY865eapQxZF,001,2025-08-27_19h29.04.541,continuous_performance_test,2024.2.4,Win32,59.88023952,dabfa304-d66f-4d85-a328-7fd8e22338d3,6,115.0371,116.9865,space,1,0,22,22,8,1,I,space,0.4258,,,,,,,,,,,
,,,,,R_9dDWY865eapQxZF,001,2025-08-27_19h29.04.541,continuous_performance_test,2024.2.4,Win32,59.88023952,dabfa304-d66f-4d85-a328-7fd8e22338d3,6,116.9871,118.6864,space,1,0,23,23,7,1,H,space,0.3663,,,,,,,,,,,
,,,,,R_9dDWY865eapQxZF,001,2025-08-27_19h29.04.541,continuous_performance_test,2024.2.4,Win32,59.88023952,dabfa304-d66f-4d85-a328-7fd8e22338d3,6,118.687,120.4864,space,1,0,24,24,17,1,R,space,0.43,,,,,,,,,,,
,,,,,R_9dDWY865eapQxZF,001,2025-08-27_19h29.04.541,continuous_performance_test,2024.2.4,Win32,59.88023952,dabfa304-d66f-4d85-a328-7fd8e22338d3,6,120.4871,122.1865,space,0,0,25,25,25,1,X,,0.5137,,,,,,,,,,,
,,,,,R_9dDWY865eapQxZF,001,2025-08-27_19h29.04.541,continuous_performance_test,2024.2.4,Win32,59.88023952,dabfa304-d66f-4d85-a328-7fd8e22338d3,6,122.187,124.1365,space,1,0,26,26,18,1,S,space,0.2117,,,,,,,,,,,
,,,,,R_9dDWY865eapQxZF,001,2025-08-27_19h29.04.541,continuous_performance_test,2024.2.4,Win32,59.88023952,dabfa304-d66f-4d85-a328-7fd8e22338d3,6,124.137,125.9364,space,1,0,27,27,19,1,T,space,0.5331,,,,,,,,,,,
,,,,,R_9dDWY865eapQxZF,001,2025-08-27_19h29.04.541,continuous_performance_test,2024.2.4,Win32,59.88023952,dabfa304-d66f-4d85-a328-7fd8e22338d3,6,125.937,127.5864,space,1,0,28,28,3,1,D,space,0.4663,,,,,,,,,,,
,,,,,R_9dDWY865eapQxZF,001,2025-08-27_19h29.04.541,continuous_performance_test,2024.2.4,Win32,59.88023952,dabfa304-d66f-4d85-a328-7fd8e22338d3,6,127.587,129.3863,space,1,0,29,29,21,1,V,space,0.3858,,,,,,,,,,,
,,,,,R_9dDWY865eapQxZF,001,2025-08-27_19h29.04.541,continuous_performance_test,2024.2.4,Win32,59.88023952,dabfa304-d66f-4d85-a328-7fd8e22338d3,6,131.173,133.1197,space,1,0,0,0,5,1,F,space,0.7332,,129.387,131.1699,space,1.7527,,,,,,
,,,,,R_9dDWY865eapQxZF,001,2025-08-27_19h29.04.541,continuous_performance_test,2024.2.4,Win32,59.88023952,dabfa304-d66f-4d85-a328-7fd8e22338d3,6,133.1202,134.6697,space,0,0,1,1,25,1,X,,0.4705,,,,,,,,,,,
,,,,,R_9dDWY865eapQxZF,001,2025-08-27_19h29.04.541,continuous_performance_test,2024.2.4,Win32,59.88023952,dabfa304-d66f-4d85-a328-7fd8e22338d3,6,134.6703,136.3697,space,1,0,2,2,13,1,N,space,0.4105,,,,,,,,,,,
,,,,,R_9dDWY865eapQxZF,001,2025-08-27_19h29.04.541,continuous_performance_test,2024.2.4,Win32,59.88023952,dabfa304-d66f-4d85-a328-7fd8e22338d3,6,136.3703,138.3196,space,1,0,3,3,4,1,E,space,0.3887,,,,,,,,,,,
,,,,,R_9dDWY865eapQxZF,001,2025-08-27_19h29.04.541,continuous_performance_test,2024.2.4,Win32,59.88023952,dabfa304-d66f-4d85-a328-7fd8e22338d3,6,138.3201,139.9696,space,1,0,4,4,3,1,D,space,0.4026,,,,,,,,,,,
,,,,,R_9dDWY865eapQxZF,001,2025-08-27_19h29.04.541,continuous_performance_test,2024.2.4,Win32,59.88023952,dabfa304-d66f-4d85-a328-7fd8e22338d3,6,139.9702,141.8696,space,1,0,5,5,9,1,J,space,0.4164,,,,,,,,,,,
,,,,,R_9dDWY865eapQxZF,001,2025-08-27_19h29.04.541,continuous_performance_test,2024.2.4,Win32,59.88023952,dabfa304-d66f-4d85-a328-7fd8e22338d3,6,141.8702,143.4696,,1,0,6,6,26,1,X,,,,,,,,,,,,,
,,,,,R_9dDWY865eapQxZF,001,2025-08-27_19h29.04.541,continuous_performance_test,2024.2.4,Win32,59.88023952,dabfa304-d66f-4d85-a328-7fd8e22338d3,6,143.4701,145.4196,space,0,0,7,7,29,1,X,,0.4098,,,,,,,,,,,
,,,,,R_9dDWY865eapQxZF,001,2025-08-27_19h29.04.541,continuous_performance_test,2024.2.4,Win32,59.88023952,dabfa304-d66f-4d85-a328-7fd8e22338d3,6,145.4202,147.3196,space,1,0,8,8,20,1,U,space,0.5174,,,,,,,,,,,
,,,,,R_9dDWY865eapQxZF,001,2025-08-27_19h29.04.541,continuous_performance_test,2024.2.4,Win32,59.88023952,dabfa304-d66f-4d85-a328-7fd8e22338d3,6,147.3202,149.0697,space,1,0,9,9,6,1,G,space,0.6229,,,,,,,,,,,
,,,,,R_9dDWY865eapQxZF,001,2025-08-27_19h29.04.541,continuous_performance_test,2024.2.4,Win32,59.88023952,dabfa304-d66f-4d85-a328-7fd8e22338d3,6,149.0704,150.8195,space,1,0,10,10,22,1,W,space,0.3846,,,,,,,,,,,
,,,,,R_9dDWY865eapQxZF,001,2025-08-27_19h29.04.541,continuous_performance_test,2024.2.4,Win32,59.88023952,dabfa304-d66f-4d85-a328-7fd8e22338d3,6,150.8201,152.7195,space,1,0,11,11,0,1,A,space,0.517,,,,,,,,,,,
,,,,,R_9dDWY865eapQxZF,001,2025-08-27_19h29.04.541,continuous_performance_test,2024.2.4,Win32,59.88023952,dabfa304-d66f-4d85-a328-7fd8e22338d3,6,152.72,154.5695,space,1,0,12,12,17,1,R,space,0.3947,,,,,,,,,,,
,,,,,R_9dDWY865eapQxZF,001,2025-08-27_19h29.04.541,continuous_performance_test,2024.2.4,Win32,59.88023952,dabfa304-d66f-4d85-a328-7fd8e22338d3,6,154.57,156.5195,space,1,0,13,13,2,1,C,space,0.3968,,,,,,,,,,,
,,,,,R_9dDWY865eapQxZF,001,2025-08-27_19h29.04.541,continuous_performance_test,2024.2.4,Win32,59.88023952,dabfa304-d66f-4d85-a328-7fd8e22338d3,6,156.5201,158.5195,space,0,0,14,14,27,1,X,,0.4215,,,,,,,,,,,
,,,,,R_9dDWY865eapQxZF,001,2025-08-27_19h29.04.541,continuous_performance_test,2024.2.4,Win32,59.88023952,dabfa304-d66f-4d85-a328-7fd8e22338d3,6,158.5201,160.2695,space,1,0,15,15,7,1,H,space,0.4152,,,,,,,,,,,
,,,,,R_9dDWY865eapQxZF,001,2025-08-27_19h29.04.541,continuous_performance_test,2024.2.4,Win32,59.88023952,dabfa304-d66f-4d85-a328-7fd8e22338d3,6,160.27,161.8194,space,1,0,16,16,21,1,V,space,0.4969,,,,,,,,,,,
,,,,,R_9dDWY865eapQxZF,001,2025-08-27_19h29.04.541,continuous_performance_test,2024.2.4,Win32,59.88023952,dabfa304-d66f-4d85-a328-7fd8e22338d3,6,161.82,163.4694,space,1,0,17,17,14,1,O,space,0.407,,,,,,,,,,,
,,,,,R_9dDWY865eapQxZF,001,2025-08-27_19h29.04.541,continuous_performance_test,2024.2.4,Win32,59.88023952,dabfa304-d66f-4d85-a328-7fd8e22338d3,6,163.4699,165.2194,space,1,0,18,18,16,1,Q,space,0.4008,,,,,,,,,,,
,,,,,R_9dDWY865eapQxZF,001,2025-08-27_19h29.04.541,continuous_performance_test,2024.2.4,Win32,59.88023952,dabfa304-d66f-4d85-a328-7fd8e22338d3,6,165.22,167.0194,space,1,0,19,19,23,1,Y,space,0.4512,,,,,,,,,,,
,,,,,R_9dDWY865eapQxZF,001,2025-08-27_19h29.04.541,continuous_performance_test,2024.2.4,Win32,59.88023952,dabfa304-d66f-4d85-a328-7fd8e22338d3,6,167.02,168.8213,,1,0,20,20,28,1,X,,,,,,,,,,,,,
,,,,,R_9dDWY865eapQxZF,001,2025-08-27_19h29.04.541,continuous_performance_test,2024.2.4,Win32,59.88023952,dabfa304-d66f-4d85-a328-7fd8e22338d3,6,168.8218,170.4219,space,1,0,21,21,15,1,P,space,0.4831,,,,,,,,,,,
,,,,,R_9dDWY865eapQxZF,001,2025-08-27_19h29.04.541,continuous_performance_test,2024.2.4,Win32,59.88023952,dabfa304-d66f-4d85-a328-7fd8e22338d3,6,170.4224,172.3693,space,1,0,22,22,8,1,I,space,0.4107,,,,,,,,,,,
,,,,,R_9dDWY865eapQxZF,001,2025-08-27_19h29.04.541,continuous_performance_test,2024.2.4,Win32,59.88023952,dabfa304-d66f-4d85-a328-7fd8e22338d3,6,172.3699,174.2193,space,1,0,23,23,18,1,S,space,0.3931,,,,,,,,,,,
,,,,,R_9dDWY865eapQxZF,001,2025-08-27_19h29.04.541,continuous_performance_test,2024.2.4,Win32,59.88023952,dabfa304-d66f-4d85-a328-7fd8e22338d3,6,174.2198,176.0695,space,1,0,24,24,11,1,L,space,0.4002,,,,,,,,,,,
,,,,,R_9dDWY865eapQxZF,001,2025-08-27_19h29.04.541,continuous_performance_test,2024.2.4,Win32,59.88023952,dabfa304-d66f-4d85-a328-7fd8e22338d3,6,176.0701,177.6194,space,1,0,25,25,19,1,T,space,0.4502,,,,,,,,,,,
,,,,,R_9dDWY865eapQxZF,001,2025-08-27_19h29.04.541,continuous_performance_test,2024.2.4,Win32,59.88023952,dabfa304-d66f-4d85-a328-7fd8e22338d3,6,177.62,179.1694,space,1,0,26,26,24,1,Z,space,0.4671,,,,,,,,,,,
,,,,,R_9dDWY865eapQxZF,001,2025-08-27_19h29.04.541,continuous_performance_test,2024.2.4,Win32,59.88023952,dabfa304-d66f-4d85-a328-7fd8e22338d3,6,179.17,180.7193,space,1,0,27,27,12,1,M,space,0.4129,,,,,,,,,,,
,,,,,R_9dDWY865eapQxZF,001,2025-08-27_19h29.04.541,continuous_performance_test,2024.2.4,Win32,59.88023952,dabfa304-d66f-4d85-a328-7fd8e22338d3,6,180.7198,182.3193,space,1,0,28,28,1,1,B,space,0.4448,,,,,,,,,,,
,,,,,R_9dDWY865eapQxZF,001,2025-08-27_19h29.04.541,continuous_performance_test,2024.2.4,Win32,59.88023952,dabfa304-d66f-4d85-a328-7fd8e22338d3,6,182.3198,184.1692,space,1,0,29,29,10,1,K,space,0.4511,,,,,,,,,,,
,,,,,R_9dDWY865eapQxZF,001,2025-08-27_19h29.04.541,continuous_performance_test,2024.2.4,Win32,59.88023952,dabfa304-d66f-4d85-a328-7fd8e22338d3,6,185.5585,187.1527,space,1,0,0,0,2,1,C,space,0.6195,,184.1698,185.5557,space,1.3668,,,,,,
,,,,,R_9dDWY865eapQxZF,001,2025-08-27_19h29.04.541,continuous_performance_test,2024.2.4,Win32,59.88023952,dabfa304-d66f-4d85-a328-7fd8e22338d3,6,187.1532,188.9526,space,1,0,1,1,20,1,U,space,0.4202,,,,,,,,,,,
,,,,,R_9dDWY865eapQxZF,001,2025-08-27_19h29.04.541,continuous_performance_test,2024.2.4,Win32,59.88023952,dabfa304-d66f-4d85-a328-7fd8e22338d3,6,188.9531,190.9025,space,1,0,2,2,4,1,E,space,0.4216,,,,,,,,,,,
,,,,,R_9dDWY865eapQxZF,001,2025-08-27_19h29.04.541,continuous_performance_test,2024.2.4,Win32,59.88023952,dabfa304-d66f-4d85-a328-7fd8e22338d3,6,190.9031,192.7024,space,1,0,3,3,0,1,A,space,0.3829,,,,,,,,,,,
,,,,,R_9dDWY865eapQxZF,001,2025-08-27_19h29.04.541,continuous_performance_test,2024.2.4,Win32,59.88023952,dabfa304-d66f-4d85-a328-7fd8e22338d3,6,192.703,194.2525,space,1,0,4,4,13,1,N,space,0.3836,,,,,,,,,,,
,,,,,R_9dDWY865eapQxZF,001,2025-08-27_19h29.04.541,continuous_performance_test,2024.2.4,Win32,59.88023952,dabfa304-d66f-4d85-a328-7fd8e22338d3,6,194.2531,195.8525,space,1,0,5,5,12,1,M,space,0.5597,,,,,,,,,,,
,,,,,R_9dDWY865eapQxZF,001,2025-08-27_19h29.04.541,continuous_performance_test,2024.2.4,Win32,59.88023952,dabfa304-d66f-4d85-a328-7fd8e22338d3,6,195.853,197.4524,space,0,0,6,6,25,1,X,,0.3597,,,,,,,,,,,
,,,,,R_9dDWY865eapQxZF,001,2025-08-27_19h29.04.541,continuous_performance_test,2024.2.4,Win32,59.88023952,dabfa304-d66f-4d85-a328-7fd8e22338d3,6,197.4529,199.0525,space,0,0,7,7,29,1,X,,0.3849,,,,,,,,,,,
,,,,,R_9dDWY865eapQxZF,001,2025-08-27_19h29.04.541,continuous_performance_test,2024.2.4,Win32,59.88023952,dabfa304-d66f-4d85-a328-7fd8e22338d3,6,199.0531,201.0025,space,1,0,8,8,21,1,V,space,0.5778,,,,,,,,,,,
,,,,,R_9dDWY865eapQxZF,001,2025-08-27_19h29.04.541,continuous_performance_test,2024.2.4,Win32,59.88023952,dabfa304-d66f-4d85-a328-7fd8e22338d3,6,201.003,202.6025,space,1,0,9,9,3,1,D,space,0.4018,,,,,,,,,,,
,,,,,R_9dDWY865eapQxZF,001,2025-08-27_19h29.04.541,continuous_performance_test,2024.2.4,Win32,59.88023952,dabfa304-d66f-4d85-a328-7fd8e22338d3,6,202.6031,204.2025,space,1,0,10,10,22,1,W,space,0.4258,,,,,,,,,,,
,,,,,R_9dDWY865eapQxZF,001,2025-08-27_19h29.04.541,continuous_performance_test,2024.2.4,Win32,59.88023952,dabfa304-d66f-4d85-a328-7fd8e22338d3,6,204.203,205.9024,space,1,0,11,11,17,1,R,space,0.4846,,,,,,,,,,,
,,,,,R_9dDWY865eapQxZF,001,2025-08-27_19h29.04.541,continuous_performance_test,2024.2.4,Win32,59.88023952,dabfa304-d66f-4d85-a328-7fd8e22338d3,6,205.9029,207.5024,space,1,0,12,12,15,1,P,space,0.4057,,,,,,,,,,,
,,,,,R_9dDWY865eapQxZF,001,2025-08-27_19h29.04.541,continuous_performance_test,2024.2.4,Win32,59.88023952,dabfa304-d66f-4d85-a328-7fd8e22338d3,6,207.503,209.3523,space,1,0,13,13,6,1,G,space,0.533,,,,,,,,,,,
,,,,,R_9dDWY865eapQxZF,001,2025-08-27_19h29.04.541,continuous_performance_test,2024.2.4,Win32,59.88023952,dabfa304-d66f-4d85-a328-7fd8e22338d3,6,209.3529,211.3024,space,1,0,14,14,10,1,K,space,0.3997,,,,,,,,,,,
,,,,,R_9dDWY865eapQxZF,001,2025-08-27_19h29.04.541,continuous_performance_test,2024.2.4,Win32,59.88023952,dabfa304-d66f-4d85-a328-7fd8e22338d3,6,211.3029,213.1023,space,1,0,15,15,24,1,Z,space,0.3738,,,,,,,,,,,
,,,,,R_9dDWY865eapQxZF,001,2025-08-27_19h29.04.541,continuous_performance_test,2024.2.4,Win32,59.88023952,dabfa304-d66f-4d85-a328-7fd8e22338d3,6,213.1029,214.7524,space,1,0,16,16,16,1,Q,space,0.4039,,,,,,,,,,,
,,,,,R_9dDWY865eapQxZF,001,2025-08-27_19h29.04.541,continuous_performance_test,2024.2.4,Win32,59.88023952,dabfa304-d66f-4d85-a328-7fd8e22338d3,6,214.7529,216.6523,space,1,0,17,17,18,1,S,space,0.408,,,,,,,,,,,
,,,,,R_9dDWY865eapQxZF,001,2025-08-27_19h29.04.541,continuous_performance_test,2024.2.4,Win32,59.88023952,dabfa304-d66f-4d85-a328-7fd8e22338d3,6,216.653,218.2024,space,1,0,18,18,7,1,H,space,0.4019,,,,,,,,,,,
,,,,,R_9dDWY865eapQxZF,001,2025-08-27_19h29.04.541,continuous_performance_test,2024.2.4,Win32,59.88023952,dabfa304-d66f-4d85-a328-7fd8e22338d3,6,218.203,220.1024,space,0,0,19,19,27,1,X,,0.4003,,,,,,,,,,,
,,,,,R_9dDWY865eapQxZF,001,2025-08-27_19h29.04.541,continuous_performance_test,2024.2.4,Win32,59.88023952,dabfa304-d66f-4d85-a328-7fd8e22338d3,6,220.103,221.7023,space,1,0,20,20,5,1,F,space,0.5261,,,,,,,,,,,
,,,,,R_9dDWY865eapQxZF,001,2025-08-27_19h29.04.541,continuous_performance_test,2024.2.4,Win32,59.88023952,dabfa304-d66f-4d85-a328-7fd8e22338d3,6,221.7029,223.4022,space,1,0,21,21,19,1,T,space,0.6246,,,,,,,,,,,
,,,,,R_9dDWY865eapQxZF,001,2025-08-27_19h29.04.541,continuous_performance_test,2024.2.4,Win32,59.88023952,dabfa304-d66f-4d85-a328-7fd8e22338d3,6,223.4028,225.0022,space,1,0,22,22,9,1,J,space,0.4339,,,,,,,,,,,
,,,,,R_9dDWY865eapQxZF,001,2025-08-27_19h29.04.541,continuous_performance_test,2024.2.4,Win32,59.88023952,dabfa304-d66f-4d85-a328-7fd8e22338d3,6,225.0028,226.7022,space,1,0,23,23,11,1,L,space,0.4066,,,,,,,,,,,
,,,,,R_9dDWY865eapQxZF,001,2025-08-27_19h29.04.541,continuous_performance_test,2024.2.4,Win32,59.88023952,dabfa304-d66f-4d85-a328-7fd8e22338d3,6,226.7028,228.7022,space,1,0,24,24,1,1,B,space,0.4043,,,,,,,,,,,
,,,,,R_9dDWY865eapQxZF,001,2025-08-27_19h29.04.541,continuous_performance_test,2024.2.4,Win32,59.88023952,dabfa304-d66f-4d85-a328-7fd8e22338d3,6,228.7028,230.2522,space,1,0,25,25,8,1,I,space,0.4667,,,,,,,,,,,
,,,,,R_9dDWY865eapQxZF,001,2025-08-27_19h29.04.541,continuous_performance_test,2024.2.4,Win32,59.88023952,dabfa304-d66f-4d85-a328-7fd8e22338d3,6,230.2528,232.2021,space,0,0,26,26,28,1,X,,0.4021,,,,,,,,,,,
,,,,,R_9dDWY865eapQxZF,001,2025-08-27_19h29.04.541,continuous_performance_test,2024.2.4,Win32,59.88023952,dabfa304-d66f-4d85-a328-7fd8e22338d3,6,232.2028,233.7522,space,1,0,27,27,14,1,O,space,0.5083,,,,,,,,,,,
,,,,,R_9dDWY865eapQxZF,001,2025-08-27_19h29.04.541,continuous_performance_test,2024.2.4,Win32,59.88023952,dabfa304-d66f-4d85-a328-7fd8e22338d3,6,233.7527,235.3521,space,1,0,28,28,23,1,Y,space,0.4281,,,,,,,,,,,
,,,,,R_9dDWY865eapQxZF,001,2025-08-27_19h29.04.541,continuous_performance_test,2024.2.4,Win32,59.88023952,dabfa304-d66f-4d85-a328-7fd8e22338d3,6,235.3527,236.9521,,1,0,29,29,26,1,X,,,,,,,,,,,,,
,,,,,R_9dDWY865eapQxZF,001,2025-08-27_19h29.04.541,continuous_performance_test,2024.2.4,Win32,59.88023952,dabfa304-d66f-4d85-a328-7fd8e22338d3,6,238.2718,239.9688,space,0,0,0,0,28,1,X,,0.6446,,236.9527,238.2689,space,1.2909,,,,,,
,,,,,R_9dDWY865eapQxZF,001,2025-08-27_19h29.04.541,continuous_performance_test,2024.2.4,Win32,59.88023952,dabfa304-d66f-4d85-a328-7fd8e22338d3,6,239.9693,241.9688,space,1,0,1,1,11,1,L,space,0.4275,,,,,,,,,,,
,,,,,R_9dDWY865eapQxZF,001,2025-08-27_19h29.04.541,continuous_performance_test,2024.2.4,Win32,59.88023952,dabfa304-d66f-4d85-a328-7fd8e22338d3,6,241.9694,243.9688,space,1,0,2,2,5,1,F,space,0.3955,,,,,,,,,,,
,,,,,R_9dDWY865eapQxZF,001,2025-08-27_19h29.04.541,continuous_performance_test,2024.2.4,Win32,59.88023952,dabfa304-d66f-4d85-a328-7fd8e22338d3,6,243.9694,245.9688,space,1,0,3,3,24,1,Z,space,0.3955,,,,,,,,,,,
,,,,,R_9dDWY865eapQxZF,001,2025-08-27_19h29.04.541,continuous_performance_test,2024.2.4,Win32,59.88023952,dabfa304-d66f-4d85-a328-7fd8e22338d3,6,245.9695,247.8187,space,0,0,4,4,25,1,X,,0.4336,,,,,,,,,,,
,,,,,R_9dDWY865eapQxZF,001,2025-08-27_19h29.04.541,continuous_performance_test,2024.2.4,Win32,59.88023952,dabfa304-d66f-4d85-a328-7fd8e22338d3,6,247.8192,249.7686,space,1,0,5,5,15,1,P,space,0.5075,,,,,,,,,,,
,,,,,R_9dDWY865eapQxZF,001,2025-08-27_19h29.04.541,continuous_performance_test,2024.2.4,Win32,59.88023952,dabfa304-d66f-4d85-a328-7fd8e22338d3,6,249.7693,251.5187,space,1,0,6,6,18,1,S,space,0.5414,,,,,,,,,,,
,,,,,R_9dDWY865eapQxZF,001,2025-08-27_19h29.04.541,continuous_performance_test,2024.2.4,Win32,59.88023952,dabfa304-d66f-4d85-a328-7fd8e22338d3,6,251.5193,253.2686,space,1,0,7,7,17,1,R,space,0.3664,,,,,,,,,,,
,,,,,R_9dDWY865eapQxZF,001,2025-08-27_19h29.04.541,continuous_performance_test,2024.2.4,Win32,59.88023952,dabfa304-d66f-4d85-a328-7fd8e22338d3,6,253.2692,254.8187,space,1,0,8,8,22,1,W,space,0.5055,,,,,,,,,,,
,,,,,R_9dDWY865eapQxZF,001,2025-08-27_19h29.04.541,continuous_performance_test,2024.2.4,Win32,59.88023952,dabfa304-d66f-4d85-a328-7fd8e22338d3,6,254.8192,256.4686,space,1,0,9,9,9,1,J,space,0.3676,,,,,,,,,,,
,,,,,R_9dDWY865eapQxZF,001,2025-08-27_19h29.04.541,continuous_performance_test,2024.2.4,Win32,59.88023952,dabfa304-d66f-4d85-a328-7fd8e22338d3,6,256.4692,258.2686,space,0,0,10,10,26,1,X,,0.4498,,,,,,,,,,,
,,,,,R_9dDWY865eapQxZF,001,2025-08-27_19h29.04.541,continuous_performance_test,2024.2.4,Win32,59.88023952,dabfa304-d66f-4d85-a328-7fd8e22338d3,6,258.2692,259.8186,space,1,0,11,11,6,1,G,space,0.5457,,,,,,,,,,,
,,,,,R_9dDWY865eapQxZF,001,2025-08-27_19h29.04.541,continuous_performance_test,2024.2.4,Win32,59.88023952,dabfa304-d66f-4d85-a328-7fd8e22338d3,6,259.8191,261.7187,space,1,0,12,12,7,1,H,space,0.3825,,,,,,,,,,,
,,,,,R_9dDWY865eapQxZF,001,2025-08-27_19h29.04.541,continuous_performance_test,2024.2.4,Win32,59.88023952,dabfa304-d66f-4d85-a328-7fd8e22338d3,6,261.7193,263.5185,space,0,0,13,13,29,1,X,,0.4138,,,,,,,,,,,
,,,,,R_9dDWY865eapQxZF,001,2025-08-27_19h29.04.541,continuous_performance_test,2024.2.4,Win32,59.88023952,dabfa304-d66f-4d85-a328-7fd8e22338d3,6,263.5191,265.2186,,0,0,14,14,10,1,K,space,,,,,,,,,,,,
,,,,,R_9dDWY865eapQxZF,001,2025-08-27_19h29.04.541,continuous_performance_test,2024.2.4,Win32,59.88023952,dabfa304-d66f-4d85-a328-7fd8e22338d3,6,265.2193,266.8186,space,1,0,15,15,23,1,Y,space,0.3858,,,,,,,,,,,
,,,,,R_9dDWY865eapQxZF,001,2025-08-27_19h29.04.541,continuous_performance_test,2024.2.4,Win32,59.88023952,dabfa304-d66f-4d85-a328-7fd8e22338d3,6,266.8192,268.3685,space,1,0,16,16,21,1,V,space,0.4038,,,,,,,,,,,
,,,,,R_9dDWY865eapQxZF,001,2025-08-27_19h29.04.541,continuous_performance_test,2024.2.4,Win32,59.88023952,dabfa304-d66f-4d85-a328-7fd8e22338d3,6,268.3691,269.9186,space,1,0,17,17,16,1,Q,space,0.4375,,,,,,,,,,,
,,,,,R_9dDWY865eapQxZF,001,2025-08-27_19h29.04.541,continuous_performance_test,2024.2.4,Win32,59.88023952,dabfa304-d66f-4d85-a328-7fd8e22338d3,6,269.9192,271.6685,space,1,0,18,18,8,1,I,space,0.4078,,,,,,,,,,,
,,,,,R_9dDWY865eapQxZF,001,2025-08-27_19h29.04.541,continuous_performance_test,2024.2.4,Win32,59.88023952,dabfa304-d66f-4d85-a328-7fd8e22338d3,6,271.669,273.5184,space,1,0,19,19,0,1,A,space,0.3995,,,,,,,,,,,
,,,,,R_9dDWY865eapQxZF,001,2025-08-27_19h29.04.541,continuous_performance_test,2024.2.4,Win32,59.88023952,dabfa304-d66f-4d85-a328-7fd8e22338d3,6,273.519,275.4685,space,1,0,20,20,14,1,O,space,0.4001,,,,,,,,,,,
,,,,,R_9dDWY865eapQxZF,001,2025-08-27_19h29.04.541,continuous_performance_test,2024.2.4,Win32,59.88023952,dabfa304-d66f-4d85-a328-7fd8e22338d3,6,275.4691,277.2184,space,1,0,21,21,19,1,T,space,0.4258,,,,,,,,,,,
,,,,,R_9dDWY865eapQxZF,001,2025-08-27_19h29.04.541,continuous_performance_test,2024.2.4,Win32,59.88023952,dabfa304-d66f-4d85-a328-7fd8e22338d3,6,277.219,279.0685,space,1,0,22,22,1,1,B,space,0.5358,,,,,,,,,,,
,,,,,R_9dDWY865eapQxZF,001,2025-08-27_19h29.04.541,continuous_performance_test,2024.2.4,Win32,59.88023952,dabfa304-d66f-4d85-a328-7fd8e22338d3,6,279.0691,281.0184,space,1,0,23,23,20,1,U,space,0.3938,,,,,,,,,,,
,,,,,R_9dDWY865eapQxZF,001,2025-08-27_19h29.04.541,continuous_performance_test,2024.2.4,Win32,59.88023952,dabfa304-d66f-4d85-a328-7fd8e22338d3,6,281.019,282.9684,space,0,0,24,24,27,1,X,,0.3399,,,,,,,,,,,
,,,,,R_9dDWY865eapQxZF,001,2025-08-27_19h29.04.541,continuous_performance_test,2024.2.4,Win32,59.88023952,dabfa304-d66f-4d85-a328-7fd8e22338d3,6,282.969,284.6683,space,1,0,25,25,13,1,N,space,0.7598,,,,,,,,,,,
,,,,,R_9dDWY865eapQxZF,001,2025-08-27_19h29.04.541,continuous_performance_test,2024.2.4,Win32,59.88023952,dabfa304-d66f-4d85-a328-7fd8e22338d3,6,284.669,286.4185,space,1,0,26,26,2,1,C,space,0.5539,,,,,,,,,,,
,,,,,R_9dDWY865eapQxZF,001,2025-08-27_19h29.04.541,continuous_performance_test,2024.2.4,Win32,59.88023952,dabfa304-d66f-4d85-a328-7fd8e22338d3,6,286.4191,288.1684,space,1,0,27,27,4,1,E,space,0.3718,,,,,,,,,,,
,,,,,R_9dDWY865eapQxZF,001,2025-08-27_19h29.04.541,continuous_performance_test,2024.2.4,Win32,59.88023952,dabfa304-d66f-4d85-a328-7fd8e22338d3,6,288.169,289.9684,space,1,0,28,28,3,1,D,space,0.3878,,,,,,,,,,,
,,,,,R_9dDWY865eapQxZF,001,2025-08-27_19h29.04.541,continuous_performance_test,2024.2.4,Win32,59.88023952,dabfa304-d66f-4d85-a328-7fd8e22338d3,6,289.9689,291.8684,space,1,0,29,29,12,1,M,space,0.3839,,,,,,,,,,,
,,,,,R_9dDWY865eapQxZF,001,2025-08-27_19h29.04.541,continuous_performance_test,2024.2.4,Win32,59.88023952,dabfa304-d66f-4d85-a328-7fd8e22338d3,6,296.5407,298.1349,space,1,0,0,0,15,1,P,space,0.5893,,291.8689,296.538,space,4.6501,,,,,,
,,,,,R_9dDWY865eapQxZF,001,2025-08-27_19h29.04.541,continuous_performance_test,2024.2.4,Win32,59.88023952,dabfa304-d66f-4d85-a328-7fd8e22338d3,6,298.1355,299.9349,space,1,0,1,1,22,1,W,space,0.4774,,,,,,,,,,,
,,,,,R_9dDWY865eapQxZF,001,2025-08-27_19h29.04.541,continuous_performance_test,2024.2.4,Win32,59.88023952,dabfa304-d66f-4d85-a328-7fd8e22338d3,6,299.9355,301.8849,space,1,0,2,2,21,1,V,space,0.5498,,,,,,,,,,,
,,,,,R_9dDWY865eapQxZF,001,2025-08-27_19h29.04.541,continuous_performance_test,2024.2.4,Win32,59.88023952,dabfa304-d66f-4d85-a328-7fd8e22338d3,6,301.8854,303.585,space,1,0,3,3,14,1,O,space,0.3792,,,,,,,,,,,
,,,,,R_9dDWY865eapQxZF,001,2025-08-27_19h29.04.541,continuous_performance_test,2024.2.4,Win32,59.88023952,dabfa304-d66f-4d85-a328-7fd8e22338d3,6,303.5855,305.2848,space,1,0,4,4,2,1,C,space,0.3834,,,,,,,,,,,
,,,,,R_9dDWY865eapQxZF,001,2025-08-27_19h29.04.541,continuous_performance_test,2024.2.4,Win32,59.88023952,dabfa304-d66f-4d85-a328-7fd8e22338d3,6,305.2854,306.8349,space,0,0,5,5,27,1,X,,0.3774,,,,,,,,,,,
,,,,,R_9dDWY865eapQxZF,001,2025-08-27_19h29.04.541,continuous_performance_test,2024.2.4,Win32,59.88023952,dabfa304-d66f-4d85-a328-7fd8e22338d3,6,306.8354,308.7848,space,1,0,6,6,10,1,K,space,0.3717,,,,,,,,,,,
,,,,,R_9dDWY865eapQxZF,001,2025-08-27_19h29.04.541,continuous_performance_test,2024.2.4,Win32,59.88023952,dabfa304-d66f-4d85-a328-7fd8e22338d3,6,308.7854,310.535,space,1,0,7,7,0,1,A,space,0.3733,,,,,,,,,,,
,,,,,R_9dDWY865eapQxZF,001,2025-08-27_19h29.04.541,continuous_performance_test,2024.2.4,Win32,59.88023952,dabfa304-d66f-4d85-a328-7fd8e22338d3,6,310.5355,312.2348,space,1,0,8,8,6,1,G,space,0.4013,,,,,,,,,,,
,,,,,R_9dDWY865eapQxZF,001,2025-08-27_19h29.04.541,continuous_performance_test,2024.2.4,Win32,59.88023952,dabfa304-d66f-4d85-a328-7fd8e22338d3,6,312.2355,313.8848,space,1,0,9,9,9,1,J,space,0.4164,,,,,,,,,,,
,,,,,R_9dDWY865eapQxZF,001,2025-08-27_19h29.04.541,continuous_performance_test,2024.2.4,Win32,59.88023952,dabfa304-d66f-4d85-a328-7fd8e22338d3,6,313.8854,315.4348,space,1,0,10,10,3,1,D,space,0.3935,,,,,,,,,,,
,,,,,R_9dDWY865eapQxZF,001,2025-08-27_19h29.04.541,continuous_performance_test,2024.2.4,Win32,59.88023952,dabfa304-d66f-4d85-a328-7fd8e22338d3,6,315.4353,317.3848,space,1,0,11,11,18,1,S,space,0.4675,,,,,,,,,,,
,,,,,R_9dDWY865eapQxZF,001,2025-08-27_19h29.04.541,continuous_performance_test,2024.2.4,Win32,59.88023952,dabfa304-d66f-4d85-a328-7fd8e22338d3,6,317.3854,319.3848,space,0,0,12,12,25,1,X,,0.3795,,,,,,,,,,,
,,,,,R_9dDWY865eapQxZF,001,2025-08-27_19h29.04.541,continuous_performance_test,2024.2.4,Win32,59.88023952,dabfa304-d66f-4d85-a328-7fd8e22338d3,6,319.3854,321.2847,space,1,0,13,13,13,1,N,space,0.4075,,,,,,,,,,,
,,,,,R_9dDWY865eapQxZF,001,2025-08-27_19h29.04.541,continuous_performance_test,2024.2.4,Win32,59.88023952,dabfa304-d66f-4d85-a328-7fd8e22338d3,6,321.2853,322.8847,space,0,0,14,14,26,1,X,,0.4396,,,,,,,,,,,
,,,,,R_9dDWY865eapQxZF,001,2025-08-27_19h29.04.541,continuous_performance_test,2024.2.4,Win32,59.88023952,dabfa304-d66f-4d85-a328-7fd8e22338d3,6,322.8852,324.8347,space,0,0,15,15,29,1,X,,0.3868,,,,,,,,,,,
,,,,,R_9dDWY865eapQxZF,001,2025-08-27_19h29.04.541,continuous_performance_test,2024.2.4,Win32,59.88023952,dabfa304-d66f-4d85-a328-7fd8e22338d3,6,324.8353,326.6347,space,1,0,16,16,5,1,F,space,0.5615,,,,,,,,,,,
,,,,,R_9dDWY865eapQxZF,001,2025-08-27_19h29.04.541,continuous_performance_test,2024.2.4,Win32,59.88023952,dabfa304-d66f-4d85-a328-7fd8e22338d3,6,326.6353,328.6347,space,1,0,17,17,20,1,U,space,0.4175,,,,,,,,,,,
,,,,,R_9dDWY865eapQxZF,001,2025-08-27_19h29.04.541,continuous_performance_test,2024.2.4,Win32,59.88023952,dabfa304-d66f-4d85-a328-7fd8e22338d3,6,328.6352,330.1847,space,1,0,18,18,12,1,M,space,0.4756,,,,,,,,,,,
,,,,,R_9dDWY865eapQxZF,001,2025-08-27_19h29.04.541,continuous_performance_test,2024.2.4,Win32,59.88023952,dabfa304-d66f-4d85-a328-7fd8e22338d3,6,330.1854,331.7346,space,1,0,19,19,17,1,R,space,0.4855,,,,,,,,,,,
,,,,,R_9dDWY865eapQxZF,001,2025-08-27_19h29.04.541,continuous_performance_test,2024.2.4,Win32,59.88023952,dabfa304-d66f-4d85-a328-7fd8e22338d3,6,331.7353,333.5347,space,1,0,20,20,16,1,Q,space,0.4216,,,,,,,,,,,
,,,,,R_9dDWY865eapQxZF,001,2025-08-27_19h29.04.541,continuous_performance_test,2024.2.4,Win32,59.88023952,dabfa304-d66f-4d85-a328-7fd8e22338d3,6,333.5352,335.4847,space,1,0,21,21,7,1,H,space,0.3998,,,,,,,,,,,
,,,,,R_9dDWY865eapQxZF,001,2025-08-27_19h29.04.541,continuous_performance_test,2024.2.4,Win32,59.88023952,dabfa304-d66f-4d85-a328-7fd8e22338d3,6,335.4853,337.4346,space,1,0,22,22,19,1,T,space,0.4831,,,,,,,,,,,
,,,,,R_9dDWY865eapQxZF,001,2025-08-27_19h29.04.541,continuous_performance_test,2024.2.4,Win32,59.88023952,dabfa304-d66f-4d85-a328-7fd8e22338d3,6,337.4352,339.1346,space,1,0,23,23,8,1,I,space,0.4215,,,,,,,,,,,
,,,,,R_9dDWY865eapQxZF,001,2025-08-27_19h29.04.541,continuous_performance_test,2024.2.4,Win32,59.88023952,dabfa304-d66f-4d85-a328-7fd8e22338d3,6,339.1352,341.0846,space,1,0,24,24,24,1,Z,space,0.4496,,,,,,,,,,,
,,,,,R_9dDWY865eapQxZF,001,2025-08-27_19h29.04.541,continuous_performance_test,2024.2.4,Win32,59.88023952,dabfa304-d66f-4d85-a328-7fd8e22338d3,6,341.0852,342.8847,space,0,0,25,25,28,1,X,,0.4496,,,,,,,,,,,
,,,,,R_9dDWY865eapQxZF,001,2025-08-27_19h29.04.541,continuous_performance_test,2024.2.4,Win32,59.88023952,dabfa304-d66f-4d85-a328-7fd8e22338d3,6,342.8853,344.6346,space,1,0,26,26,11,1,L,space,0.4337,,,,,,,,,,,
,,,,,R_9dDWY865eapQxZF,001,2025-08-27_19h29.04.541,continuous_performance_test,2024.2.4,Win32,59.88023952,dabfa304-d66f-4d85-a328-7fd8e22338d3,6,344.6351,346.6345,space,1,0,27,27,23,1,Y,space,0.4497,,,,,,,,,,,
,,,,,R_9dDWY865eapQxZF,001,2025-08-27_19h29.04.541,continuous_performance_test,2024.2.4,Win32,59.88023952,dabfa304-d66f-4d85-a328-7fd8e22338d3,6,346.6351,348.6346,space,1,0,28,28,4,1,E,space,0.4577,,,,,,,,,,,
,,,,,R_9dDWY865eapQxZF,001,2025-08-27_19h29.04.541,continuous_performance_test,2024.2.4,Win32,59.88023952,dabfa304-d66f-4d85-a328-7fd8e22338d3,6,348.6352,350.2345,space,1,0,29,29,1,1,B,space,0.5137,,,,,,,,,,,
,,,,,R_9dDWY865eapQxZF,001,2025-08-27_19h29.04.541,continuous_performance_test,2024.2.4,Win32,59.88023952,dabfa304-d66f-4d85-a328-7fd8e22338d3,6,351.7546,353.6512,space,1,0,0,0,14,1,O,space,0.6331,,350.2351,351.7512,space,1.4885,,,,,,
,,,,,R_9dDWY865eapQxZF,001,2025-08-27_19h29.04.541,continuous_performance_test,2024.2.4,Win32,59.88023952,dabfa304-d66f-4d85-a328-7fd8e22338d3,6,353.6517,355.5011,space,1,0,1,1,21,1,V,space,0.4163,,,,,,,,,,,
,,,,,R_9dDWY865eapQxZF,001,2025-08-27_19h29.04.541,continuous_performance_test,2024.2.4,Win32,59.88023952,dabfa304-d66f-4d85-a328-7fd8e22338d3,6,355.5017,357.3512,space,1,0,2,2,22,1,W,space,0.477,,,,,,,,,,,
,,,,,R_9dDWY865eapQxZF,001,2025-08-27_19h29.04.541,continuous_performance_test,2024.2.4,Win32,59.88023952,dabfa304-d66f-4d85-a328-7fd8e22338d3,6,357.3517,359.2541,space,1,0,3,3,12,1,M,space,0.4668,,,,,,,,,,,
,,,,,R_9dDWY865eapQxZF,001,2025-08-27_19h29.04.541,continuous_performance_test,2024.2.4,Win32,59.88023952,dabfa304-d66f-4d85-a328-7fd8e22338d3,6,359.2546,361.1512,space,1,0,4,4,8,1,I,space,0.509,,,,,,,,,,,
,,,,,R_9dDWY865eapQxZF,001,2025-08-27_19h29.04.541,continuous_performance_test,2024.2.4,Win32,59.88023952,dabfa304-d66f-4d85-a328-7fd8e22338d3,6,361.1518,362.9011,space,1,0,5,5,24,1,Z,space,0.4076,,,,,,,,,,,
,,,,,R_9dDWY865eapQxZF,001,2025-08-27_19h29.04.541,continuous_performance_test,2024.2.4,Win32,59.88023952,dabfa304-d66f-4d85-a328-7fd8e22338d3,6,362.9016,364.8011,space,1,0,6,6,17,1,R,space,0.5333,,,,,,,,,,,
,,,,,R_9dDWY865eapQxZF,001,2025-08-27_19h29.04.541,continuous_performance_test,2024.2.4,Win32,59.88023952,dabfa304-d66f-4d85-a328-7fd8e22338d3,6,364.8016,366.7511,space,1,0,7,7,15,1,P,space,0.3997,,,,,,,,,,,
,,,,,R_9dDWY865eapQxZF,001,2025-08-27_19h29.04.541,continuous_performance_test,2024.2.4,Win32,59.88023952,dabfa304-d66f-4d85-a328-7fd8e22338d3,6,366.7517,368.601,space,0,0,8,8,29,1,X,,0.4273,,,,,,,,,,,
,,,,,R_9dDWY865eapQxZF,001,2025-08-27_19h29.04.541,continuous_performance_test,2024.2.4,Win32,59.88023952,dabfa304-d66f-4d85-a328-7fd8e22338d3,6,368.6016,370.401,space,1,0,9,9,23,1,Y,space,0.2352,,,,,,,,,,,
,,,,,R_9dDWY865eapQxZF,001,2025-08-27_19h29.04.541,continuous_performance_test,2024.2.4,Win32,59.88023952,dabfa304-d66f-4d85-a328-7fd8e22338d3,6,370.4017,372.201,space,0,0,10,10,26,1,X,,0.4273,,,,,,,,,,,
,,,,,R_9dDWY865eapQxZF,001,2025-08-27_19h29.04.541,continuous_performance_test,2024.2.4,Win32,59.88023952,dabfa304-d66f-4d85-a328-7fd8e22338d3,6,372.2016,373.9509,space,1,0,11,11,2,1,C,space,0.4615,,,,,,,,,,,
,,,,,R_9dDWY865eapQxZF,001,2025-08-27_19h29.04.541,continuous_performance_test,2024.2.4,Win32,59.88023952,dabfa304-d66f-4d85-a328-7fd8e22338d3,6,373.9516,375.501,space,1,0,12,12,13,1,N,space,0.4076,,,,,,,,,,,
,,,,,R_9dDWY865eapQxZF,001,2025-08-27_19h29.04.541,continuous_performance_test,2024.2.4,Win32,59.88023952,dabfa304-d66f-4d85-a328-7fd8e22338d3,6,375.5015,377.3509,space,1,0,13,13,0,1,A,space,0.3733,,,,,,,,,,,
,,,,,R_9dDWY865eapQxZF,001,2025-08-27_19h29.04.541,continuous_performance_test,2024.2.4,Win32,59.88023952,dabfa304-d66f-4d85-a328-7fd8e22338d3,6,377.3515,379.3009,space,1,0,14,14,20,1,U,space,0.4497,,,,,,,,,,,
,,,,,R_9dDWY865eapQxZF,001,2025-08-27_19h29.04.541,continuous_performance_test,2024.2.4,Win32,59.88023952,dabfa304-d66f-4d85-a328-7fd8e22338d3,6,379.3015,381.0008,space,1,0,15,15,6,1,G,space,0.4272,,,,,,,,,,,
,,,,,R_9dDWY865eapQxZF,001,2025-08-27_19h29.04.541,continuous_performance_test,2024.2.4,Win32,59.88023952,dabfa304-d66f-4d85-a328-7fd8e22338d3,6,381.0014,382.551,space,1,0,16,16,10,1,K,space,0.4211,,,,,,,,,,,
,,,,,R_9dDWY865eapQxZF,001,2025-08-27_19h29.04.541,continuous_performance_test,2024.2.4,Win32,59.88023952,dabfa304-d66f-4d85-a328-7fd8e22338d3,6,382.5516,384.2508,space,0,0,17,17,25,1,X,,0.4095,,,,,,,,,,,
,,,,,R_9dDWY865eapQxZF,001,2025-08-27_19h29.04.541,continuous_performance_test,2024.2.4,Win32,59.88023952,dabfa304-d66f-4d85-a328-7fd8e22338d3,6,384.2514,386.1008,space,1,0,18,18,7,1,H,space,0.1753,,,,,,,,,,,
,,,,,R_9dDWY865eapQxZF,001,2025-08-27_19h29.04.541,continuous_performance_test,2024.2.4,Win32,59.88023952,dabfa304-d66f-4d85-a328-7fd8e22338d3,6,386.1014,388.0508,space,1,0,19,19,4,1,E,space,0.3933,,,,,,,,,,,
,,,,,R_9dDWY865eapQxZF,001,2025-08-27_19h29.04.541,continuous_performance_test,2024.2.4,Win32,59.88023952,dabfa304-d66f-4d85-a328-7fd8e22338d3,6,388.0514,389.7008,space,1,0,20,20,1,1,B,space,0.4501,,,,,,,,,,,
,,,,,R_9dDWY865eapQxZF,001,2025-08-27_19h29.04.541,continuous_performance_test,2024.2.4,Win32,59.88023952,dabfa304-d66f-4d85-a328-7fd8e22338d3,6,389.7014,391.3508,space,1,0,21,21,19,1,T,space,0.4293,,,,,,,,,,,
,,,,,R_9dDWY865eapQxZF,001,2025-08-27_19h29.04.541,continuous_performance_test,2024.2.4,Win32,59.88023952,dabfa304-d66f-4d85-a328-7fd8e22338d3,6,391.3514,393.1508,space,1,0,22,22,16,1,Q,space,0.5254,,,,,,,,,,,
,,,,,R_9dDWY865eapQxZF,001,2025-08-27_19h29.04.541,continuous_performance_test,2024.2.4,Win32,59.88023952,dabfa304-d66f-4d85-a328-7fd8e22338d3,6,393.1514,394.8507,space,0,0,23,23,28,1,X,,0.4256,,,,,,,,,,,
,,,,,R_9dDWY865eapQxZF,001,2025-08-27_19h29.04.541,continuous_performance_test,2024.2.4,Win32,59.88023952,dabfa304-d66f-4d85-a328-7fd8e22338d3,6,394.8513,396.5008,space,1,0,24,24,5,1,F,space,0.4794,,,,,,,,,,,
,,,,,R_9dDWY865eapQxZF,001,2025-08-27_19h29.04.541,continuous_performance_test,2024.2.4,Win32,59.88023952,dabfa304-d66f-4d85-a328-7fd8e22338d3,6,396.5014,398.1008,space,0,0,25,25,27,1,X,,0.4883,,,,,,,,,,,
,,,,,R_9dDWY865eapQxZF,001,2025-08-27_19h29.04.541,continuous_performance_test,2024.2.4,Win32,59.88023952,dabfa304-d66f-4d85-a328-7fd8e22338d3,6,398.1014,399.7008,space,1,0,26,26,3,1,D,space,0.5355,,,,,,,,,,,
,,,,,R_9dDWY865eapQxZF,001,2025-08-27_19h29.04.541,continuous_performance_test,2024.2.4,Win32,59.88023952,dabfa304-d66f-4d85-a328-7fd8e22338d3,6,399.7013,401.4508,space,1,0,27,27,18,1,S,space,0.3215,,,,,,,,,,,
,,,,,R_9dDWY865eapQxZF,001,2025-08-27_19h29.04.541,continuous_performance_test,2024.2.4,Win32,59.88023952,dabfa304-d66f-4d85-a328-7fd8e22338d3,6,401.4513,403.3007,space,1,0,28,28,9,1,J,space,0.4168,,,,,,,,,,,
,,,,,R_9dDWY865eapQxZF,001,2025-08-27_19h29.04.541,continuous_performance_test,2024.2.4,Win32,59.88023952,dabfa304-d66f-4d85-a328-7fd8e22338d3,6,403.3014,405.0007,space,1,0,29,29,11,1,L,space,0.3797,,,,,,,,,,,
,,,,,R_9dDWY865eapQxZF,001,2025-08-27_19h29.04.541,continuous_performance_test,2024.2.4,Win32,59.88023952,dabfa304-d66f-4d85-a328-7fd8e22338d3,6,406.1366,407.934,space,1,0,0,0,15,1,P,space,0.5903,,405.0013,406.1342,space,1.1062,,,,,,
,,,,,R_9dDWY865eapQxZF,001,2025-08-27_19h29.04.541,continuous_performance_test,2024.2.4,Win32,59.88023952,dabfa304-d66f-4d85-a328-7fd8e22338d3,6,407.9346,409.8341,space,1,0,1,1,10,1,K,space,0.3941,,,,,,,,,,,
,,,,,R_9dDWY865eapQxZF,001,2025-08-27_19h29.04.541,continuous_performance_test,2024.2.4,Win32,59.88023952,dabfa304-d66f-4d85-a328-7fd8e22338d3,6,409.8347,411.584,space,1,0,2,2,23,1,Y,space,0.4523,,,,,,,,,,,
,,,,,R_9dDWY865eapQxZF,001,2025-08-27_19h29.04.541,continuous_performance_test,2024.2.4,Win32,59.88023952,dabfa304-d66f-4d85-a328-7fd8e22338d3,6,411.5845,413.134,space,1,0,3,3,20,1,U,space,0.4622,,,,,,,,,,,
,,,,,R_9dDWY865eapQxZF,001,2025-08-27_19h29.04.541,continuous_performance_test,2024.2.4,Win32,59.88023952,dabfa304-d66f-4d85-a328-7fd8e22338d3,6,413.1346,415.134,space,1,0,4,4,16,1,Q,space,0.3422,,,,,,,,,,,
,,,,,R_9dDWY865eapQxZF,001,2025-08-27_19h29.04.541,continuous_performance_test,2024.2.4,Win32,59.88023952,dabfa304-d66f-4d85-a328-7fd8e22338d3,6,415.1346,417.0368,space,1,0,5,5,6,1,G,space,0.0115,,,,,,,,,,,
,,,,,R_9dDWY865eapQxZF,001,2025-08-27_19h29.04.541,continuous_performance_test,2024.2.4,Win32,59.88023952,dabfa304-d66f-4d85-a328-7fd8e22338d3,6,417.0373,418.6339,space,1,0,6,6,22,1,W,space,0.3623,,,,,,,,,,,
,,,,,R_9dDWY865eapQxZF,001,2025-08-27_19h29.04.541,continuous_performance_test,2024.2.4,Win32,59.88023952,dabfa304-d66f-4d85-a328-7fd8e22338d3,6,418.6344,420.184,space,1,0,7,7,0,1,A,space,0.4922,,,,,,,,,,,
,,,,,R_9dDWY865eapQxZF,001,2025-08-27_19h29.04.541,continuous_performance_test,2024.2.4,Win32,59.88023952,dabfa304-d66f-4d85-a328-7fd8e22338d3,6,420.1845,421.9838,space,1,0,8,8,21,1,V,space,0.4523,,,,,,,,,,,
,,,,,R_9dDWY865eapQxZF,001,2025-08-27_19h29.04.541,continuous_performance_test,2024.2.4,Win32,59.88023952,dabfa304-d66f-4d85-a328-7fd8e22338d3,6,421.9844,423.9839,space,0,0,9,9,26,1,X,,0.3563,,,,,,,,,,,
,,,,,R_9dDWY865eapQxZF,001,2025-08-27_19h29.04.541,continuous_performance_test,2024.2.4,Win32,59.88023952,dabfa304-d66f-4d85-a328-7fd8e22338d3,6,423.9844,425.5338,space,1,0,10,10,4,1,E,space,0.5026,,,,,,,,,,,
,,,,,R_9dDWY865eapQxZF,001,2025-08-27_19h29.04.541,continuous_performance_test,2024.2.4,Win32,59.88023952,dabfa304-d66f-4d85-a328-7fd8e22338d3,6,425.5344,427.3339,space,1,0,11,11,8,1,I,space,0.3743,,,,,,,,,,,
,,,,,R_9dDWY865eapQxZF,001,2025-08-27_19h29.04.541,continuous_performance_test,2024.2.4,Win32,59.88023952,dabfa304-d66f-4d85-a328-7fd8e22338d3,6,427.3348,429.2338,space,1,0,12,12,14,1,O,space,0.4025,,,,,,,,,,,
,,,,,R_9dDWY865eapQxZF,001,2025-08-27_19h29.04.541,continuous_performance_test,2024.2.4,Win32,59.88023952,dabfa304-d66f-4d85-a328-7fd8e22338d3,6,429.2345,430.8838,space,0,0,13,13,29,1,X,,0.4334,,,,,,,,,,,
,,,,,R_9dDWY865eapQxZF,001,2025-08-27_19h29.04.541,continuous_performance_test,2024.2.4,Win32,59.88023952,dabfa304-d66f-4d85-a328-7fd8e22338d3,6,430.8843,432.4338,space,1,0,14,14,5,1,F,space,0.4423,,,,,,,,,,,
,,,,,R_9dDWY865eapQxZF,001,2025-08-27_19h29.04.541,continuous_performance_test,2024.2.4,Win32,59.88023952,dabfa304-d66f-4d85-a328-7fd8e22338d3,6,432.4343,434.1338,space,1,0,15,15,2,1,C,space,0.3746,,,,,,,,,,,
,,,,,R_9dDWY865eapQxZF,001,2025-08-27_19h29.04.541,continuous_performance_test,2024.2.4,Win32,59.88023952,dabfa304-d66f-4d85-a328-7fd8e22338d3,6,434.1344,435.9338,space,1,0,16,16,19,1,T,space,0.3747,,,,,,,,,,,
,,,,,R_9dDWY865eapQxZF,001,2025-08-27_19h29.04.541,continuous_performance_test,2024.2.4,Win32,59.88023952,dabfa304-d66f-4d85-a328-7fd8e22338d3,6,435.9343,437.9337,space,0,0,17,17,25,1,X,,0.3832,,,,,,,,,,,
,,,,,R_9dDWY865eapQxZF,001,2025-08-27_19h29.04.541,continuous_performance_test,2024.2.4,Win32,59.88023952,dabfa304-d66f-4d85-a328-7fd8e22338d3,6,437.9343,439.8338,space,1,0,18,18,24,1,Z,space,0.4185,,,,,,,,,,,
,,,,,R_9dDWY865eapQxZF,001,2025-08-27_19h29.04.541,continuous_performance_test,2024.2.4,Win32,59.88023952,dabfa304-d66f-4d85-a328-7fd8e22338d3,6,439.8343,441.8337,space,1,0,19,19,13,1,N,space,0.4585,,,,,,,,,,,
,,,,,R_9dDWY865eapQxZF,001,2025-08-27_19h29.04.541,continuous_performance_test,2024.2.4,Win32,59.88023952,dabfa304-d66f-4d85-a328-7fd8e22338d3,6,441.8343,443.5837,space,1,0,20,20,17,1,R,space,0.4684,,,,,,,,,,,
,,,,,R_9dDWY865eapQxZF,001,2025-08-27_19h29.04.541,continuous_performance_test,2024.2.4,Win32,59.88023952,dabfa304-d66f-4d85-a328-7fd8e22338d3,6,443.5843,445.1838,space,1,0,21,21,1,1,B,space,0.4285,,,,,,,,,,,
,,,,,R_9dDWY865eapQxZF,001,2025-08-27_19h29.04.541,continuous_performance_test,2024.2.4,Win32,59.88023952,dabfa304-d66f-4d85-a328-7fd8e22338d3,6,445.1842,447.0837,space,1,0,22,22,7,1,H,space,0.3607,,,,,,,,,,,
,,,,,R_9dDWY865eapQxZF,001,2025-08-27_19h29.04.541,continuous_performance_test,2024.2.4,Win32,59.88023952,dabfa304-d66f-4d85-a328-7fd8e22338d3,6,447.0843,448.6336,space,1,0,23,23,12,1,M,space,0.4026,,,,,,,,,,,
,,,,,R_9dDWY865eapQxZF,001,2025-08-27_19h29.04.541,continuous_performance_test,2024.2.4,Win32,59.88023952,dabfa304-d66f-4d85-a328-7fd8e22338d3,6,448.6342,450.2336,space,1,0,24,24,9,1,J,space,0.4,,,,,,,,,,,
,,,,,R_9dDWY865eapQxZF,001,2025-08-27_19h29.04.541,continuous_performance_test,2024.2.4,Win32,59.88023952,dabfa304-d66f-4d85-a328-7fd8e22338d3,6,450.2342,452.0836,space,1,0,25,25,18,1,S,space,0.7447,,,,,,,,,,,
,,,,,R_9dDWY865eapQxZF,001,2025-08-27_19h29.04.541,continuous_performance_test,2024.2.4,Win32,59.88023952,dabfa304-d66f-4d85-a328-7fd8e22338d3,6,452.0842,453.7336,space,1,0,26,26,11,1,L,space,0.3831,,,,,,,,,,,
,,,,,R_9dDWY865eapQxZF,001,2025-08-27_19h29.04.541,continuous_performance_test,2024.2.4,Win32,59.88023952,dabfa304-d66f-4d85-a328-7fd8e22338d3,6,453.7343,455.3837,space,0,0,27,27,27,1,X,,0.3566,,,,,,,,,,,
,,,,,R_9dDWY865eapQxZF,001,2025-08-27_19h29.04.541,continuous_performance_test,2024.2.4,Win32,59.88023952,dabfa304-d66f-4d85-a328-7fd8e22338d3,6,455.3843,457.0836,space,1,0,28,28,3,1,D,space,0.4088,,,,,,,,,,,
,,,,,R_9dDWY865eapQxZF,001,2025-08-27_19h29.04.541,continuous_performance_test,2024.2.4,Win32,59.88023952,dabfa304-d66f-4d85-a328-7fd8e22338d3,6,457.0842,458.6336,space,0,0,29,29,28,1,X,,0.3947,,,,,,,,,,,
,,,,,R_9dDWY865eapQxZF,001,2025-08-27_19h29.04.541,continuous_performance_test,2024.2.4,Win32,59.88023952,dabfa304-d66f-4d85-a328-7fd8e22338d3,6,460.4226,462.4169,space,1,0,0,0,24,1,Z,space,0.4673,,458.6343,460.4199,space,1.7667,,,,,,
,,,,,R_9dDWY865eapQxZF,001,2025-08-27_19h29.04.541,continuous_performance_test,2024.2.4,Win32,59.88023952,dabfa304-d66f-4d85-a328-7fd8e22338d3,6,462.4175,464.2669,space,1,0,1,1,21,1,V,space,0.4664,,,,,,,,,,,
,,,,,R_9dDWY865eapQxZF,001,2025-08-27_19h29.04.541,continuous_performance_test,2024.2.4,Win32,59.88023952,dabfa304-d66f-4d85-a328-7fd8e22338d3,6,464.2674,466.2169,space,1,0,2,2,8,1,I,space,0.4113,,,,,,,,,,,
,,,,,R_9dDWY865eapQxZF,001,2025-08-27_19h29.04.541,continuous_performance_test,2024.2.4,Win32,59.88023952,dabfa304-d66f-4d85-a328-7fd8e22338d3,6,466.2174,467.7669,space,1,0,3,3,14,1,O,space,0.5735,,,,,,,,,,,
,,,,,R_9dDWY865eapQxZF,001,2025-08-27_19h29.04.541,continuous_performance_test,2024.2.4,Win32,59.88023952,dabfa304-d66f-4d85-a328-7fd8e22338d3,6,467.7675,469.667,space,1,0,4,4,4,1,E,space,0.3693,,,,,,,,,,,
,,,,,R_9dDWY865eapQxZF,001,2025-08-27_19h29.04.541,continuous_performance_test,2024.2.4,Win32,59.88023952,dabfa304-d66f-4d85-a328-7fd8e22338d3,6,469.6675,471.5169,space,1,0,5,5,7,1,H,space,0.3999,,,,,,,,,,,
,,,,,R_9dDWY865eapQxZF,001,2025-08-27_19h29.04.541,continuous_performance_test,2024.2.4,Win32,59.88023952,dabfa304-d66f-4d85-a328-7fd8e22338d3,6,471.5174,473.4668,space,1,0,6,6,3,1,D,space,0.5296,,,,,,,,,,,
,,,,,R_9dDWY865eapQxZF,001,2025-08-27_19h29.04.541,continuous_performance_test,2024.2.4,Win32,59.88023952,dabfa304-d66f-4d85-a328-7fd8e22338d3,6,473.4673,475.1167,space,1,0,7,7,10,1,K,space,0.4165,,,,,,,,,,,
,,,,,R_9dDWY865eapQxZF,001,2025-08-27_19h29.04.541,continuous_performance_test,2024.2.4,Win32,59.88023952,dabfa304-d66f-4d85-a328-7fd8e22338d3,6,475.1174,476.7668,space,1,0,8,8,17,1,R,space,0.3883,,,,,,,,,,,
,,,,,R_9dDWY865eapQxZF,001,2025-08-27_19h29.04.541,continuous_performance_test,2024.2.4,Win32,59.88023952,dabfa304-d66f-4d85-a328-7fd8e22338d3,6,476.7674,478.4668,space,1,0,9,9,2,1,C,space,0.4177,,,,,,,,,,,
,,,,,R_9dDWY865eapQxZF,001,2025-08-27_19h29.04.541,continuous_performance_test,2024.2.4,Win32,59.88023952,dabfa304-d66f-4d85-a328-7fd8e22338d3,6,478.4675,480.1167,,1,0,10,10,29,1,X,,,,,,,,,,,,,
,,,,,R_9dDWY865eapQxZF,001,2025-08-27_19h29.04.541,continuous_performance_test,2024.2.4,Win32,59.88023952,dabfa304-d66f-4d85-a328-7fd8e22338d3,6,480.1173,482.1168,space,0,0,11,11,25,1,X,,0.4007,,,,,,,,,,,
,,,,,R_9dDWY865eapQxZF,001,2025-08-27_19h29.04.541,continuous_performance_test,2024.2.4,Win32,59.88023952,dabfa304-d66f-4d85-a328-7fd8e22338d3,6,482.1173,483.7668,space,1,0,12,12,11,1,L,space,0.5896,,,,,,,,,,,
,,,,,R_9dDWY865eapQxZF,001,2025-08-27_19h29.04.541,continuous_performance_test,2024.2.4,Win32,59.88023952,dabfa304-d66f-4d85-a328-7fd8e22338d3,6,483.7673,485.4168,space,1,0,13,13,13,1,N,space,0.4676,,,,,,,,,,,
,,,,,R_9dDWY865eapQxZF,001,2025-08-27_19h29.04.541,continuous_performance_test,2024.2.4,Win32,59.88023952,dabfa304-d66f-4d85-a328-7fd8e22338d3,6,485.4173,487.2167,space,1,0,14,14,9,1,J,space,0.3797,,,,,,,,,,,
,,,,,R_9dDWY865eapQxZF,001,2025-08-27_19h29.04.541,continuous_performance_test,2024.2.4,Win32,59.88023952,dabfa304-d66f-4d85-a328-7fd8e22338d3,6,487.2173,489.0667,space,1,0,15,15,1,1,B,space,0.4017,,,,,,,,,,,
,,,,,R_9dDWY865eapQxZF,001,2025-08-27_19h29.04.541,continuous_performance_test,2024.2.4,Win32,59.88023952,dabfa304-d66f-4d85-a328-7fd8e22338d3,6,489.0672,490.8667,space,1,0,16,16,20,1,U,space,0.3544,,,,,,,,,,,
,,,,,R_9dDWY865eapQxZF,001,2025-08-27_19h29.04.541,continuous_performance_test,2024.2.4,Win32,59.88023952,dabfa304-d66f-4d85-a328-7fd8e22338d3,6,490.8673,492.8167,space,1,0,17,17,19,1,T,space,0.4355,,,,,,,,,,,
,,,,,R_9dDWY865eapQxZF,001,2025-08-27_19h29.04.541,continuous_performance_test,2024.2.4,Win32,59.88023952,dabfa304-d66f-4d85-a328-7fd8e22338d3,6,492.8172,494.5666,space,1,0,18,18,22,1,W,space,0.4537,,,,,,,,,,,
,,,,,R_9dDWY865eapQxZF,001,2025-08-27_19h29.04.541,continuous_performance_test,2024.2.4,Win32,59.88023952,dabfa304-d66f-4d85-a328-7fd8e22338d3,6,494.5673,496.3668,space,0,0,19,19,26,1,X,,0.4855,,,,,,,,,,,
,,,,,R_9dDWY865eapQxZF,001,2025-08-27_19h29.04.541,continuous_performance_test,2024.2.4,Win32,59.88023952,dabfa304-d66f-4d85-a328-7fd8e22338d3,6,496.3672,497.9166,,1,0,20,20,27,1,X,,,,,,,,,,,,,
,,,,,R_9dDWY865eapQxZF,001,2025-08-27_19h29.04.541,continuous_performance_test,2024.2.4,Win32,59.88023952,dabfa304-d66f-4d85-a328-7fd8e22338d3,6,497.9172,499.6166,space,1,0,21,21,23,1,Y,space,0.4758,,,,,,,,,,,
,,,,,R_9dDWY865eapQxZF,001,2025-08-27_19h29.04.541,continuous_performance_test,2024.2.4,Win32,59.88023952,dabfa304-d66f-4d85-a328-7fd8e22338d3,6,499.6172,501.4666,space,1,0,22,22,15,1,P,space,0.4097,,,,,,,,,,,
,,,,,R_9dDWY865eapQxZF,001,2025-08-27_19h29.04.541,continuous_performance_test,2024.2.4,Win32,59.88023952,dabfa304-d66f-4d85-a328-7fd8e22338d3,6,501.4671,503.3667,space,1,0,23,23,18,1,S,space,0.3736,,,,,,,,,,,
,,,,,R_9dDWY865eapQxZF,001,2025-08-27_19h29.04.541,continuous_performance_test,2024.2.4,Win32,59.88023952,dabfa304-d66f-4d85-a328-7fd8e22338d3,6,503.3673,504.9666,space,1,0,24,24,12,1,M,space,0.3832,,,,,,,,,,,
,,,,,R_9dDWY865eapQxZF,001,2025-08-27_19h29.04.541,continuous_performance_test,2024.2.4,Win32,59.88023952,dabfa304-d66f-4d85-a328-7fd8e22338d3,6,504.9672,506.8166,space,1,0,25,25,6,1,G,space,0.3957,,,,,,,,,,,
,,,,,R_9dDWY865eapQxZF,001,2025-08-27_19h29.04.541,continuous_performance_test,2024.2.4,Win32,59.88023952,dabfa304-d66f-4d85-a328-7fd8e22338d3,6,506.8172,508.4165,space,1,0,26,26,0,1,A,space,0.4596,,,,,,,,,,,
,,,,,R_9dDWY865eapQxZF,001,2025-08-27_19h29.04.541,continuous_performance_test,2024.2.4,Win32,59.88023952,dabfa304-d66f-4d85-a328-7fd8e22338d3,6,508.4171,510.0165,space,0,0,27,27,28,1,X,,0.4041,,,,,,,,,,,
,,,,,R_9dDWY865eapQxZF,001,2025-08-27_19h29.04.541,continuous_performance_test,2024.2.4,Win32,59.88023952,dabfa304-d66f-4d85-a328-7fd8e22338d3,6,510.0171,511.6666,space,1,0,28,28,5,1,F,space,0.5219,,,,,,,,,,,
,,,,,R_9dDWY865eapQxZF,001,2025-08-27_19h29.04.541,continuous_performance_test,2024.2.4,Win32,59.88023952,dabfa304-d66f-4d85-a328-7fd8e22338d3,6,511.6672,513.3665,space,1,0,29,29,16,1,Q,space,0.4297,,,,,,,,,,,
,,,,,R_9dDWY865eapQxZF,001,2025-08-27_19h29.04.541,continuous_performance_test,2024.2.4,Win32,59.88023952,dabfa304-d66f-4d85-a328-7fd8e22338d3,6,514.6528,516.6498,space,1,0,0,0,16,1,Q,space,0.5235,,513.3671,514.6499,space,1.2605,,,,,,
,,,,,R_9dDWY865eapQxZF,001,2025-08-27_19h29.04.541,continuous_performance_test,2024.2.4,Win32,59.88023952,dabfa304-d66f-4d85-a328-7fd8e22338d3,6,516.6505,518.6498,space,1,0,1,1,14,1,O,space,0.4829,,,,,,,,,,,
,,,,,R_9dDWY865eapQxZF,001,2025-08-27_19h29.04.541,continuous_performance_test,2024.2.4,Win32,59.88023952,dabfa304-d66f-4d85-a328-7fd8e22338d3,6,518.6504,520.4997,space,1,0,2,2,1,1,B,space,0.5126,,,,,,,,,,,
,,,,,R_9dDWY865eapQxZF,001,2025-08-27_19h29.04.541,continuous_performance_test,2024.2.4,Win32,59.88023952,dabfa304-d66f-4d85-a328-7fd8e22338d3,6,520.5003,522.1998,space,1,0,3,3,11,1,L,space,0.3805,,,,,,,,,,,
,,,,,R_9dDWY865eapQxZF,001,2025-08-27_19h29.04.541,continuous_performance_test,2024.2.4,Win32,59.88023952,dabfa304-d66f-4d85-a328-7fd8e22338d3,6,522.2004,523.7525,space,1,0,4,4,19,1,T,space,0.4465,,,,,,,,,,,
,,,,,R_9dDWY865eapQxZF,001,2025-08-27_19h29.04.541,continuous_performance_test,2024.2.4,Win32,59.88023952,dabfa304-d66f-4d85-a328-7fd8e22338d3,6,523.7531,525.3497,space,1,0,5,5,4,1,E,space,0.4867,,,,,,,,,,,
,,,,,R_9dDWY865eapQxZF,001,2025-08-27_19h29.04.541,continuous_performance_test,2024.2.4,Win32,59.88023952,dabfa304-d66f-4d85-a328-7fd8e22338d3,6,525.3503,527.0997,space,1,0,6,6,5,1,F,space,0.3926,,,,,,,,,,,
,,,,,R_9dDWY865eapQxZF,001,2025-08-27_19h29.04.541,continuous_performance_test,2024.2.4,Win32,59.88023952,dabfa304-d66f-4d85-a328-7fd8e22338d3,6,527.1002,528.8496,space,0,0,7,7,26,1,X,,0.4197,,,,,,,,,,,
,,,,,R_9dDWY865eapQxZF,001,2025-08-27_19h29.04.541,continuous_performance_test,2024.2.4,Win32,59.88023952,dabfa304-d66f-4d85-a328-7fd8e22338d3,6,528.8502,530.8497,space,1,0,8,8,21,1,V,space,0.3949,,,,,,,,,,,
,,,,,R_9dDWY865eapQxZF,001,2025-08-27_19h29.04.541,continuous_performance_test,2024.2.4,Win32,59.88023952,dabfa304-d66f-4d85-a328-7fd8e22338d3,6,530.8502,532.8497,space,1,0,9,9,24,1,Z,space,0.5466,,,,,,,,,,,
,,,,,R_9dDWY865eapQxZF,001,2025-08-27_19h29.04.541,continuous_performance_test,2024.2.4,Win32,59.88023952,dabfa304-d66f-4d85-a328-7fd8e22338d3,6,532.8502,534.3997,space,1,0,10,10,20,1,U,space,0.3807,,,,,,,,,,,
,,,,,R_9dDWY865eapQxZF,001,2025-08-27_19h29.04.541,continuous_performance_test,2024.2.4,Win32,59.88023952,dabfa304-d66f-4d85-a328-7fd8e22338d3,6,534.4002,536.3496,space,0,0,11,11,28,1,X,,0.3667,,,,,,,,,,,
,,,,,R_9dDWY865eapQxZF,001,2025-08-27_19h29.04.541,continuous_performance_test,2024.2.4,Win32,59.88023952,dabfa304-d66f-4d85-a328-7fd8e22338d3,6,536.3501,537.9996,,1,0,12,12,27,1,X,,,,,,,,,,,,,
,,,,,R_9dDWY865eapQxZF,001,2025-08-27_19h29.04.541,continuous_performance_test,2024.2.4,Win32,59.88023952,dabfa304-d66f-4d85-a328-7fd8e22338d3,6,538.0002,539.6496,space,1,0,13,13,17,1,R,space,0.3868,,,,,,,,,,,
,,,,,R_9dDWY865eapQxZF,001,2025-08-27_19h29.04.541,continuous_performance_test,2024.2.4,Win32,59.88023952,dabfa304-d66f-4d85-a328-7fd8e22338d3,6,539.6501,541.5497,space,1,0,14,14,13,1,N,space,0.3909,,,,,,,,,,,
,,,,,R_9dDWY865eapQxZF,001,2025-08-27_19h29.04.541,continuous_performance_test,2024.2.4,Win32,59.88023952,dabfa304-d66f-4d85-a328-7fd8e22338d3,6,541.5502,543.5495,space,1,0,15,15,12,1,M,space,0.3587,,,,,,,,,,,
,,,,,R_9dDWY865eapQxZF,001,2025-08-27_19h29.04.541,continuous_performance_test,2024.2.4,Win32,59.88023952,dabfa304-d66f-4d85-a328-7fd8e22338d3,6,543.5502,545.2496,space,1,0,16,16,15,1,P,space,0.4997,,,,,,,,,,,
,,,,,R_9dDWY865eapQxZF,001,2025-08-27_19h29.04.541,continuous_performance_test,2024.2.4,Win32,59.88023952,dabfa304-d66f-4d85-a328-7fd8e22338d3,6,545.2501,547.1498,space,1,0,17,17,6,1,G,space,0.3667,,,,,,,,,,,
,,,,,R_9dDWY865eapQxZF,001,2025-08-27_19h29.04.541,continuous_performance_test,2024.2.4,Win32,59.88023952,dabfa304-d66f-4d85-a328-7fd8e22338d3,6,547.1504,549.1496,space,1,0,18,18,9,1,J,space,0.3586,,,,,,,,,,,
,,,,,R_9dDWY865eapQxZF,001,2025-08-27_19h29.04.541,continuous_performance_test,2024.2.4,Win32,59.88023952,dabfa304-d66f-4d85-a328-7fd8e22338d3,6,549.1501,550.9495,space,1,0,19,19,8,1,I,space,0.4001,,,,,,,,,,,
,,,,,R_9dDWY865eapQxZF,001,2025-08-27_19h29.04.541,continuous_performance_test,2024.2.4,Win32,59.88023952,dabfa304-d66f-4d85-a328-7fd8e22338d3,6,550.9501,552.7495,space,0,0,20,20,25,1,X,,0.4,,,,,,,,,,,
,,,,,R_9dDWY865eapQxZF,001,2025-08-27_19h29.04.541,continuous_performance_test,2024.2.4,Win32,59.88023952,dabfa304-d66f-4d85-a328-7fd8e22338d3,6,552.7501,554.6495,space,1,0,21,21,23,1,Y,space,0.5163,,,,,,,,,,,
,,,,,R_9dDWY865eapQxZF,001,2025-08-27_19h29.04.541,continuous_performance_test,2024.2.4,Win32,59.88023952,dabfa304-d66f-4d85-a328-7fd8e22338d3,6,554.65,556.5494,space,1,0,22,22,22,1,W,space,0.375,,,,,,,,,,,
,,,,,R_9dDWY865eapQxZF,001,2025-08-27_19h29.04.541,continuous_performance_test,2024.2.4,Win32,59.88023952,dabfa304-d66f-4d85-a328-7fd8e22338d3,6,556.55,558.1997,,1,0,23,23,29,1,X,,,,,,,,,,,,,
,,,,,R_9dDWY865eapQxZF,001,2025-08-27_19h29.04.541,continuous_performance_test,2024.2.4,Win32,59.88023952,dabfa304-d66f-4d85-a328-7fd8e22338d3,6,558.2003,560.1494,space,1,0,24,24,7,1,H,space,0.4869,,,,,,,,,,,
,,,,,R_9dDWY865eapQxZF,001,2025-08-27_19h29.04.541,continuous_performance_test,2024.2.4,Win32,59.88023952,dabfa304-d66f-4d85-a328-7fd8e22338d3,6,560.1499,562.0494,space,1,0,25,25,2,1,C,space,0.4429,,,,,,,,,,,
,,,,,R_9dDWY865eapQxZF,001,2025-08-27_19h29.04.541,continuous_performance_test,2024.2.4,Win32,59.88023952,dabfa304-d66f-4d85-a328-7fd8e22338d3,6,562.05,563.7994,space,1,0,26,26,0,1,A,space,0.3834,,,,,,,,,,,
,,,,,R_9dDWY865eapQxZF,001,2025-08-27_19h29.04.541,continuous_performance_test,2024.2.4,Win32,59.88023952,dabfa304-d66f-4d85-a328-7fd8e22338d3,6,563.7999,565.6494,space,1,0,27,27,3,1,D,space,0.4108,,,,,,,,,,,
,,,,,R_9dDWY865eapQxZF,001,2025-08-27_19h29.04.541,continuous_performance_test,2024.2.4,Win32,59.88023952,dabfa304-d66f-4d85-a328-7fd8e22338d3,6,565.6499,567.4494,space,1,0,28,28,18,1,S,space,0.4109,,,,,,,,,,,
,,,,,R_9dDWY865eapQxZF,001,2025-08-27_19h29.04.541,continuous_performance_test,2024.2.4,Win32,59.88023952,dabfa304-d66f-4d85-a328-7fd8e22338d3,6,567.4499,569.1994,space,1,0,29,29,10,1,K,space,0.4048,,,,,,,,,,,
,,,,,R_9dDWY865eapQxZF,001,2025-08-27_19h29.04.541,continuous_performance_test,2024.2.4,Win32,59.88023952,dabfa304-d66f-4d85-a328-7fd8e22338d3,6,,,,,,,,,,,,,,569.1999,569.2002,,,,569.2003,575.7829,space,6.5558,
