Instructions.started,Instructions.stopped,key_resp.keys,key_resp.rt,key_resp.duration,participant,session,date,expName,psychopyVersion,OS,frameRate,fbclid,Trial_noX.started,Trial_noX.stopped,response.keys,response.corr,trials_noX.thisRepN,trials_noX.thisTrialN,trials_noX.thisN,trials_noX.thisIndex,trials_noX.ran,letter,corrAns,response.rt,response.duration,BlockBreak.started,BlockBreak.stopped,key_instruct.keys,key_instruct.rt,key_instruct.duration,End_NoX.started,End_NoX.stopped,key_resp_end_noX.keys,key_resp_end_noX.rt,key_resp_end_noX.duration
0,6.475,space,6.431,,R_9eQjko0qChFJ2Cg,001,2025-09-10_10h31.18.857,continuous_performance_test,2024.2.4,MacIntel,71.42857143,IwVERDUAMtphJleHRuA2FlbQIxMQABHtdPsGOiVYtxvCt6ixozjUJejztDT0-KHTH_DKTBp-R1L2BmnB_afPtnWVHg_aem_L3DL_TWwowZ4TY-Ur8Db0A,,,,,,,,,,,,,,,,,,,,,,,
,,,,,R_9eQjko0qChFJ2Cg,001,2025-09-10_10h31.18.857,continuous_performance_test,2024.2.4,MacIntel,71.42857143,IwVERDUAMtphJleHRuA2FlbQIxMQABHtdPsGOiVYtxvCt6ixozjUJejztDT0-KHTH_DKTBp-R1L2BmnB_afPtnWVHg_aem_L3DL_TWwowZ4TY-Ur8Db0A,6.492,8.508,,0,0,0,0,4,1,E,space,,,,,,,,,,,,
,,,,,R_9eQjko0qChFJ2Cg,001,2025-09-10_10h31.18.857,continuous_performance_test,2024.2.4,MacIntel,71.42857143,IwVERDUAMtphJleHRuA2FlbQIxMQABHtdPsGOiVYtxvCt6ixozjUJejztDT0-KHTH_DKTBp-R1L2BmnB_afPtnWVHg_aem_L3DL_TWwowZ4TY-Ur8Db0A,8.511,10.361,space,1,0,1,1,14,1,O,space,0.618,,,,,,,,,,,
,,,,,R_9eQjko0qChFJ2Cg,001,2025-09-10_10h31.18.857,continuous_performance_test,2024.2.4,MacIntel,71.42857143,IwVERDUAMtphJleHRuA2FlbQIxMQABHtdPsGOiVYtxvCt6ixozjUJejztDT0-KHTH_DKTBp-R1L2BmnB_afPtnWVHg_aem_L3DL_TWwowZ4TY-Ur8Db0A,10.364,11.962,space,1,0,2,2,6,1,G,space,0.255,,,,,,,,,,,
,,,,,R_9eQjko0qChFJ2Cg,001,2025-09-10_10h31.18.857,continuous_performance_test,2024.2.4,MacIntel,71.42857143,IwVERDUAMtphJleHRuA2FlbQIxMQABHtdPsGOiVYtxvCt6ixozjUJejztDT0-KHTH_DKTBp-R1L2BmnB_afPtnWVHg_aem_L3DL_TWwowZ4TY-Ur8Db0A,11.965,13.563,space,1,0,3,3,19,1,T,space,0.27,,,,,,,,,,,
,,,,,R_9eQjko0qChFJ2Cg,001,2025-09-10_10h31.18.857,continuous_performance_test,2024.2.4,MacIntel,71.42857143,IwVERDUAMtphJleHRuA2FlbQIxMQABHtdPsGOiVYtxvCt6ixozjUJejztDT0-KHTH_DKTBp-R1L2BmnB_afPtnWVHg_aem_L3DL_TWwowZ4TY-Ur8Db0A,13.566,15.464,space,1,0,4,4,0,1,A,space,0.317,,,,,,,,,,,
,,,,,R_9eQjko0qChFJ2Cg,001,2025-09-10_10h31.18.857,continuous_performance_test,2024.2.4,MacIntel,71.42857143,IwVERDUAMtphJleHRuA2FlbQIxMQABHtdPsGOiVYtxvCt6ixozjUJejztDT0-KHTH_DKTBp-R1L2BmnB_afPtnWVHg_aem_L3DL_TWwowZ4TY-Ur8Db0A,15.466,17.315,space,1,0,5,5,5,1,F,space,0.284,,,,,,,,,,,
,,,,,R_9eQjko0qChFJ2Cg,001,2025-09-10_10h31.18.857,continuous_performance_test,2024.2.4,MacIntel,71.42857143,IwVERDUAMtphJleHRuA2FlbQIxMQABHtdPsGOiVYtxvCt6ixozjUJejztDT0-KHTH_DKTBp-R1L2BmnB_afPtnWVHg_aem_L3DL_TWwowZ4TY-Ur8Db0A,17.318,19.066,space,1,0,6,6,17,1,R,space,0.333,,,,,,,,,,,
,,,,,R_9eQjko0qChFJ2Cg,001,2025-09-10_10h31.18.857,continuous_performance_test,2024.2.4,MacIntel,71.42857143,IwVERDUAMtphJleHRuA2FlbQIxMQABHtdPsGOiVYtxvCt6ixozjUJejztDT0-KHTH_DKTBp-R1L2BmnB_afPtnWVHg_aem_L3DL_TWwowZ4TY-Ur8Db0A,19.069,20.917,space,0,0,7,7,26,1,X,,0.288,,,,,,,,,,,
,,,,,R_9eQjko0qChFJ2Cg,001,2025-09-10_10h31.18.857,continuous_performance_test,2024.2.4,MacIntel,71.42857143,IwVERDUAMtphJleHRuA2FlbQIxMQABHtdPsGOiVYtxvCt6ixozjUJejztDT0-KHTH_DKTBp-R1L2BmnB_afPtnWVHg_aem_L3DL_TWwowZ4TY-Ur8Db0A,20.919,22.718,space,1,0,8,8,2,1,C,space,0.297,,,,,,,,,,,
,,,,,R_9eQjko0qChFJ2Cg,001,2025-09-10_10h31.18.857,continuous_performance_test,2024.2.4,MacIntel,71.42857143,IwVERDUAMtphJleHRuA2FlbQIxMQABHtdPsGOiVYtxvCt6ixozjUJejztDT0-KHTH_DKTBp-R1L2BmnB_afPtnWVHg_aem_L3DL_TWwowZ4TY-Ur8Db0A,22.72,24.469,space,1,0,9,9,15,1,P,space,0.311,,,,,,,,,,,
,,,,,R_9eQjko0qChFJ2Cg,001,2025-09-10_10h31.18.857,continuous_performance_test,2024.2.4,MacIntel,71.42857143,IwVERDUAMtphJleHRuA2FlbQIxMQABHtdPsGOiVYtxvCt6ixozjUJejztDT0-KHTH_DKTBp-R1L2BmnB_afPtnWVHg_aem_L3DL_TWwowZ4TY-Ur8Db0A,24.472,26.271,space,1,0,10,10,22,1,W,space,0.36,,,,,,,,,,,
,,,,,R_9eQjko0qChFJ2Cg,001,2025-09-10_10h31.18.857,continuous_performance_test,2024.2.4,MacIntel,71.42857143,IwVERDUAMtphJleHRuA2FlbQIxMQABHtdPsGOiVYtxvCt6ixozjUJejztDT0-KHTH_DKTBp-R1L2BmnB_afPtnWVHg_aem_L3DL_TWwowZ4TY-Ur8Db0A,26.273,28.122,space,1,0,11,11,13,1,N,space,0.303,,,,,,,,,,,
,,,,,R_9eQjko0qChFJ2Cg,001,2025-09-10_10h31.18.857,continuous_performance_test,2024.2.4,MacIntel,71.42857143,IwVERDUAMtphJleHRuA2FlbQIxMQABHtdPsGOiVYtxvCt6ixozjUJejztDT0-KHTH_DKTBp-R1L2BmnB_afPtnWVHg_aem_L3DL_TWwowZ4TY-Ur8Db0A,28.126,29.823,,1,0,12,12,28,1,X,,,,,,,,,,,,,
,,,,,R_9eQjko0qChFJ2Cg,001,2025-09-10_10h31.18.857,continuous_performance_test,2024.2.4,MacIntel,71.42857143,IwVERDUAMtphJleHRuA2FlbQIxMQABHtdPsGOiVYtxvCt6ixozjUJejztDT0-KHTH_DKTBp-R1L2BmnB_afPtnWVHg_aem_L3DL_TWwowZ4TY-Ur8Db0A,29.826,31.774,space,1,0,13,13,24,1,Z,space,0.449,,,,,,,,,,,
,,,,,R_9eQjko0qChFJ2Cg,001,2025-09-10_10h31.18.857,continuous_performance_test,2024.2.4,MacIntel,71.42857143,IwVERDUAMtphJleHRuA2FlbQIxMQABHtdPsGOiVYtxvCt6ixozjUJejztDT0-KHTH_DKTBp-R1L2BmnB_afPtnWVHg_aem_L3DL_TWwowZ4TY-Ur8Db0A,31.777,33.425,,1,0,14,14,25,1,X,,,,,,,,,,,,,
,,,,,R_9eQjko0qChFJ2Cg,001,2025-09-10_10h31.18.857,continuous_performance_test,2024.2.4,MacIntel,71.42857143,IwVERDUAMtphJleHRuA2FlbQIxMQABHtdPsGOiVYtxvCt6ixozjUJejztDT0-KHTH_DKTBp-R1L2BmnB_afPtnWVHg_aem_L3DL_TWwowZ4TY-Ur8Db0A,33.428,35.076,space,1,0,15,15,16,1,Q,space,0.404,,,,,,,,,,,
,,,,,R_9eQjko0qChFJ2Cg,001,2025-09-10_10h31.18.857,continuous_performance_test,2024.2.4,MacIntel,71.42857143,IwVERDUAMtphJleHRuA2FlbQIxMQABHtdPsGOiVYtxvCt6ixozjUJejztDT0-KHTH_DKTBp-R1L2BmnB_afPtnWVHg_aem_L3DL_TWwowZ4TY-Ur8Db0A,35.079,36.627,space,1,0,16,16,8,1,I,space,0.668,,,,,,,,,,,
,,,,,R_9eQjko0qChFJ2Cg,001,2025-09-10_10h31.18.857,continuous_performance_test,2024.2.4,MacIntel,71.42857143,IwVERDUAMtphJleHRuA2FlbQIxMQABHtdPsGOiVYtxvCt6ixozjUJejztDT0-KHTH_DKTBp-R1L2BmnB_afPtnWVHg_aem_L3DL_TWwowZ4TY-Ur8Db0A,36.63,38.278,space,1,0,17,17,10,1,K,space,0.409,,,,,,,,,,,
,,,,,R_9eQjko0qChFJ2Cg,001,2025-09-10_10h31.18.857,continuous_performance_test,2024.2.4,MacIntel,71.42857143,IwVERDUAMtphJleHRuA2FlbQIxMQABHtdPsGOiVYtxvCt6ixozjUJejztDT0-KHTH_DKTBp-R1L2BmnB_afPtnWVHg_aem_L3DL_TWwowZ4TY-Ur8Db0A,38.281,39.879,space,1,0,18,18,23,1,Y,space,0.338,,,,,,,,,,,
,,,,,R_9eQjko0qChFJ2Cg,001,2025-09-10_10h31.18.857,continuous_performance_test,2024.2.4,MacIntel,71.42857143,IwVERDUAMtphJleHRuA2FlbQIxMQABHtdPsGOiVYtxvCt6ixozjUJejztDT0-KHTH_DKTBp-R1L2BmnB_afPtnWVHg_aem_L3DL_TWwowZ4TY-Ur8Db0A,39.881,41.58,space,1,0,19,19,12,1,M,space,0.293,,,,,,,,,,,
,,,,,R_9eQjko0qChFJ2Cg,001,2025-09-10_10h31.18.857,continuous_performance_test,2024.2.4,MacIntel,71.42857143,IwVERDUAMtphJleHRuA2FlbQIxMQABHtdPsGOiVYtxvCt6ixozjUJejztDT0-KHTH_DKTBp-R1L2BmnB_afPtnWVHg_aem_L3DL_TWwowZ4TY-Ur8Db0A,41.581,43.231,space,1,0,20,20,11,1,L,space,0.345,,,,,,,,,,,
,,,,,R_9eQjko0qChFJ2Cg,001,2025-09-10_10h31.18.857,continuous_performance_test,2024.2.4,MacIntel,71.42857143,IwVERDUAMtphJleHRuA2FlbQIxMQABHtdPsGOiVYtxvCt6ixozjUJejztDT0-KHTH_DKTBp-R1L2BmnB_afPtnWVHg_aem_L3DL_TWwowZ4TY-Ur8Db0A,43.233,45.182,space,0,0,21,21,27,1,X,,0.301,,,,,,,,,,,
,,,,,R_9eQjko0qChFJ2Cg,001,2025-09-10_10h31.18.857,continuous_performance_test,2024.2.4,MacIntel,71.42857143,IwVERDUAMtphJleHRuA2FlbQIxMQABHtdPsGOiVYtxvCt6ixozjUJejztDT0-KHTH_DKTBp-R1L2BmnB_afPtnWVHg_aem_L3DL_TWwowZ4TY-Ur8Db0A,45.184,46.783,space,1,0,22,22,18,1,S,space,0.45,,,,,,,,,,,
,,,,,R_9eQjko0qChFJ2Cg,001,2025-09-10_10h31.18.857,continuous_performance_test,2024.2.4,MacIntel,71.42857143,IwVERDUAMtphJleHRuA2FlbQIxMQABHtdPsGOiVYtxvCt6ixozjUJejztDT0-KHTH_DKTBp-R1L2BmnB_afPtnWVHg_aem_L3DL_TWwowZ4TY-Ur8Db0A,46.785,48.334,space,1,0,23,23,21,1,V,space,0.387,,,,,,,,,,,
,,,,,R_9eQjko0qChFJ2Cg,001,2025-09-10_10h31.18.857,continuous_performance_test,2024.2.4,MacIntel,71.42857143,IwVERDUAMtphJleHRuA2FlbQIxMQABHtdPsGOiVYtxvCt6ixozjUJejztDT0-KHTH_DKTBp-R1L2BmnB_afPtnWVHg_aem_L3DL_TWwowZ4TY-Ur8Db0A,48.337,50.085,space,1,0,24,24,1,1,B,space,0.316,,,,,,,,,,,
,,,,,R_9eQjko0qChFJ2Cg,001,2025-09-10_10h31.18.857,continuous_performance_test,2024.2.4,MacIntel,71.42857143,IwVERDUAMtphJleHRuA2FlbQIxMQABHtdPsGOiVYtxvCt6ixozjUJejztDT0-KHTH_DKTBp-R1L2BmnB_afPtnWVHg_aem_L3DL_TWwowZ4TY-Ur8Db0A,50.088,52.086,space,1,0,25,25,3,1,D,space,0.339,,,,,,,,,,,
,,,,,R_9eQjko0qChFJ2Cg,001,2025-09-10_10h31.18.857,continuous_performance_test,2024.2.4,MacIntel,71.42857143,IwVERDUAMtphJleHRuA2FlbQIxMQABHtdPsGOiVYtxvCt6ixozjUJejztDT0-KHTH_DKTBp-R1L2BmnB_afPtnWVHg_aem_L3DL_TWwowZ4TY-Ur8Db0A,52.088,54.037,space,0,0,26,26,29,1,X,,0.356,,,,,,,,,,,
,,,,,R_9eQjko0qChFJ2Cg,001,2025-09-10_10h31.18.857,continuous_performance_test,2024.2.4,MacIntel,71.42857143,IwVERDUAMtphJleHRuA2FlbQIxMQABHtdPsGOiVYtxvCt6ixozjUJejztDT0-KHTH_DKTBp-R1L2BmnB_afPtnWVHg_aem_L3DL_TWwowZ4TY-Ur8Db0A,54.04,56.039,space,1,0,27,27,7,1,H,space,0.388,,,,,,,,,,,
,,,,,R_9eQjko0qChFJ2Cg,001,2025-09-10_10h31.18.857,continuous_performance_test,2024.2.4,MacIntel,71.42857143,IwVERDUAMtphJleHRuA2FlbQIxMQABHtdPsGOiVYtxvCt6ixozjUJejztDT0-KHTH_DKTBp-R1L2BmnB_afPtnWVHg_aem_L3DL_TWwowZ4TY-Ur8Db0A,56.041,57.94,space,1,0,28,28,9,1,J,space,0.344,,,,,,,,,,,
,,,,,R_9eQjko0qChFJ2Cg,001,2025-09-10_10h31.18.857,continuous_performance_test,2024.2.4,MacIntel,71.42857143,IwVERDUAMtphJleHRuA2FlbQIxMQABHtdPsGOiVYtxvCt6ixozjUJejztDT0-KHTH_DKTBp-R1L2BmnB_afPtnWVHg_aem_L3DL_TWwowZ4TY-Ur8Db0A,57.942,59.941,space,1,0,29,29,20,1,U,space,0.437,,,,,,,,,,,
,,,,,R_9eQjko0qChFJ2Cg,001,2025-09-10_10h31.18.857,continuous_performance_test,2024.2.4,MacIntel,71.42857143,IwVERDUAMtphJleHRuA2FlbQIxMQABHtdPsGOiVYtxvCt6ixozjUJejztDT0-KHTH_DKTBp-R1L2BmnB_afPtnWVHg_aem_L3DL_TWwowZ4TY-Ur8Db0A,64.286,65.928,space,1,0,0,0,23,1,Y,space,0.498,,59.952,64.281,space,4.311,,,,,,
,,,,,R_9eQjko0qChFJ2Cg,001,2025-09-10_10h31.18.857,continuous_performance_test,2024.2.4,MacIntel,71.42857143,IwVERDUAMtphJleHRuA2FlbQIxMQABHtdPsGOiVYtxvCt6ixozjUJejztDT0-KHTH_DKTBp-R1L2BmnB_afPtnWVHg_aem_L3DL_TWwowZ4TY-Ur8Db0A,65.93,67.629,space,1,0,1,1,16,1,Q,space,0.438,,,,,,,,,,,
,,,,,R_9eQjko0qChFJ2Cg,001,2025-09-10_10h31.18.857,continuous_performance_test,2024.2.4,MacIntel,71.42857143,IwVERDUAMtphJleHRuA2FlbQIxMQABHtdPsGOiVYtxvCt6ixozjUJejztDT0-KHTH_DKTBp-R1L2BmnB_afPtnWVHg_aem_L3DL_TWwowZ4TY-Ur8Db0A,67.631,69.58,space,1,0,2,2,13,1,N,space,0.338,,,,,,,,,,,
,,,,,R_9eQjko0qChFJ2Cg,001,2025-09-10_10h31.18.857,continuous_performance_test,2024.2.4,MacIntel,71.42857143,IwVERDUAMtphJleHRuA2FlbQIxMQABHtdPsGOiVYtxvCt6ixozjUJejztDT0-KHTH_DKTBp-R1L2BmnB_afPtnWVHg_aem_L3DL_TWwowZ4TY-Ur8Db0A,69.582,71.431,space,1,0,3,3,17,1,R,space,0.32,,,,,,,,,,,
,,,,,R_9eQjko0qChFJ2Cg,001,2025-09-10_10h31.18.857,continuous_performance_test,2024.2.4,MacIntel,71.42857143,IwVERDUAMtphJleHRuA2FlbQIxMQABHtdPsGOiVYtxvCt6ixozjUJejztDT0-KHTH_DKTBp-R1L2BmnB_afPtnWVHg_aem_L3DL_TWwowZ4TY-Ur8Db0A,71.435,73.382,space,1,0,4,4,21,1,V,space,0.296,,,,,,,,,,,
,,,,,R_9eQjko0qChFJ2Cg,001,2025-09-10_10h31.18.857,continuous_performance_test,2024.2.4,MacIntel,71.42857143,IwVERDUAMtphJleHRuA2FlbQIxMQABHtdPsGOiVYtxvCt6ixozjUJejztDT0-KHTH_DKTBp-R1L2BmnB_afPtnWVHg_aem_L3DL_TWwowZ4TY-Ur8Db0A,73.385,75.033,space,1,0,5,5,0,1,A,space,0.324,,,,,,,,,,,
,,,,,R_9eQjko0qChFJ2Cg,001,2025-09-10_10h31.18.857,continuous_performance_test,2024.2.4,MacIntel,71.42857143,IwVERDUAMtphJleHRuA2FlbQIxMQABHtdPsGOiVYtxvCt6ixozjUJejztDT0-KHTH_DKTBp-R1L2BmnB_afPtnWVHg_aem_L3DL_TWwowZ4TY-Ur8Db0A,75.035,76.584,space,1,0,6,6,12,1,M,space,0.38,,,,,,,,,,,
,,,,,R_9eQjko0qChFJ2Cg,001,2025-09-10_10h31.18.857,continuous_performance_test,2024.2.4,MacIntel,71.42857143,IwVERDUAMtphJleHRuA2FlbQIxMQABHtdPsGOiVYtxvCt6ixozjUJejztDT0-KHTH_DKTBp-R1L2BmnB_afPtnWVHg_aem_L3DL_TWwowZ4TY-Ur8Db0A,76.586,78.135,space,1,0,7,7,8,1,I,space,0.371,,,,,,,,,,,
,,,,,R_9eQjko0qChFJ2Cg,001,2025-09-10_10h31.18.857,continuous_performance_test,2024.2.4,MacIntel,71.42857143,IwVERDUAMtphJleHRuA2FlbQIxMQABHtdPsGOiVYtxvCt6ixozjUJejztDT0-KHTH_DKTBp-R1L2BmnB_afPtnWVHg_aem_L3DL_TWwowZ4TY-Ur8Db0A,78.137,80.036,space,1,0,8,8,10,1,K,space,0.254,,,,,,,,,,,
,,,,,R_9eQjko0qChFJ2Cg,001,2025-09-10_10h31.18.857,continuous_performance_test,2024.2.4,MacIntel,71.42857143,IwVERDUAMtphJleHRuA2FlbQIxMQABHtdPsGOiVYtxvCt6ixozjUJejztDT0-KHTH_DKTBp-R1L2BmnB_afPtnWVHg_aem_L3DL_TWwowZ4TY-Ur8Db0A,80.038,81.987,space,1,0,9,9,6,1,G,space,0.349,,,,,,,,,,,
,,,,,R_9eQjko0qChFJ2Cg,001,2025-09-10_10h31.18.857,continuous_performance_test,2024.2.4,MacIntel,71.42857143,IwVERDUAMtphJleHRuA2FlbQIxMQABHtdPsGOiVYtxvCt6ixozjUJejztDT0-KHTH_DKTBp-R1L2BmnB_afPtnWVHg_aem_L3DL_TWwowZ4TY-Ur8Db0A,81.989,83.989,space,1,0,10,10,14,1,O,space,0.341,,,,,,,,,,,
,,,,,R_9eQjko0qChFJ2Cg,001,2025-09-10_10h31.18.857,continuous_performance_test,2024.2.4,MacIntel,71.42857143,IwVERDUAMtphJleHRuA2FlbQIxMQABHtdPsGOiVYtxvCt6ixozjUJejztDT0-KHTH_DKTBp-R1L2BmnB_afPtnWVHg_aem_L3DL_TWwowZ4TY-Ur8Db0A,83.991,85.64,space,1,0,11,11,20,1,U,space,0.337,,,,,,,,,,,
,,,,,R_9eQjko0qChFJ2Cg,001,2025-09-10_10h31.18.857,continuous_performance_test,2024.2.4,MacIntel,71.42857143,IwVERDUAMtphJleHRuA2FlbQIxMQABHtdPsGOiVYtxvCt6ixozjUJejztDT0-KHTH_DKTBp-R1L2BmnB_afPtnWVHg_aem_L3DL_TWwowZ4TY-Ur8Db0A,85.642,87.191,space,0,0,12,12,25,1,X,,0.349,,,,,,,,,,,
,,,,,R_9eQjko0qChFJ2Cg,001,2025-09-10_10h31.18.857,continuous_performance_test,2024.2.4,MacIntel,71.42857143,IwVERDUAMtphJleHRuA2FlbQIxMQABHtdPsGOiVYtxvCt6ixozjUJejztDT0-KHTH_DKTBp-R1L2BmnB_afPtnWVHg_aem_L3DL_TWwowZ4TY-Ur8Db0A,87.193,88.992,space,1,0,13,13,7,1,H,space,0.264,,,,,,,,,,,
,,,,,R_9eQjko0qChFJ2Cg,001,2025-09-10_10h31.18.857,continuous_performance_test,2024.2.4,MacIntel,71.42857143,IwVERDUAMtphJleHRuA2FlbQIxMQABHtdPsGOiVYtxvCt6ixozjUJejztDT0-KHTH_DKTBp-R1L2BmnB_afPtnWVHg_aem_L3DL_TWwowZ4TY-Ur8Db0A,88.993,90.643,space,1,0,14,14,5,1,F,space,0.337,,,,,,,,,,,
,,,,,R_9eQjko0qChFJ2Cg,001,2025-09-10_10h31.18.857,continuous_performance_test,2024.2.4,MacIntel,71.42857143,IwVERDUAMtphJleHRuA2FlbQIxMQABHtdPsGOiVYtxvCt6ixozjUJejztDT0-KHTH_DKTBp-R1L2BmnB_afPtnWVHg_aem_L3DL_TWwowZ4TY-Ur8Db0A,90.646,92.595,space,1,0,15,15,3,1,D,space,0.338,,,,,,,,,,,
,,,,,R_9eQjko0qChFJ2Cg,001,2025-09-10_10h31.18.857,continuous_performance_test,2024.2.4,MacIntel,71.42857143,IwVERDUAMtphJleHRuA2FlbQIxMQABHtdPsGOiVYtxvCt6ixozjUJejztDT0-KHTH_DKTBp-R1L2BmnB_afPtnWVHg_aem_L3DL_TWwowZ4TY-Ur8Db0A,92.598,94.145,space,1,0,16,16,18,1,S,space,0.369,,,,,,,,,,,
,,,,,R_9eQjko0qChFJ2Cg,001,2025-09-10_10h31.18.857,continuous_performance_test,2024.2.4,MacIntel,71.42857143,IwVERDUAMtphJleHRuA2FlbQIxMQABHtdPsGOiVYtxvCt6ixozjUJejztDT0-KHTH_DKTBp-R1L2BmnB_afPtnWVHg_aem_L3DL_TWwowZ4TY-Ur8Db0A,94.147,96.096,,1,0,17,17,28,1,X,,,,,,,,,,,,,
,,,,,R_9eQjko0qChFJ2Cg,001,2025-09-10_10h31.18.857,continuous_performance_test,2024.2.4,MacIntel,71.42857143,IwVERDUAMtphJleHRuA2FlbQIxMQABHtdPsGOiVYtxvCt6ixozjUJejztDT0-KHTH_DKTBp-R1L2BmnB_afPtnWVHg_aem_L3DL_TWwowZ4TY-Ur8Db0A,96.099,97.797,space,1,0,18,18,15,1,P,space,0.363,,,,,,,,,,,
,,,,,R_9eQjko0qChFJ2Cg,001,2025-09-10_10h31.18.857,continuous_performance_test,2024.2.4,MacIntel,71.42857143,IwVERDUAMtphJleHRuA2FlbQIxMQABHtdPsGOiVYtxvCt6ixozjUJejztDT0-KHTH_DKTBp-R1L2BmnB_afPtnWVHg_aem_L3DL_TWwowZ4TY-Ur8Db0A,97.799,99.448,space,1,0,19,19,1,1,B,space,0.37,,,,,,,,,,,
,,,,,R_9eQjko0qChFJ2Cg,001,2025-09-10_10h31.18.857,continuous_performance_test,2024.2.4,MacIntel,71.42857143,IwVERDUAMtphJleHRuA2FlbQIxMQABHtdPsGOiVYtxvCt6ixozjUJejztDT0-KHTH_DKTBp-R1L2BmnB_afPtnWVHg_aem_L3DL_TWwowZ4TY-Ur8Db0A,99.45,101.349,space,1,0,20,20,2,1,C,space,0.281,,,,,,,,,,,
,,,,,R_9eQjko0qChFJ2Cg,001,2025-09-10_10h31.18.857,continuous_performance_test,2024.2.4,MacIntel,71.42857143,IwVERDUAMtphJleHRuA2FlbQIxMQABHtdPsGOiVYtxvCt6ixozjUJejztDT0-KHTH_DKTBp-R1L2BmnB_afPtnWVHg_aem_L3DL_TWwowZ4TY-Ur8Db0A,101.351,103.2,,1,0,21,21,27,1,X,,,,,,,,,,,,,
,,,,,R_9eQjko0qChFJ2Cg,001,2025-09-10_10h31.18.857,continuous_performance_test,2024.2.4,MacIntel,71.42857143,IwVERDUAMtphJleHRuA2FlbQIxMQABHtdPsGOiVYtxvCt6ixozjUJejztDT0-KHTH_DKTBp-R1L2BmnB_afPtnWVHg_aem_L3DL_TWwowZ4TY-Ur8Db0A,103.202,104.901,space,1,0,22,22,11,1,L,space,0.32,,,,,,,,,,,
,,,,,R_9eQjko0qChFJ2Cg,001,2025-09-10_10h31.18.857,continuous_performance_test,2024.2.4,MacIntel,71.42857143,IwVERDUAMtphJleHRuA2FlbQIxMQABHtdPsGOiVYtxvCt6ixozjUJejztDT0-KHTH_DKTBp-R1L2BmnB_afPtnWVHg_aem_L3DL_TWwowZ4TY-Ur8Db0A,104.903,106.752,space,1,0,23,23,9,1,J,space,0.378,,,,,,,,,,,
,,,,,R_9eQjko0qChFJ2Cg,001,2025-09-10_10h31.18.857,continuous_performance_test,2024.2.4,MacIntel,71.42857143,IwVERDUAMtphJleHRuA2FlbQIxMQABHtdPsGOiVYtxvCt6ixozjUJejztDT0-KHTH_DKTBp-R1L2BmnB_afPtnWVHg_aem_L3DL_TWwowZ4TY-Ur8Db0A,106.754,108.654,space,1,0,24,24,24,1,Z,space,0.348,,,,,,,,,,,
,,,,,R_9eQjko0qChFJ2Cg,001,2025-09-10_10h31.18.857,continuous_performance_test,2024.2.4,MacIntel,71.42857143,IwVERDUAMtphJleHRuA2FlbQIxMQABHtdPsGOiVYtxvCt6ixozjUJejztDT0-KHTH_DKTBp-R1L2BmnB_afPtnWVHg_aem_L3DL_TWwowZ4TY-Ur8Db0A,108.656,110.505,space,1,0,25,25,22,1,W,space,0.347,,,,,,,,,,,
,,,,,R_9eQjko0qChFJ2Cg,001,2025-09-10_10h31.18.857,continuous_performance_test,2024.2.4,MacIntel,71.42857143,IwVERDUAMtphJleHRuA2FlbQIxMQABHtdPsGOiVYtxvCt6ixozjUJejztDT0-KHTH_DKTBp-R1L2BmnB_afPtnWVHg_aem_L3DL_TWwowZ4TY-Ur8Db0A,110.506,112.356,,1,0,26,26,29,1,X,,,,,,,,,,,,,
,,,,,R_9eQjko0qChFJ2Cg,001,2025-09-10_10h31.18.857,continuous_performance_test,2024.2.4,MacIntel,71.42857143,IwVERDUAMtphJleHRuA2FlbQIxMQABHtdPsGOiVYtxvCt6ixozjUJejztDT0-KHTH_DKTBp-R1L2BmnB_afPtnWVHg_aem_L3DL_TWwowZ4TY-Ur8Db0A,112.358,114.207,space,1,0,27,27,19,1,T,space,0.439,,,,,,,,,,,
,,,,,R_9eQjko0qChFJ2Cg,001,2025-09-10_10h31.18.857,continuous_performance_test,2024.2.4,MacIntel,71.42857143,IwVERDUAMtphJleHRuA2FlbQIxMQABHtdPsGOiVYtxvCt6ixozjUJejztDT0-KHTH_DKTBp-R1L2BmnB_afPtnWVHg_aem_L3DL_TWwowZ4TY-Ur8Db0A,114.209,116.208,space,0,0,28,28,26,1,X,,0.297,,,,,,,,,,,
,,,,,R_9eQjko0qChFJ2Cg,001,2025-09-10_10h31.18.857,continuous_performance_test,2024.2.4,MacIntel,71.42857143,IwVERDUAMtphJleHRuA2FlbQIxMQABHtdPsGOiVYtxvCt6ixozjUJejztDT0-KHTH_DKTBp-R1L2BmnB_afPtnWVHg_aem_L3DL_TWwowZ4TY-Ur8Db0A,116.21,117.759,space,1,0,29,29,4,1,E,space,0.546,,,,,,,,,,,
,,,,,R_9eQjko0qChFJ2Cg,001,2025-09-10_10h31.18.857,continuous_performance_test,2024.2.4,MacIntel,71.42857143,IwVERDUAMtphJleHRuA2FlbQIxMQABHtdPsGOiVYtxvCt6ixozjUJejztDT0-KHTH_DKTBp-R1L2BmnB_afPtnWVHg_aem_L3DL_TWwowZ4TY-Ur8Db0A,120.952,122.796,space,1,0,0,0,12,1,M,space,0.654,,117.76,120.946,space,3.17,,,,,,
,,,,,R_9eQjko0qChFJ2Cg,001,2025-09-10_10h31.18.857,continuous_performance_test,2024.2.4,MacIntel,71.42857143,IwVERDUAMtphJleHRuA2FlbQIxMQABHtdPsGOiVYtxvCt6ixozjUJejztDT0-KHTH_DKTBp-R1L2BmnB_afPtnWVHg_aem_L3DL_TWwowZ4TY-Ur8Db0A,122.798,124.747,space,1,0,1,1,20,1,U,space,0.363,,,,,,,,,,,
,,,,,R_9eQjko0qChFJ2Cg,001,2025-09-10_10h31.18.857,continuous_performance_test,2024.2.4,MacIntel,71.42857143,IwVERDUAMtphJleHRuA2FlbQIxMQABHtdPsGOiVYtxvCt6ixozjUJejztDT0-KHTH_DKTBp-R1L2BmnB_afPtnWVHg_aem_L3DL_TWwowZ4TY-Ur8Db0A,124.749,126.498,space,1,0,2,2,1,1,B,space,0.349,,,,,,,,,,,
,,,,,R_9eQjko0qChFJ2Cg,001,2025-09-10_10h31.18.857,continuous_performance_test,2024.2.4,MacIntel,71.42857143,IwVERDUAMtphJleHRuA2FlbQIxMQABHtdPsGOiVYtxvCt6ixozjUJejztDT0-KHTH_DKTBp-R1L2BmnB_afPtnWVHg_aem_L3DL_TWwowZ4TY-Ur8Db0A,126.499,128.099,space,1,0,3,3,19,1,T,space,0.464,,,,,,,,,,,
,,,,,R_9eQjko0qChFJ2Cg,001,2025-09-10_10h31.18.857,continuous_performance_test,2024.2.4,MacIntel,71.42857143,IwVERDUAMtphJleHRuA2FlbQIxMQABHtdPsGOiVYtxvCt6ixozjUJejztDT0-KHTH_DKTBp-R1L2BmnB_afPtnWVHg_aem_L3DL_TWwowZ4TY-Ur8Db0A,128.101,129.75,space,1,0,4,4,11,1,L,space,0.458,,,,,,,,,,,
,,,,,R_9eQjko0qChFJ2Cg,001,2025-09-10_10h31.18.857,continuous_performance_test,2024.2.4,MacIntel,71.42857143,IwVERDUAMtphJleHRuA2FlbQIxMQABHtdPsGOiVYtxvCt6ixozjUJejztDT0-KHTH_DKTBp-R1L2BmnB_afPtnWVHg_aem_L3DL_TWwowZ4TY-Ur8Db0A,129.752,131.451,space,1,0,5,5,6,1,G,space,0.369,,,,,,,,,,,
,,,,,R_9eQjko0qChFJ2Cg,001,2025-09-10_10h31.18.857,continuous_performance_test,2024.2.4,MacIntel,71.42857143,IwVERDUAMtphJleHRuA2FlbQIxMQABHtdPsGOiVYtxvCt6ixozjUJejztDT0-KHTH_DKTBp-R1L2BmnB_afPtnWVHg_aem_L3DL_TWwowZ4TY-Ur8Db0A,131.453,133.302,space,1,0,6,6,21,1,V,space,0.379,,,,,,,,,,,
,,,,,R_9eQjko0qChFJ2Cg,001,2025-09-10_10h31.18.857,continuous_performance_test,2024.2.4,MacIntel,71.42857143,IwVERDUAMtphJleHRuA2FlbQIxMQABHtdPsGOiVYtxvCt6ixozjUJejztDT0-KHTH_DKTBp-R1L2BmnB_afPtnWVHg_aem_L3DL_TWwowZ4TY-Ur8Db0A,133.304,135.253,space,1,0,7,7,17,1,R,space,0.381,,,,,,,,,,,
,,,,,R_9eQjko0qChFJ2Cg,001,2025-09-10_10h31.18.857,continuous_performance_test,2024.2.4,MacIntel,71.42857143,IwVERDUAMtphJleHRuA2FlbQIxMQABHtdPsGOiVYtxvCt6ixozjUJejztDT0-KHTH_DKTBp-R1L2BmnB_afPtnWVHg_aem_L3DL_TWwowZ4TY-Ur8Db0A,135.255,137.154,space,0,0,8,8,27,1,X,,0.331,,,,,,,,,,,
,,,,,R_9eQjko0qChFJ2Cg,001,2025-09-10_10h31.18.857,continuous_performance_test,2024.2.4,MacIntel,71.42857143,IwVERDUAMtphJleHRuA2FlbQIxMQABHtdPsGOiVYtxvCt6ixozjUJejztDT0-KHTH_DKTBp-R1L2BmnB_afPtnWVHg_aem_L3DL_TWwowZ4TY-Ur8Db0A,137.157,138.805,space,1,0,9,9,0,1,A,space,0.487,,,,,,,,,,,
,,,,,R_9eQjko0qChFJ2Cg,001,2025-09-10_10h31.18.857,continuous_performance_test,2024.2.4,MacIntel,71.42857143,IwVERDUAMtphJleHRuA2FlbQIxMQABHtdPsGOiVYtxvCt6ixozjUJejztDT0-KHTH_DKTBp-R1L2BmnB_afPtnWVHg_aem_L3DL_TWwowZ4TY-Ur8Db0A,138.808,140.456,space,1,0,10,10,16,1,Q,space,0.647,,,,,,,,,,,
,,,,,R_9eQjko0qChFJ2Cg,001,2025-09-10_10h31.18.857,continuous_performance_test,2024.2.4,MacIntel,71.42857143,IwVERDUAMtphJleHRuA2FlbQIxMQABHtdPsGOiVYtxvCt6ixozjUJejztDT0-KHTH_DKTBp-R1L2BmnB_afPtnWVHg_aem_L3DL_TWwowZ4TY-Ur8Db0A,140.459,142.108,,1,0,11,11,26,1,X,,,,,,,,,,,,,
,,,,,R_9eQjko0qChFJ2Cg,001,2025-09-10_10h31.18.857,continuous_performance_test,2024.2.4,MacIntel,71.42857143,IwVERDUAMtphJleHRuA2FlbQIxMQABHtdPsGOiVYtxvCt6ixozjUJejztDT0-KHTH_DKTBp-R1L2BmnB_afPtnWVHg_aem_L3DL_TWwowZ4TY-Ur8Db0A,142.112,144.009,space,1,0,12,12,5,1,F,space,0.438,,,,,,,,,,,
,,,,,R_9eQjko0qChFJ2Cg,001,2025-09-10_10h31.18.857,continuous_performance_test,2024.2.4,MacIntel,71.42857143,IwVERDUAMtphJleHRuA2FlbQIxMQABHtdPsGOiVYtxvCt6ixozjUJejztDT0-KHTH_DKTBp-R1L2BmnB_afPtnWVHg_aem_L3DL_TWwowZ4TY-Ur8Db0A,144.012,146.01,space,1,0,13,13,15,1,P,space,0.446,,,,,,,,,,,
,,,,,R_9eQjko0qChFJ2Cg,001,2025-09-10_10h31.18.857,continuous_performance_test,2024.2.4,MacIntel,71.42857143,IwVERDUAMtphJleHRuA2FlbQIxMQABHtdPsGOiVYtxvCt6ixozjUJejztDT0-KHTH_DKTBp-R1L2BmnB_afPtnWVHg_aem_L3DL_TWwowZ4TY-Ur8Db0A,146.012,147.861,space,1,0,14,14,22,1,W,space,0.487,,,,,,,,,,,
,,,,,R_9eQjko0qChFJ2Cg,001,2025-09-10_10h31.18.857,continuous_performance_test,2024.2.4,MacIntel,71.42857143,IwVERDUAMtphJleHRuA2FlbQIxMQABHtdPsGOiVYtxvCt6ixozjUJejztDT0-KHTH_DKTBp-R1L2BmnB_afPtnWVHg_aem_L3DL_TWwowZ4TY-Ur8Db0A,147.864,149.712,space,1,0,15,15,4,1,E,space,0.514,,,,,,,,,,,
,,,,,R_9eQjko0qChFJ2Cg,001,2025-09-10_10h31.18.857,continuous_performance_test,2024.2.4,MacIntel,71.42857143,IwVERDUAMtphJleHRuA2FlbQIxMQABHtdPsGOiVYtxvCt6ixozjUJejztDT0-KHTH_DKTBp-R1L2BmnB_afPtnWVHg_aem_L3DL_TWwowZ4TY-Ur8Db0A,149.712,151.463,space,1,0,16,16,24,1,Z,space,0.597,,,,,,,,,,,
,,,,,R_9eQjko0qChFJ2Cg,001,2025-09-10_10h31.18.857,continuous_performance_test,2024.2.4,MacIntel,71.42857143,IwVERDUAMtphJleHRuA2FlbQIxMQABHtdPsGOiVYtxvCt6ixozjUJejztDT0-KHTH_DKTBp-R1L2BmnB_afPtnWVHg_aem_L3DL_TWwowZ4TY-Ur8Db0A,151.465,153.364,,1,0,17,17,29,1,X,,,,,,,,,,,,,
,,,,,R_9eQjko0qChFJ2Cg,001,2025-09-10_10h31.18.857,continuous_performance_test,2024.2.4,MacIntel,71.42857143,IwVERDUAMtphJleHRuA2FlbQIxMQABHtdPsGOiVYtxvCt6ixozjUJejztDT0-KHTH_DKTBp-R1L2BmnB_afPtnWVHg_aem_L3DL_TWwowZ4TY-Ur8Db0A,153.367,155.365,space,1,0,18,18,18,1,S,space,0.437,,,,,,,,,,,
,,,,,R_9eQjko0qChFJ2Cg,001,2025-09-10_10h31.18.857,continuous_performance_test,2024.2.4,MacIntel,71.42857143,IwVERDUAMtphJleHRuA2FlbQIxMQABHtdPsGOiVYtxvCt6ixozjUJejztDT0-KHTH_DKTBp-R1L2BmnB_afPtnWVHg_aem_L3DL_TWwowZ4TY-Ur8Db0A,155.368,157.166,space,1,0,19,19,8,1,I,space,0.473,,,,,,,,,,,
,,,,,R_9eQjko0qChFJ2Cg,001,2025-09-10_10h31.18.857,continuous_performance_test,2024.2.4,MacIntel,71.42857143,IwVERDUAMtphJleHRuA2FlbQIxMQABHtdPsGOiVYtxvCt6ixozjUJejztDT0-KHTH_DKTBp-R1L2BmnB_afPtnWVHg_aem_L3DL_TWwowZ4TY-Ur8Db0A,157.168,159.118,space,1,0,20,20,14,1,O,space,0.471,,,,,,,,,,,
,,,,,R_9eQjko0qChFJ2Cg,001,2025-09-10_10h31.18.857,continuous_performance_test,2024.2.4,MacIntel,71.42857143,IwVERDUAMtphJleHRuA2FlbQIxMQABHtdPsGOiVYtxvCt6ixozjUJejztDT0-KHTH_DKTBp-R1L2BmnB_afPtnWVHg_aem_L3DL_TWwowZ4TY-Ur8Db0A,159.12,161.019,space,1,0,21,21,10,1,K,space,0.382,,,,,,,,,,,
,,,,,R_9eQjko0qChFJ2Cg,001,2025-09-10_10h31.18.857,continuous_performance_test,2024.2.4,MacIntel,71.42857143,IwVERDUAMtphJleHRuA2FlbQIxMQABHtdPsGOiVYtxvCt6ixozjUJejztDT0-KHTH_DKTBp-R1L2BmnB_afPtnWVHg_aem_L3DL_TWwowZ4TY-Ur8Db0A,161.021,162.62,,1,0,22,22,28,1,X,,,,,,,,,,,,,
,,,,,R_9eQjko0qChFJ2Cg,001,2025-09-10_10h31.18.857,continuous_performance_test,2024.2.4,MacIntel,71.42857143,IwVERDUAMtphJleHRuA2FlbQIxMQABHtdPsGOiVYtxvCt6ixozjUJejztDT0-KHTH_DKTBp-R1L2BmnB_afPtnWVHg_aem_L3DL_TWwowZ4TY-Ur8Db0A,162.622,164.221,space,1,0,23,23,9,1,J,space,0.364,,,,,,,,,,,
,,,,,R_9eQjko0qChFJ2Cg,001,2025-09-10_10h31.18.857,continuous_performance_test,2024.2.4,MacIntel,71.42857143,IwVERDUAMtphJleHRuA2FlbQIxMQABHtdPsGOiVYtxvCt6ixozjUJejztDT0-KHTH_DKTBp-R1L2BmnB_afPtnWVHg_aem_L3DL_TWwowZ4TY-Ur8Db0A,164.223,165.772,space,1,0,24,24,3,1,D,space,0.41,,,,,,,,,,,
,,,,,R_9eQjko0qChFJ2Cg,001,2025-09-10_10h31.18.857,continuous_performance_test,2024.2.4,MacIntel,71.42857143,IwVERDUAMtphJleHRuA2FlbQIxMQABHtdPsGOiVYtxvCt6ixozjUJejztDT0-KHTH_DKTBp-R1L2BmnB_afPtnWVHg_aem_L3DL_TWwowZ4TY-Ur8Db0A,165.773,167.323,,1,0,25,25,25,1,X,,,,,,,,,,,,,
,,,,,R_9eQjko0qChFJ2Cg,001,2025-09-10_10h31.18.857,continuous_performance_test,2024.2.4,MacIntel,71.42857143,IwVERDUAMtphJleHRuA2FlbQIxMQABHtdPsGOiVYtxvCt6ixozjUJejztDT0-KHTH_DKTBp-R1L2BmnB_afPtnWVHg_aem_L3DL_TWwowZ4TY-Ur8Db0A,167.325,169.274,space,1,0,26,26,7,1,H,space,0.403,,,,,,,,,,,
,,,,,R_9eQjko0qChFJ2Cg,001,2025-09-10_10h31.18.857,continuous_performance_test,2024.2.4,MacIntel,71.42857143,IwVERDUAMtphJleHRuA2FlbQIxMQABHtdPsGOiVYtxvCt6ixozjUJejztDT0-KHTH_DKTBp-R1L2BmnB_afPtnWVHg_aem_L3DL_TWwowZ4TY-Ur8Db0A,169.276,170.925,space,1,0,27,27,2,1,C,space,0.389,,,,,,,,,,,
,,,,,R_9eQjko0qChFJ2Cg,001,2025-09-10_10h31.18.857,continuous_performance_test,2024.2.4,MacIntel,71.42857143,IwVERDUAMtphJleHRuA2FlbQIxMQABHtdPsGOiVYtxvCt6ixozjUJejztDT0-KHTH_DKTBp-R1L2BmnB_afPtnWVHg_aem_L3DL_TWwowZ4TY-Ur8Db0A,170.927,172.526,space,1,0,28,28,13,1,N,space,0.697,,,,,,,,,,,
,,,,,R_9eQjko0qChFJ2Cg,001,2025-09-10_10h31.18.857,continuous_performance_test,2024.2.4,MacIntel,71.42857143,IwVERDUAMtphJleHRuA2FlbQIxMQABHtdPsGOiVYtxvCt6ixozjUJejztDT0-KHTH_DKTBp-R1L2BmnB_afPtnWVHg_aem_L3DL_TWwowZ4TY-Ur8Db0A,172.527,174.477,space,1,0,29,29,23,1,Y,space,0.774,,,,,,,,,,,
,,,,,R_9eQjko0qChFJ2Cg,001,2025-09-10_10h31.18.857,continuous_performance_test,2024.2.4,MacIntel,71.42857143,IwVERDUAMtphJleHRuA2FlbQIxMQABHtdPsGOiVYtxvCt6ixozjUJejztDT0-KHTH_DKTBp-R1L2BmnB_afPtnWVHg_aem_L3DL_TWwowZ4TY-Ur8Db0A,177.37,179.013,space,1,0,0,0,14,1,O,space,0.497,,174.48,177.364,space,2.864,,,,,,
,,,,,R_9eQjko0qChFJ2Cg,001,2025-09-10_10h31.18.857,continuous_performance_test,2024.2.4,MacIntel,71.42857143,IwVERDUAMtphJleHRuA2FlbQIxMQABHtdPsGOiVYtxvCt6ixozjUJejztDT0-KHTH_DKTBp-R1L2BmnB_afPtnWVHg_aem_L3DL_TWwowZ4TY-Ur8Db0A,179.015,180.614,space,1,0,1,1,8,1,I,space,0.321,,,,,,,,,,,
,,,,,R_9eQjko0qChFJ2Cg,001,2025-09-10_10h31.18.857,continuous_performance_test,2024.2.4,MacIntel,71.42857143,IwVERDUAMtphJleHRuA2FlbQIxMQABHtdPsGOiVYtxvCt6ixozjUJejztDT0-KHTH_DKTBp-R1L2BmnB_afPtnWVHg_aem_L3DL_TWwowZ4TY-Ur8Db0A,180.616,182.565,space,0,0,2,2,28,1,X,,0.269,,,,,,,,,,,
,,,,,R_9eQjko0qChFJ2Cg,001,2025-09-10_10h31.18.857,continuous_performance_test,2024.2.4,MacIntel,71.42857143,IwVERDUAMtphJleHRuA2FlbQIxMQABHtdPsGOiVYtxvCt6ixozjUJejztDT0-KHTH_DKTBp-R1L2BmnB_afPtnWVHg_aem_L3DL_TWwowZ4TY-Ur8Db0A,182.566,184.266,space,1,0,3,3,0,1,A,space,0.354,,,,,,,,,,,
,,,,,R_9eQjko0qChFJ2Cg,001,2025-09-10_10h31.18.857,continuous_performance_test,2024.2.4,MacIntel,71.42857143,IwVERDUAMtphJleHRuA2FlbQIxMQABHtdPsGOiVYtxvCt6ixozjUJejztDT0-KHTH_DKTBp-R1L2BmnB_afPtnWVHg_aem_L3DL_TWwowZ4TY-Ur8Db0A,184.268,186.118,space,1,0,4,4,17,1,R,space,0.362,,,,,,,,,,,
,,,,,R_9eQjko0qChFJ2Cg,001,2025-09-10_10h31.18.857,continuous_performance_test,2024.2.4,MacIntel,71.42857143,IwVERDUAMtphJleHRuA2FlbQIxMQABHtdPsGOiVYtxvCt6ixozjUJejztDT0-KHTH_DKTBp-R1L2BmnB_afPtnWVHg_aem_L3DL_TWwowZ4TY-Ur8Db0A,186.12,187.968,space,1,0,5,5,9,1,J,space,0.381,,,,,,,,,,,
,,,,,R_9eQjko0qChFJ2Cg,001,2025-09-10_10h31.18.857,continuous_performance_test,2024.2.4,MacIntel,71.42857143,IwVERDUAMtphJleHRuA2FlbQIxMQABHtdPsGOiVYtxvCt6ixozjUJejztDT0-KHTH_DKTBp-R1L2BmnB_afPtnWVHg_aem_L3DL_TWwowZ4TY-Ur8Db0A,187.971,189.519,space,1,0,6,6,4,1,E,space,0.42,,,,,,,,,,,
,,,,,R_9eQjko0qChFJ2Cg,001,2025-09-10_10h31.18.857,continuous_performance_test,2024.2.4,MacIntel,71.42857143,IwVERDUAMtphJleHRuA2FlbQIxMQABHtdPsGOiVYtxvCt6ixozjUJejztDT0-KHTH_DKTBp-R1L2BmnB_afPtnWVHg_aem_L3DL_TWwowZ4TY-Ur8Db0A,189.521,191.37,space,1,0,7,7,15,1,P,space,0.338,,,,,,,,,,,
,,,,,R_9eQjko0qChFJ2Cg,001,2025-09-10_10h31.18.857,continuous_performance_test,2024.2.4,MacIntel,71.42857143,IwVERDUAMtphJleHRuA2FlbQIxMQABHtdPsGOiVYtxvCt6ixozjUJejztDT0-KHTH_DKTBp-R1L2BmnB_afPtnWVHg_aem_L3DL_TWwowZ4TY-Ur8Db0A,191.373,193.222,space,1,0,8,8,1,1,B,space,0.363,,,,,,,,,,,
,,,,,R_9eQjko0qChFJ2Cg,001,2025-09-10_10h31.18.857,continuous_performance_test,2024.2.4,MacIntel,71.42857143,IwVERDUAMtphJleHRuA2FlbQIxMQABHtdPsGOiVYtxvCt6ixozjUJejztDT0-KHTH_DKTBp-R1L2BmnB_afPtnWVHg_aem_L3DL_TWwowZ4TY-Ur8Db0A,193.224,194.973,space,1,0,9,9,11,1,L,space,0.532,,,,,,,,,,,
,,,,,R_9eQjko0qChFJ2Cg,001,2025-09-10_10h31.18.857,continuous_performance_test,2024.2.4,MacIntel,71.42857143,IwVERDUAMtphJleHRuA2FlbQIxMQABHtdPsGOiVYtxvCt6ixozjUJejztDT0-KHTH_DKTBp-R1L2BmnB_afPtnWVHg_aem_L3DL_TWwowZ4TY-Ur8Db0A,194.975,196.724,space,1,0,10,10,3,1,D,space,0.324,,,,,,,,,,,
,,,,,R_9eQjko0qChFJ2Cg,001,2025-09-10_10h31.18.857,continuous_performance_test,2024.2.4,MacIntel,71.42857143,IwVERDUAMtphJleHRuA2FlbQIxMQABHtdPsGOiVYtxvCt6ixozjUJejztDT0-KHTH_DKTBp-R1L2BmnB_afPtnWVHg_aem_L3DL_TWwowZ4TY-Ur8Db0A,196.726,198.325,space,1,0,11,11,19,1,T,space,0.518,,,,,,,,,,,
,,,,,R_9eQjko0qChFJ2Cg,001,2025-09-10_10h31.18.857,continuous_performance_test,2024.2.4,MacIntel,71.42857143,IwVERDUAMtphJleHRuA2FlbQIxMQABHtdPsGOiVYtxvCt6ixozjUJejztDT0-KHTH_DKTBp-R1L2BmnB_afPtnWVHg_aem_L3DL_TWwowZ4TY-Ur8Db0A,198.327,200.326,space,1,0,12,12,13,1,N,space,0.405,,,,,,,,,,,
,,,,,R_9eQjko0qChFJ2Cg,001,2025-09-10_10h31.18.857,continuous_performance_test,2024.2.4,MacIntel,71.42857143,IwVERDUAMtphJleHRuA2FlbQIxMQABHtdPsGOiVYtxvCt6ixozjUJejztDT0-KHTH_DKTBp-R1L2BmnB_afPtnWVHg_aem_L3DL_TWwowZ4TY-Ur8Db0A,200.328,201.927,,1,0,13,13,25,1,X,,,,,,,,,,,,,
,,,,,R_9eQjko0qChFJ2Cg,001,2025-09-10_10h31.18.857,continuous_performance_test,2024.2.4,MacIntel,71.42857143,IwVERDUAMtphJleHRuA2FlbQIxMQABHtdPsGOiVYtxvCt6ixozjUJejztDT0-KHTH_DKTBp-R1L2BmnB_afPtnWVHg_aem_L3DL_TWwowZ4TY-Ur8Db0A,201.929,203.528,space,1,0,14,14,10,1,K,space,0.504,,,,,,,,,,,
,,,,,R_9eQjko0qChFJ2Cg,001,2025-09-10_10h31.18.857,continuous_performance_test,2024.2.4,MacIntel,71.42857143,IwVERDUAMtphJleHRuA2FlbQIxMQABHtdPsGOiVYtxvCt6ixozjUJejztDT0-KHTH_DKTBp-R1L2BmnB_afPtnWVHg_aem_L3DL_TWwowZ4TY-Ur8Db0A,203.53,205.529,space,1,0,15,15,7,1,H,space,0.411,,,,,,,,,,,
,,,,,R_9eQjko0qChFJ2Cg,001,2025-09-10_10h31.18.857,continuous_performance_test,2024.2.4,MacIntel,71.42857143,IwVERDUAMtphJleHRuA2FlbQIxMQABHtdPsGOiVYtxvCt6ixozjUJejztDT0-KHTH_DKTBp-R1L2BmnB_afPtnWVHg_aem_L3DL_TWwowZ4TY-Ur8Db0A,205.531,207.08,space,1,0,16,16,23,1,Y,space,0.422,,,,,,,,,,,
,,,,,R_9eQjko0qChFJ2Cg,001,2025-09-10_10h31.18.857,continuous_performance_test,2024.2.4,MacIntel,71.42857143,IwVERDUAMtphJleHRuA2FlbQIxMQABHtdPsGOiVYtxvCt6ixozjUJejztDT0-KHTH_DKTBp-R1L2BmnB_afPtnWVHg_aem_L3DL_TWwowZ4TY-Ur8Db0A,207.082,208.681,space,1,0,17,17,16,1,Q,space,0.322,,,,,,,,,,,
,,,,,R_9eQjko0qChFJ2Cg,001,2025-09-10_10h31.18.857,continuous_performance_test,2024.2.4,MacIntel,71.42857143,IwVERDUAMtphJleHRuA2FlbQIxMQABHtdPsGOiVYtxvCt6ixozjUJejztDT0-KHTH_DKTBp-R1L2BmnB_afPtnWVHg_aem_L3DL_TWwowZ4TY-Ur8Db0A,208.683,210.282,space,1,0,18,18,2,1,C,space,0.381,,,,,,,,,,,
,,,,,R_9eQjko0qChFJ2Cg,001,2025-09-10_10h31.18.857,continuous_performance_test,2024.2.4,MacIntel,71.42857143,IwVERDUAMtphJleHRuA2FlbQIxMQABHtdPsGOiVYtxvCt6ixozjUJejztDT0-KHTH_DKTBp-R1L2BmnB_afPtnWVHg_aem_L3DL_TWwowZ4TY-Ur8Db0A,210.284,212.283,,1,0,19,19,26,1,X,,,,,,,,,,,,,
,,,,,R_9eQjko0qChFJ2Cg,001,2025-09-10_10h31.18.857,continuous_performance_test,2024.2.4,MacIntel,71.42857143,IwVERDUAMtphJleHRuA2FlbQIxMQABHtdPsGOiVYtxvCt6ixozjUJejztDT0-KHTH_DKTBp-R1L2BmnB_afPtnWVHg_aem_L3DL_TWwowZ4TY-Ur8Db0A,212.285,214.184,space,1,0,20,20,20,1,U,space,0.365,,,,,,,,,,,
,,,,,R_9eQjko0qChFJ2Cg,001,2025-09-10_10h31.18.857,continuous_performance_test,2024.2.4,MacIntel,71.42857143,IwVERDUAMtphJleHRuA2FlbQIxMQABHtdPsGOiVYtxvCt6ixozjUJejztDT0-KHTH_DKTBp-R1L2BmnB_afPtnWVHg_aem_L3DL_TWwowZ4TY-Ur8Db0A,214.187,216.086,space,1,0,21,21,6,1,G,space,0.415,,,,,,,,,,,
,,,,,R_9eQjko0qChFJ2Cg,001,2025-09-10_10h31.18.857,continuous_performance_test,2024.2.4,MacIntel,71.42857143,IwVERDUAMtphJleHRuA2FlbQIxMQABHtdPsGOiVYtxvCt6ixozjUJejztDT0-KHTH_DKTBp-R1L2BmnB_afPtnWVHg_aem_L3DL_TWwowZ4TY-Ur8Db0A,216.088,217.687,space,1,0,22,22,18,1,S,space,0.397,,,,,,,,,,,
,,,,,R_9eQjko0qChFJ2Cg,001,2025-09-10_10h31.18.857,continuous_performance_test,2024.2.4,MacIntel,71.42857143,IwVERDUAMtphJleHRuA2FlbQIxMQABHtdPsGOiVYtxvCt6ixozjUJejztDT0-KHTH_DKTBp-R1L2BmnB_afPtnWVHg_aem_L3DL_TWwowZ4TY-Ur8Db0A,217.689,219.237,space,1,0,23,23,22,1,W,space,0.431,,,,,,,,,,,
,,,,,R_9eQjko0qChFJ2Cg,001,2025-09-10_10h31.18.857,continuous_performance_test,2024.2.4,MacIntel,71.42857143,IwVERDUAMtphJleHRuA2FlbQIxMQABHtdPsGOiVYtxvCt6ixozjUJejztDT0-KHTH_DKTBp-R1L2BmnB_afPtnWVHg_aem_L3DL_TWwowZ4TY-Ur8Db0A,219.24,220.889,space,1,0,24,24,5,1,F,space,0.376,,,,,,,,,,,
,,,,,R_9eQjko0qChFJ2Cg,001,2025-09-10_10h31.18.857,continuous_performance_test,2024.2.4,MacIntel,71.42857143,IwVERDUAMtphJleHRuA2FlbQIxMQABHtdPsGOiVYtxvCt6ixozjUJejztDT0-KHTH_DKTBp-R1L2BmnB_afPtnWVHg_aem_L3DL_TWwowZ4TY-Ur8Db0A,220.893,222.539,space,1,0,25,25,21,1,V,space,0.464,,,,,,,,,,,
,,,,,R_9eQjko0qChFJ2Cg,001,2025-09-10_10h31.18.857,continuous_performance_test,2024.2.4,MacIntel,71.42857143,IwVERDUAMtphJleHRuA2FlbQIxMQABHtdPsGOiVYtxvCt6ixozjUJejztDT0-KHTH_DKTBp-R1L2BmnB_afPtnWVHg_aem_L3DL_TWwowZ4TY-Ur8Db0A,222.542,224.441,,1,0,26,26,27,1,X,,,,,,,,,,,,,
,,,,,R_9eQjko0qChFJ2Cg,001,2025-09-10_10h31.18.857,continuous_performance_test,2024.2.4,MacIntel,71.42857143,IwVERDUAMtphJleHRuA2FlbQIxMQABHtdPsGOiVYtxvCt6ixozjUJejztDT0-KHTH_DKTBp-R1L2BmnB_afPtnWVHg_aem_L3DL_TWwowZ4TY-Ur8Db0A,224.443,226.092,space,1,0,27,27,12,1,M,space,0.323,,,,,,,,,,,
,,,,,R_9eQjko0qChFJ2Cg,001,2025-09-10_10h31.18.857,continuous_performance_test,2024.2.4,MacIntel,71.42857143,IwVERDUAMtphJleHRuA2FlbQIxMQABHtdPsGOiVYtxvCt6ixozjUJejztDT0-KHTH_DKTBp-R1L2BmnB_afPtnWVHg_aem_L3DL_TWwowZ4TY-Ur8Db0A,226.094,227.843,,0,0,28,28,24,1,Z,space,,,,,,,,,,,,
,,,,,R_9eQjko0qChFJ2Cg,001,2025-09-10_10h31.18.857,continuous_performance_test,2024.2.4,MacIntel,71.42857143,IwVERDUAMtphJleHRuA2FlbQIxMQABHtdPsGOiVYtxvCt6ixozjUJejztDT0-KHTH_DKTBp-R1L2BmnB_afPtnWVHg_aem_L3DL_TWwowZ4TY-Ur8Db0A,227.844,229.594,space,0,0,29,29,29,1,X,,0.364,,,,,,,,,,,
,,,,,R_9eQjko0qChFJ2Cg,001,2025-09-10_10h31.18.857,continuous_performance_test,2024.2.4,MacIntel,71.42857143,IwVERDUAMtphJleHRuA2FlbQIxMQABHtdPsGOiVYtxvCt6ixozjUJejztDT0-KHTH_DKTBp-R1L2BmnB_afPtnWVHg_aem_L3DL_TWwowZ4TY-Ur8Db0A,241.969,243.819,space,1,0,0,0,24,1,Z,space,0.672,,229.596,241.964,space,12.341,,,,,,
,,,,,R_9eQjko0qChFJ2Cg,001,2025-09-10_10h31.18.857,continuous_performance_test,2024.2.4,MacIntel,71.42857143,IwVERDUAMtphJleHRuA2FlbQIxMQABHtdPsGOiVYtxvCt6ixozjUJejztDT0-KHTH_DKTBp-R1L2BmnB_afPtnWVHg_aem_L3DL_TWwowZ4TY-Ur8Db0A,243.822,245.37,,1,0,1,1,27,1,X,,,,,,,,,,,,,
,,,,,R_9eQjko0qChFJ2Cg,001,2025-09-10_10h31.18.857,continuous_performance_test,2024.2.4,MacIntel,71.42857143,IwVERDUAMtphJleHRuA2FlbQIxMQABHtdPsGOiVYtxvCt6ixozjUJejztDT0-KHTH_DKTBp-R1L2BmnB_afPtnWVHg_aem_L3DL_TWwowZ4TY-Ur8Db0A,245.373,247.071,space,1,0,2,2,0,1,A,space,0.349,,,,,,,,,,,
,,,,,R_9eQjko0qChFJ2Cg,001,2025-09-10_10h31.18.857,continuous_performance_test,2024.2.4,MacIntel,71.42857143,IwVERDUAMtphJleHRuA2FlbQIxMQABHtdPsGOiVYtxvCt6ixozjUJejztDT0-KHTH_DKTBp-R1L2BmnB_afPtnWVHg_aem_L3DL_TWwowZ4TY-Ur8Db0A,247.073,248.922,space,1,0,3,3,11,1,L,space,0.937,,,,,,,,,,,
,,,,,R_9eQjko0qChFJ2Cg,001,2025-09-10_10h31.18.857,continuous_performance_test,2024.2.4,MacIntel,71.42857143,IwVERDUAMtphJleHRuA2FlbQIxMQABHtdPsGOiVYtxvCt6ixozjUJejztDT0-KHTH_DKTBp-R1L2BmnB_afPtnWVHg_aem_L3DL_TWwowZ4TY-Ur8Db0A,248.924,250.523,space,1,0,4,4,22,1,W,space,0.897,,,,,,,,,,,
,,,,,R_9eQjko0qChFJ2Cg,001,2025-09-10_10h31.18.857,continuous_performance_test,2024.2.4,MacIntel,71.42857143,IwVERDUAMtphJleHRuA2FlbQIxMQABHtdPsGOiVYtxvCt6ixozjUJejztDT0-KHTH_DKTBp-R1L2BmnB_afPtnWVHg_aem_L3DL_TWwowZ4TY-Ur8Db0A,250.525,252.124,space,1,0,5,5,19,1,T,space,0.428,,,,,,,,,,,
,,,,,R_9eQjko0qChFJ2Cg,001,2025-09-10_10h31.18.857,continuous_performance_test,2024.2.4,MacIntel,71.42857143,IwVERDUAMtphJleHRuA2FlbQIxMQABHtdPsGOiVYtxvCt6ixozjUJejztDT0-KHTH_DKTBp-R1L2BmnB_afPtnWVHg_aem_L3DL_TWwowZ4TY-Ur8Db0A,252.126,253.875,space,1,0,6,6,9,1,J,space,0.397,,,,,,,,,,,
,,,,,R_9eQjko0qChFJ2Cg,001,2025-09-10_10h31.18.857,continuous_performance_test,2024.2.4,MacIntel,71.42857143,IwVERDUAMtphJleHRuA2FlbQIxMQABHtdPsGOiVYtxvCt6ixozjUJejztDT0-KHTH_DKTBp-R1L2BmnB_afPtnWVHg_aem_L3DL_TWwowZ4TY-Ur8Db0A,253.878,255.826,space,1,0,7,7,14,1,O,space,0.356,,,,,,,,,,,
,,,,,R_9eQjko0qChFJ2Cg,001,2025-09-10_10h31.18.857,continuous_performance_test,2024.2.4,MacIntel,71.42857143,IwVERDUAMtphJleHRuA2FlbQIxMQABHtdPsGOiVYtxvCt6ixozjUJejztDT0-KHTH_DKTBp-R1L2BmnB_afPtnWVHg_aem_L3DL_TWwowZ4TY-Ur8Db0A,255.83,257.377,space,1,0,8,8,8,1,I,space,0.437,,,,,,,,,,,
,,,,,R_9eQjko0qChFJ2Cg,001,2025-09-10_10h31.18.857,continuous_performance_test,2024.2.4,MacIntel,71.42857143,IwVERDUAMtphJleHRuA2FlbQIxMQABHtdPsGOiVYtxvCt6ixozjUJejztDT0-KHTH_DKTBp-R1L2BmnB_afPtnWVHg_aem_L3DL_TWwowZ4TY-Ur8Db0A,257.38,258.978,space,1,0,9,9,7,1,H,space,0.456,,,,,,,,,,,
,,,,,R_9eQjko0qChFJ2Cg,001,2025-09-10_10h31.18.857,continuous_performance_test,2024.2.4,MacIntel,71.42857143,IwVERDUAMtphJleHRuA2FlbQIxMQABHtdPsGOiVYtxvCt6ixozjUJejztDT0-KHTH_DKTBp-R1L2BmnB_afPtnWVHg_aem_L3DL_TWwowZ4TY-Ur8Db0A,258.98,260.88,space,1,0,10,10,23,1,Y,space,0.391,,,,,,,,,,,
,,,,,R_9eQjko0qChFJ2Cg,001,2025-09-10_10h31.18.857,continuous_performance_test,2024.2.4,MacIntel,71.42857143,IwVERDUAMtphJleHRuA2FlbQIxMQABHtdPsGOiVYtxvCt6ixozjUJejztDT0-KHTH_DKTBp-R1L2BmnB_afPtnWVHg_aem_L3DL_TWwowZ4TY-Ur8Db0A,260.882,262.53,space,1,0,11,11,13,1,N,space,0.365,,,,,,,,,,,
,,,,,R_9eQjko0qChFJ2Cg,001,2025-09-10_10h31.18.857,continuous_performance_test,2024.2.4,MacIntel,71.42857143,IwVERDUAMtphJleHRuA2FlbQIxMQABHtdPsGOiVYtxvCt6ixozjUJejztDT0-KHTH_DKTBp-R1L2BmnB_afPtnWVHg_aem_L3DL_TWwowZ4TY-Ur8Db0A,262.532,264.231,space,1,0,12,12,4,1,E,space,0.315,,,,,,,,,,,
,,,,,R_9eQjko0qChFJ2Cg,001,2025-09-10_10h31.18.857,continuous_performance_test,2024.2.4,MacIntel,71.42857143,IwVERDUAMtphJleHRuA2FlbQIxMQABHtdPsGOiVYtxvCt6ixozjUJejztDT0-KHTH_DKTBp-R1L2BmnB_afPtnWVHg_aem_L3DL_TWwowZ4TY-Ur8Db0A,264.233,266.032,space,1,0,13,13,10,1,K,space,0.336,,,,,,,,,,,
,,,,,R_9eQjko0qChFJ2Cg,001,2025-09-10_10h31.18.857,continuous_performance_test,2024.2.4,MacIntel,71.42857143,IwVERDUAMtphJleHRuA2FlbQIxMQABHtdPsGOiVYtxvCt6ixozjUJejztDT0-KHTH_DKTBp-R1L2BmnB_afPtnWVHg_aem_L3DL_TWwowZ4TY-Ur8Db0A,266.034,267.934,space,1,0,14,14,18,1,S,space,0.281,,,,,,,,,,,
,,,,,R_9eQjko0qChFJ2Cg,001,2025-09-10_10h31.18.857,continuous_performance_test,2024.2.4,MacIntel,71.42857143,IwVERDUAMtphJleHRuA2FlbQIxMQABHtdPsGOiVYtxvCt6ixozjUJejztDT0-KHTH_DKTBp-R1L2BmnB_afPtnWVHg_aem_L3DL_TWwowZ4TY-Ur8Db0A,267.935,269.735,,1,0,15,15,28,1,X,,,,,,,,,,,,,
,,,,,R_9eQjko0qChFJ2Cg,001,2025-09-10_10h31.18.857,continuous_performance_test,2024.2.4,MacIntel,71.42857143,IwVERDUAMtphJleHRuA2FlbQIxMQABHtdPsGOiVYtxvCt6ixozjUJejztDT0-KHTH_DKTBp-R1L2BmnB_afPtnWVHg_aem_L3DL_TWwowZ4TY-Ur8Db0A,269.736,271.336,,1,0,16,16,29,1,X,,,,,,,,,,,,,
,,,,,R_9eQjko0qChFJ2Cg,001,2025-09-10_10h31.18.857,continuous_performance_test,2024.2.4,MacIntel,71.42857143,IwVERDUAMtphJleHRuA2FlbQIxMQABHtdPsGOiVYtxvCt6ixozjUJejztDT0-KHTH_DKTBp-R1L2BmnB_afPtnWVHg_aem_L3DL_TWwowZ4TY-Ur8Db0A,271.338,273.287,space,1,0,17,17,15,1,P,space,0.305,,,,,,,,,,,
,,,,,R_9eQjko0qChFJ2Cg,001,2025-09-10_10h31.18.857,continuous_performance_test,2024.2.4,MacIntel,71.42857143,IwVERDUAMtphJleHRuA2FlbQIxMQABHtdPsGOiVYtxvCt6ixozjUJejztDT0-KHTH_DKTBp-R1L2BmnB_afPtnWVHg_aem_L3DL_TWwowZ4TY-Ur8Db0A,273.289,275.042,,0,0,18,18,5,1,F,space,,,,,,,,,,,,
,,,,,R_9eQjko0qChFJ2Cg,001,2025-09-10_10h31.18.857,continuous_performance_test,2024.2.4,MacIntel,71.42857143,IwVERDUAMtphJleHRuA2FlbQIxMQABHtdPsGOiVYtxvCt6ixozjUJejztDT0-KHTH_DKTBp-R1L2BmnB_afPtnWVHg_aem_L3DL_TWwowZ4TY-Ur8Db0A,275.043,276.689,space,1,0,19,19,17,1,R,space,0.424,,,,,,,,,,,
,,,,,R_9eQjko0qChFJ2Cg,001,2025-09-10_10h31.18.857,continuous_performance_test,2024.2.4,MacIntel,71.42857143,IwVERDUAMtphJleHRuA2FlbQIxMQABHtdPsGOiVYtxvCt6ixozjUJejztDT0-KHTH_DKTBp-R1L2BmnB_afPtnWVHg_aem_L3DL_TWwowZ4TY-Ur8Db0A,276.691,278.49,space,0,0,20,20,25,1,X,,0.294,,,,,,,,,,,
,,,,,R_9eQjko0qChFJ2Cg,001,2025-09-10_10h31.18.857,continuous_performance_test,2024.2.4,MacIntel,71.42857143,IwVERDUAMtphJleHRuA2FlbQIxMQABHtdPsGOiVYtxvCt6ixozjUJejztDT0-KHTH_DKTBp-R1L2BmnB_afPtnWVHg_aem_L3DL_TWwowZ4TY-Ur8Db0A,278.492,280.041,space,1,0,21,21,21,1,V,space,0.489,,,,,,,,,,,
,,,,,R_9eQjko0qChFJ2Cg,001,2025-09-10_10h31.18.857,continuous_performance_test,2024.2.4,MacIntel,71.42857143,IwVERDUAMtphJleHRuA2FlbQIxMQABHtdPsGOiVYtxvCt6ixozjUJejztDT0-KHTH_DKTBp-R1L2BmnB_afPtnWVHg_aem_L3DL_TWwowZ4TY-Ur8Db0A,280.043,281.892,space,1,0,22,22,20,1,U,space,0.381,,,,,,,,,,,
,,,,,R_9eQjko0qChFJ2Cg,001,2025-09-10_10h31.18.857,continuous_performance_test,2024.2.4,MacIntel,71.42857143,IwVERDUAMtphJleHRuA2FlbQIxMQABHtdPsGOiVYtxvCt6ixozjUJejztDT0-KHTH_DKTBp-R1L2BmnB_afPtnWVHg_aem_L3DL_TWwowZ4TY-Ur8Db0A,281.894,283.593,space,1,0,23,23,1,1,B,space,0.295,,,,,,,,,,,
,,,,,R_9eQjko0qChFJ2Cg,001,2025-09-10_10h31.18.857,continuous_performance_test,2024.2.4,MacIntel,71.42857143,IwVERDUAMtphJleHRuA2FlbQIxMQABHtdPsGOiVYtxvCt6ixozjUJejztDT0-KHTH_DKTBp-R1L2BmnB_afPtnWVHg_aem_L3DL_TWwowZ4TY-Ur8Db0A,283.595,285.194,space,1,0,24,24,6,1,G,space,0.289,,,,,,,,,,,
,,,,,R_9eQjko0qChFJ2Cg,001,2025-09-10_10h31.18.857,continuous_performance_test,2024.2.4,MacIntel,71.42857143,IwVERDUAMtphJleHRuA2FlbQIxMQABHtdPsGOiVYtxvCt6ixozjUJejztDT0-KHTH_DKTBp-R1L2BmnB_afPtnWVHg_aem_L3DL_TWwowZ4TY-Ur8Db0A,285.196,287.095,space,1,0,25,25,2,1,C,space,0.34,,,,,,,,,,,
,,,,,R_9eQjko0qChFJ2Cg,001,2025-09-10_10h31.18.857,continuous_performance_test,2024.2.4,MacIntel,71.42857143,IwVERDUAMtphJleHRuA2FlbQIxMQABHtdPsGOiVYtxvCt6ixozjUJejztDT0-KHTH_DKTBp-R1L2BmnB_afPtnWVHg_aem_L3DL_TWwowZ4TY-Ur8Db0A,287.098,289.097,space,1,0,26,26,16,1,Q,space,0.506,,,,,,,,,,,
,,,,,R_9eQjko0qChFJ2Cg,001,2025-09-10_10h31.18.857,continuous_performance_test,2024.2.4,MacIntel,71.42857143,IwVERDUAMtphJleHRuA2FlbQIxMQABHtdPsGOiVYtxvCt6ixozjUJejztDT0-KHTH_DKTBp-R1L2BmnB_afPtnWVHg_aem_L3DL_TWwowZ4TY-Ur8Db0A,289.099,290.948,space,0,0,27,27,26,1,X,,0.381,,,,,,,,,,,
,,,,,R_9eQjko0qChFJ2Cg,001,2025-09-10_10h31.18.857,continuous_performance_test,2024.2.4,MacIntel,71.42857143,IwVERDUAMtphJleHRuA2FlbQIxMQABHtdPsGOiVYtxvCt6ixozjUJejztDT0-KHTH_DKTBp-R1L2BmnB_afPtnWVHg_aem_L3DL_TWwowZ4TY-Ur8Db0A,290.95,292.899,space,1,0,28,28,3,1,D,space,0.488,,,,,,,,,,,
,,,,,R_9eQjko0qChFJ2Cg,001,2025-09-10_10h31.18.857,continuous_performance_test,2024.2.4,MacIntel,71.42857143,IwVERDUAMtphJleHRuA2FlbQIxMQABHtdPsGOiVYtxvCt6ixozjUJejztDT0-KHTH_DKTBp-R1L2BmnB_afPtnWVHg_aem_L3DL_TWwowZ4TY-Ur8Db0A,292.9,294.55,space,1,0,29,29,12,1,M,space,0.466,,,,,,,,,,,
,,,,,R_9eQjko0qChFJ2Cg,001,2025-09-10_10h31.18.857,continuous_performance_test,2024.2.4,MacIntel,71.42857143,IwVERDUAMtphJleHRuA2FlbQIxMQABHtdPsGOiVYtxvCt6ixozjUJejztDT0-KHTH_DKTBp-R1L2BmnB_afPtnWVHg_aem_L3DL_TWwowZ4TY-Ur8Db0A,309.558,311.31,,0,0,0,0,6,1,G,space,,,294.553,309.543,,,,,,,,
,,,,,R_9eQjko0qChFJ2Cg,001,2025-09-10_10h31.18.857,continuous_performance_test,2024.2.4,MacIntel,71.42857143,IwVERDUAMtphJleHRuA2FlbQIxMQABHtdPsGOiVYtxvCt6ixozjUJejztDT0-KHTH_DKTBp-R1L2BmnB_afPtnWVHg_aem_L3DL_TWwowZ4TY-Ur8Db0A,311.314,313.261,,0,0,1,1,10,1,K,space,,,,,,,,,,,,
,,,,,R_9eQjko0qChFJ2Cg,001,2025-09-10_10h31.18.857,continuous_performance_test,2024.2.4,MacIntel,71.42857143,IwVERDUAMtphJleHRuA2FlbQIxMQABHtdPsGOiVYtxvCt6ixozjUJejztDT0-KHTH_DKTBp-R1L2BmnB_afPtnWVHg_aem_L3DL_TWwowZ4TY-Ur8Db0A,313.264,314.962,,1,0,2,2,25,1,X,,,,,,,,,,,,,
,,,,,R_9eQjko0qChFJ2Cg,001,2025-09-10_10h31.18.857,continuous_performance_test,2024.2.4,MacIntel,71.42857143,IwVERDUAMtphJleHRuA2FlbQIxMQABHtdPsGOiVYtxvCt6ixozjUJejztDT0-KHTH_DKTBp-R1L2BmnB_afPtnWVHg_aem_L3DL_TWwowZ4TY-Ur8Db0A,314.964,316.663,,0,0,3,3,7,1,H,space,,,,,,,,,,,,
,,,,,R_9eQjko0qChFJ2Cg,001,2025-09-10_10h31.18.857,continuous_performance_test,2024.2.4,MacIntel,71.42857143,IwVERDUAMtphJleHRuA2FlbQIxMQABHtdPsGOiVYtxvCt6ixozjUJejztDT0-KHTH_DKTBp-R1L2BmnB_afPtnWVHg_aem_L3DL_TWwowZ4TY-Ur8Db0A,316.666,318.364,,0,0,4,4,0,1,A,space,,,,,,,,,,,,
,,,,,R_9eQjko0qChFJ2Cg,001,2025-09-10_10h31.18.857,continuous_performance_test,2024.2.4,MacIntel,71.42857143,IwVERDUAMtphJleHRuA2FlbQIxMQABHtdPsGOiVYtxvCt6ixozjUJejztDT0-KHTH_DKTBp-R1L2BmnB_afPtnWVHg_aem_L3DL_TWwowZ4TY-Ur8Db0A,318.366,320.165,,1,0,5,5,29,1,X,,,,,,,,,,,,,
,,,,,R_9eQjko0qChFJ2Cg,001,2025-09-10_10h31.18.857,continuous_performance_test,2024.2.4,MacIntel,71.42857143,IwVERDUAMtphJleHRuA2FlbQIxMQABHtdPsGOiVYtxvCt6ixozjUJejztDT0-KHTH_DKTBp-R1L2BmnB_afPtnWVHg_aem_L3DL_TWwowZ4TY-Ur8Db0A,320.168,321.916,,0,0,6,6,15,1,P,space,,,,,,,,,,,,
,,,,,R_9eQjko0qChFJ2Cg,001,2025-09-10_10h31.18.857,continuous_performance_test,2024.2.4,MacIntel,71.42857143,IwVERDUAMtphJleHRuA2FlbQIxMQABHtdPsGOiVYtxvCt6ixozjUJejztDT0-KHTH_DKTBp-R1L2BmnB_afPtnWVHg_aem_L3DL_TWwowZ4TY-Ur8Db0A,321.918,323.717,,0,0,7,7,1,1,B,space,,,,,,,,,,,,
,,,,,R_9eQjko0qChFJ2Cg,001,2025-09-10_10h31.18.857,continuous_performance_test,2024.2.4,MacIntel,71.42857143,IwVERDUAMtphJleHRuA2FlbQIxMQABHtdPsGOiVYtxvCt6ixozjUJejztDT0-KHTH_DKTBp-R1L2BmnB_afPtnWVHg_aem_L3DL_TWwowZ4TY-Ur8Db0A,323.719,325.369,,1,0,8,8,28,1,X,,,,,,,,,,,,,
,,,,,R_9eQjko0qChFJ2Cg,001,2025-09-10_10h31.18.857,continuous_performance_test,2024.2.4,MacIntel,71.42857143,IwVERDUAMtphJleHRuA2FlbQIxMQABHtdPsGOiVYtxvCt6ixozjUJejztDT0-KHTH_DKTBp-R1L2BmnB_afPtnWVHg_aem_L3DL_TWwowZ4TY-Ur8Db0A,325.371,327.12,,0,0,9,9,16,1,Q,space,,,,,,,,,,,,
,,,,,R_9eQjko0qChFJ2Cg,001,2025-09-10_10h31.18.857,continuous_performance_test,2024.2.4,MacIntel,71.42857143,IwVERDUAMtphJleHRuA2FlbQIxMQABHtdPsGOiVYtxvCt6ixozjUJejztDT0-KHTH_DKTBp-R1L2BmnB_afPtnWVHg_aem_L3DL_TWwowZ4TY-Ur8Db0A,327.122,328.921,,0,0,10,10,19,1,T,space,,,,,,,,,,,,
,,,,,R_9eQjko0qChFJ2Cg,001,2025-09-10_10h31.18.857,continuous_performance_test,2024.2.4,MacIntel,71.42857143,IwVERDUAMtphJleHRuA2FlbQIxMQABHtdPsGOiVYtxvCt6ixozjUJejztDT0-KHTH_DKTBp-R1L2BmnB_afPtnWVHg_aem_L3DL_TWwowZ4TY-Ur8Db0A,328.923,330.772,,0,0,11,11,23,1,Y,space,,,,,,,,,,,,
,,,,,R_9eQjko0qChFJ2Cg,001,2025-09-10_10h31.18.857,continuous_performance_test,2024.2.4,MacIntel,71.42857143,IwVERDUAMtphJleHRuA2FlbQIxMQABHtdPsGOiVYtxvCt6ixozjUJejztDT0-KHTH_DKTBp-R1L2BmnB_afPtnWVHg_aem_L3DL_TWwowZ4TY-Ur8Db0A,330.774,332.473,,0,0,12,12,9,1,J,space,,,,,,,,,,,,
,,,,,R_9eQjko0qChFJ2Cg,001,2025-09-10_10h31.18.857,continuous_performance_test,2024.2.4,MacIntel,71.42857143,IwVERDUAMtphJleHRuA2FlbQIxMQABHtdPsGOiVYtxvCt6ixozjUJejztDT0-KHTH_DKTBp-R1L2BmnB_afPtnWVHg_aem_L3DL_TWwowZ4TY-Ur8Db0A,332.475,334.274,,0,0,13,13,17,1,R,space,,,,,,,,,,,,
,,,,,R_9eQjko0qChFJ2Cg,001,2025-09-10_10h31.18.857,continuous_performance_test,2024.2.4,MacIntel,71.42857143,IwVERDUAMtphJleHRuA2FlbQIxMQABHtdPsGOiVYtxvCt6ixozjUJejztDT0-KHTH_DKTBp-R1L2BmnB_afPtnWVHg_aem_L3DL_TWwowZ4TY-Ur8Db0A,334.275,336.025,,1,0,14,14,27,1,X,,,,,,,,,,,,,
,,,,,R_9eQjko0qChFJ2Cg,001,2025-09-10_10h31.18.857,continuous_performance_test,2024.2.4,MacIntel,71.42857143,IwVERDUAMtphJleHRuA2FlbQIxMQABHtdPsGOiVYtxvCt6ixozjUJejztDT0-KHTH_DKTBp-R1L2BmnB_afPtnWVHg_aem_L3DL_TWwowZ4TY-Ur8Db0A,336.028,337.976,,0,0,15,15,12,1,M,space,,,,,,,,,,,,
,,,,,R_9eQjko0qChFJ2Cg,001,2025-09-10_10h31.18.857,continuous_performance_test,2024.2.4,MacIntel,71.42857143,IwVERDUAMtphJleHRuA2FlbQIxMQABHtdPsGOiVYtxvCt6ixozjUJejztDT0-KHTH_DKTBp-R1L2BmnB_afPtnWVHg_aem_L3DL_TWwowZ4TY-Ur8Db0A,337.979,339.577,,0,0,16,16,24,1,Z,space,,,,,,,,,,,,
,,,,,R_9eQjko0qChFJ2Cg,001,2025-09-10_10h31.18.857,continuous_performance_test,2024.2.4,MacIntel,71.42857143,IwVERDUAMtphJleHRuA2FlbQIxMQABHtdPsGOiVYtxvCt6ixozjUJejztDT0-KHTH_DKTBp-R1L2BmnB_afPtnWVHg_aem_L3DL_TWwowZ4TY-Ur8Db0A,339.58,341.378,,0,0,17,17,13,1,N,space,,,,,,,,,,,,
,,,,,R_9eQjko0qChFJ2Cg,001,2025-09-10_10h31.18.857,continuous_performance_test,2024.2.4,MacIntel,71.42857143,IwVERDUAMtphJleHRuA2FlbQIxMQABHtdPsGOiVYtxvCt6ixozjUJejztDT0-KHTH_DKTBp-R1L2BmnB_afPtnWVHg_aem_L3DL_TWwowZ4TY-Ur8Db0A,341.38,342.979,,0,0,18,18,11,1,L,space,,,,,,,,,,,,
,,,,,R_9eQjko0qChFJ2Cg,001,2025-09-10_10h31.18.857,continuous_performance_test,2024.2.4,MacIntel,71.42857143,IwVERDUAMtphJleHRuA2FlbQIxMQABHtdPsGOiVYtxvCt6ixozjUJejztDT0-KHTH_DKTBp-R1L2BmnB_afPtnWVHg_aem_L3DL_TWwowZ4TY-Ur8Db0A,342.981,344.68,,0,0,19,19,8,1,I,space,,,,,,,,,,,,
,,,,,R_9eQjko0qChFJ2Cg,001,2025-09-10_10h31.18.857,continuous_performance_test,2024.2.4,MacIntel,71.42857143,IwVERDUAMtphJleHRuA2FlbQIxMQABHtdPsGOiVYtxvCt6ixozjUJejztDT0-KHTH_DKTBp-R1L2BmnB_afPtnWVHg_aem_L3DL_TWwowZ4TY-Ur8Db0A,344.682,346.531,,1,0,20,20,26,1,X,,,,,,,,,,,,,
,,,,,R_9eQjko0qChFJ2Cg,001,2025-09-10_10h31.18.857,continuous_performance_test,2024.2.4,MacIntel,71.42857143,IwVERDUAMtphJleHRuA2FlbQIxMQABHtdPsGOiVYtxvCt6ixozjUJejztDT0-KHTH_DKTBp-R1L2BmnB_afPtnWVHg_aem_L3DL_TWwowZ4TY-Ur8Db0A,346.533,348.432,,0,0,21,21,21,1,V,space,,,,,,,,,,,,
,,,,,R_9eQjko0qChFJ2Cg,001,2025-09-10_10h31.18.857,continuous_performance_test,2024.2.4,MacIntel,71.42857143,IwVERDUAMtphJleHRuA2FlbQIxMQABHtdPsGOiVYtxvCt6ixozjUJejztDT0-KHTH_DKTBp-R1L2BmnB_afPtnWVHg_aem_L3DL_TWwowZ4TY-Ur8Db0A,348.434,350.383,,0,0,22,22,20,1,U,space,,,,,,,,,,,,
,,,,,R_9eQjko0qChFJ2Cg,001,2025-09-10_10h31.18.857,continuous_performance_test,2024.2.4,MacIntel,71.42857143,IwVERDUAMtphJleHRuA2FlbQIxMQABHtdPsGOiVYtxvCt6ixozjUJejztDT0-KHTH_DKTBp-R1L2BmnB_afPtnWVHg_aem_L3DL_TWwowZ4TY-Ur8Db0A,350.385,352.285,,0,0,23,23,18,1,S,space,,,,,,,,,,,,
,,,,,R_9eQjko0qChFJ2Cg,001,2025-09-10_10h31.18.857,continuous_performance_test,2024.2.4,MacIntel,71.42857143,IwVERDUAMtphJleHRuA2FlbQIxMQABHtdPsGOiVYtxvCt6ixozjUJejztDT0-KHTH_DKTBp-R1L2BmnB_afPtnWVHg_aem_L3DL_TWwowZ4TY-Ur8Db0A,352.287,354.086,,0,0,24,24,3,1,D,space,,,,,,,,,,,,
,,,,,R_9eQjko0qChFJ2Cg,001,2025-09-10_10h31.18.857,continuous_performance_test,2024.2.4,MacIntel,71.42857143,IwVERDUAMtphJleHRuA2FlbQIxMQABHtdPsGOiVYtxvCt6ixozjUJejztDT0-KHTH_DKTBp-R1L2BmnB_afPtnWVHg_aem_L3DL_TWwowZ4TY-Ur8Db0A,354.087,355.937,,0,0,25,25,5,1,F,space,,,,,,,,,,,,
,,,,,R_9eQjko0qChFJ2Cg,001,2025-09-10_10h31.18.857,continuous_performance_test,2024.2.4,MacIntel,71.42857143,IwVERDUAMtphJleHRuA2FlbQIxMQABHtdPsGOiVYtxvCt6ixozjUJejztDT0-KHTH_DKTBp-R1L2BmnB_afPtnWVHg_aem_L3DL_TWwowZ4TY-Ur8Db0A,355.939,357.688,,0,0,26,26,14,1,O,space,,,,,,,,,,,,
,,,,,R_9eQjko0qChFJ2Cg,001,2025-09-10_10h31.18.857,continuous_performance_test,2024.2.4,MacIntel,71.42857143,IwVERDUAMtphJleHRuA2FlbQIxMQABHtdPsGOiVYtxvCt6ixozjUJejztDT0-KHTH_DKTBp-R1L2BmnB_afPtnWVHg_aem_L3DL_TWwowZ4TY-Ur8Db0A,357.691,359.389,,0,0,27,27,2,1,C,space,,,,,,,,,,,,
,,,,,R_9eQjko0qChFJ2Cg,001,2025-09-10_10h31.18.857,continuous_performance_test,2024.2.4,MacIntel,71.42857143,IwVERDUAMtphJleHRuA2FlbQIxMQABHtdPsGOiVYtxvCt6ixozjUJejztDT0-KHTH_DKTBp-R1L2BmnB_afPtnWVHg_aem_L3DL_TWwowZ4TY-Ur8Db0A,359.391,361.24,,0,0,28,28,22,1,W,space,,,,,,,,,,,,
,,,,,R_9eQjko0qChFJ2Cg,001,2025-09-10_10h31.18.857,continuous_performance_test,2024.2.4,MacIntel,71.42857143,IwVERDUAMtphJleHRuA2FlbQIxMQABHtdPsGOiVYtxvCt6ixozjUJejztDT0-KHTH_DKTBp-R1L2BmnB_afPtnWVHg_aem_L3DL_TWwowZ4TY-Ur8Db0A,361.247,362.841,,0,0,29,29,4,1,E,space,,,,,,,,,,,,
,,,,,R_9eQjko0qChFJ2Cg,001,2025-09-10_10h31.18.857,continuous_performance_test,2024.2.4,MacIntel,71.42857143,IwVERDUAMtphJleHRuA2FlbQIxMQABHtdPsGOiVYtxvCt6ixozjUJejztDT0-KHTH_DKTBp-R1L2BmnB_afPtnWVHg_aem_L3DL_TWwowZ4TY-Ur8Db0A,369.716,371.563,space,1,0,0,0,2,1,C,space,0.341,,362.844,369.711,space,6.845,,,,,,
,,,,,R_9eQjko0qChFJ2Cg,001,2025-09-10_10h31.18.857,continuous_performance_test,2024.2.4,MacIntel,71.42857143,IwVERDUAMtphJleHRuA2FlbQIxMQABHtdPsGOiVYtxvCt6ixozjUJejztDT0-KHTH_DKTBp-R1L2BmnB_afPtnWVHg_aem_L3DL_TWwowZ4TY-Ur8Db0A,371.566,373.465,space,0,0,1,1,28,1,X,,0.336,,,,,,,,,,,
,,,,,R_9eQjko0qChFJ2Cg,001,2025-09-10_10h31.18.857,continuous_performance_test,2024.2.4,MacIntel,71.42857143,IwVERDUAMtphJleHRuA2FlbQIxMQABHtdPsGOiVYtxvCt6ixozjUJejztDT0-KHTH_DKTBp-R1L2BmnB_afPtnWVHg_aem_L3DL_TWwowZ4TY-Ur8Db0A,373.467,375.415,space,1,0,2,2,3,1,D,space,0.364,,,,,,,,,,,
,,,,,R_9eQjko0qChFJ2Cg,001,2025-09-10_10h31.18.857,continuous_performance_test,2024.2.4,MacIntel,71.42857143,IwVERDUAMtphJleHRuA2FlbQIxMQABHtdPsGOiVYtxvCt6ixozjUJejztDT0-KHTH_DKTBp-R1L2BmnB_afPtnWVHg_aem_L3DL_TWwowZ4TY-Ur8Db0A,375.417,377.066,space,1,0,3,3,14,1,O,space,0.389,,,,,,,,,,,
,,,,,R_9eQjko0qChFJ2Cg,001,2025-09-10_10h31.18.857,continuous_performance_test,2024.2.4,MacIntel,71.42857143,IwVERDUAMtphJleHRuA2FlbQIxMQABHtdPsGOiVYtxvCt6ixozjUJejztDT0-KHTH_DKTBp-R1L2BmnB_afPtnWVHg_aem_L3DL_TWwowZ4TY-Ur8Db0A,377.068,378.617,space,1,0,4,4,7,1,H,space,0.415,,,,,,,,,,,
,,,,,R_9eQjko0qChFJ2Cg,001,2025-09-10_10h31.18.857,continuous_performance_test,2024.2.4,MacIntel,71.42857143,IwVERDUAMtphJleHRuA2FlbQIxMQABHtdPsGOiVYtxvCt6ixozjUJejztDT0-KHTH_DKTBp-R1L2BmnB_afPtnWVHg_aem_L3DL_TWwowZ4TY-Ur8Db0A,378.619,380.168,,1,0,5,5,26,1,X,,,,,,,,,,,,,
,,,,,R_9eQjko0qChFJ2Cg,001,2025-09-10_10h31.18.857,continuous_performance_test,2024.2.4,MacIntel,71.42857143,IwVERDUAMtphJleHRuA2FlbQIxMQABHtdPsGOiVYtxvCt6ixozjUJejztDT0-KHTH_DKTBp-R1L2BmnB_afPtnWVHg_aem_L3DL_TWwowZ4TY-Ur8Db0A,380.17,381.769,space,1,0,6,6,10,1,K,space,0.288,,,,,,,,,,,
,,,,,R_9eQjko0qChFJ2Cg,001,2025-09-10_10h31.18.857,continuous_performance_test,2024.2.4,MacIntel,71.42857143,IwVERDUAMtphJleHRuA2FlbQIxMQABHtdPsGOiVYtxvCt6ixozjUJejztDT0-KHTH_DKTBp-R1L2BmnB_afPtnWVHg_aem_L3DL_TWwowZ4TY-Ur8Db0A,381.772,383.32,space,1,0,7,7,9,1,J,space,0.447,,,,,,,,,,,
,,,,,R_9eQjko0qChFJ2Cg,001,2025-09-10_10h31.18.857,continuous_performance_test,2024.2.4,MacIntel,71.42857143,IwVERDUAMtphJleHRuA2FlbQIxMQABHtdPsGOiVYtxvCt6ixozjUJejztDT0-KHTH_DKTBp-R1L2BmnB_afPtnWVHg_aem_L3DL_TWwowZ4TY-Ur8Db0A,383.323,385.121,space,1,0,8,8,4,1,E,space,0.339,,,,,,,,,,,
,,,,,R_9eQjko0qChFJ2Cg,001,2025-09-10_10h31.18.857,continuous_performance_test,2024.2.4,MacIntel,71.42857143,IwVERDUAMtphJleHRuA2FlbQIxMQABHtdPsGOiVYtxvCt6ixozjUJejztDT0-KHTH_DKTBp-R1L2BmnB_afPtnWVHg_aem_L3DL_TWwowZ4TY-Ur8Db0A,385.123,386.822,space,1,0,9,9,23,1,Y,space,0.383,,,,,,,,,,,
,,,,,R_9eQjko0qChFJ2Cg,001,2025-09-10_10h31.18.857,continuous_performance_test,2024.2.4,MacIntel,71.42857143,IwVERDUAMtphJleHRuA2FlbQIxMQABHtdPsGOiVYtxvCt6ixozjUJejztDT0-KHTH_DKTBp-R1L2BmnB_afPtnWVHg_aem_L3DL_TWwowZ4TY-Ur8Db0A,386.824,388.773,space,1,0,10,10,22,1,W,space,0.381,,,,,,,,,,,
,,,,,R_9eQjko0qChFJ2Cg,001,2025-09-10_10h31.18.857,continuous_performance_test,2024.2.4,MacIntel,71.42857143,IwVERDUAMtphJleHRuA2FlbQIxMQABHtdPsGOiVYtxvCt6ixozjUJejztDT0-KHTH_DKTBp-R1L2BmnB_afPtnWVHg_aem_L3DL_TWwowZ4TY-Ur8Db0A,388.775,390.574,space,1,0,11,11,1,1,B,space,0.363,,,,,,,,,,,
,,,,,R_9eQjko0qChFJ2Cg,001,2025-09-10_10h31.18.857,continuous_performance_test,2024.2.4,MacIntel,71.42857143,IwVERDUAMtphJleHRuA2FlbQIxMQABHtdPsGOiVYtxvCt6ixozjUJejztDT0-KHTH_DKTBp-R1L2BmnB_afPtnWVHg_aem_L3DL_TWwowZ4TY-Ur8Db0A,390.576,392.125,space,1,0,12,12,6,1,G,space,0.346,,,,,,,,,,,
,,,,,R_9eQjko0qChFJ2Cg,001,2025-09-10_10h31.18.857,continuous_performance_test,2024.2.4,MacIntel,71.42857143,IwVERDUAMtphJleHRuA2FlbQIxMQABHtdPsGOiVYtxvCt6ixozjUJejztDT0-KHTH_DKTBp-R1L2BmnB_afPtnWVHg_aem_L3DL_TWwowZ4TY-Ur8Db0A,392.127,394.127,space,1,0,13,13,20,1,U,space,0.305,,,,,,,,,,,
,,,,,R_9eQjko0qChFJ2Cg,001,2025-09-10_10h31.18.857,continuous_performance_test,2024.2.4,MacIntel,71.42857143,IwVERDUAMtphJleHRuA2FlbQIxMQABHtdPsGOiVYtxvCt6ixozjUJejztDT0-KHTH_DKTBp-R1L2BmnB_afPtnWVHg_aem_L3DL_TWwowZ4TY-Ur8Db0A,394.129,396.078,space,1,0,14,14,19,1,T,space,0.372,,,,,,,,,,,
,,,,,R_9eQjko0qChFJ2Cg,001,2025-09-10_10h31.18.857,continuous_performance_test,2024.2.4,MacIntel,71.42857143,IwVERDUAMtphJleHRuA2FlbQIxMQABHtdPsGOiVYtxvCt6ixozjUJejztDT0-KHTH_DKTBp-R1L2BmnB_afPtnWVHg_aem_L3DL_TWwowZ4TY-Ur8Db0A,396.081,397.929,space,1,0,15,15,16,1,Q,space,0.357,,,,,,,,,,,
,,,,,R_9eQjko0qChFJ2Cg,001,2025-09-10_10h31.18.857,continuous_performance_test,2024.2.4,MacIntel,71.42857143,IwVERDUAMtphJleHRuA2FlbQIxMQABHtdPsGOiVYtxvCt6ixozjUJejztDT0-KHTH_DKTBp-R1L2BmnB_afPtnWVHg_aem_L3DL_TWwowZ4TY-Ur8Db0A,397.931,399.88,space,1,0,16,16,5,1,F,space,0.336,,,,,,,,,,,
,,,,,R_9eQjko0qChFJ2Cg,001,2025-09-10_10h31.18.857,continuous_performance_test,2024.2.4,MacIntel,71.42857143,IwVERDUAMtphJleHRuA2FlbQIxMQABHtdPsGOiVYtxvCt6ixozjUJejztDT0-KHTH_DKTBp-R1L2BmnB_afPtnWVHg_aem_L3DL_TWwowZ4TY-Ur8Db0A,399.882,401.831,,1,0,17,17,27,1,X,,,,,,,,,,,,,
,,,,,R_9eQjko0qChFJ2Cg,001,2025-09-10_10h31.18.857,continuous_performance_test,2024.2.4,MacIntel,71.42857143,IwVERDUAMtphJleHRuA2FlbQIxMQABHtdPsGOiVYtxvCt6ixozjUJejztDT0-KHTH_DKTBp-R1L2BmnB_afPtnWVHg_aem_L3DL_TWwowZ4TY-Ur8Db0A,401.833,403.432,space,1,0,18,18,0,1,A,space,0.502,,,,,,,,,,,
,,,,,R_9eQjko0qChFJ2Cg,001,2025-09-10_10h31.18.857,continuous_performance_test,2024.2.4,MacIntel,71.42857143,IwVERDUAMtphJleHRuA2FlbQIxMQABHtdPsGOiVYtxvCt6ixozjUJejztDT0-KHTH_DKTBp-R1L2BmnB_afPtnWVHg_aem_L3DL_TWwowZ4TY-Ur8Db0A,403.434,405.034,space,1,0,19,19,18,1,S,space,0.664,,,,,,,,,,,
,,,,,R_9eQjko0qChFJ2Cg,001,2025-09-10_10h31.18.857,continuous_performance_test,2024.2.4,MacIntel,71.42857143,IwVERDUAMtphJleHRuA2FlbQIxMQABHtdPsGOiVYtxvCt6ixozjUJejztDT0-KHTH_DKTBp-R1L2BmnB_afPtnWVHg_aem_L3DL_TWwowZ4TY-Ur8Db0A,405.036,406.834,space,1,0,20,20,24,1,Z,space,0.522,,,,,,,,,,,
,,,,,R_9eQjko0qChFJ2Cg,001,2025-09-10_10h31.18.857,continuous_performance_test,2024.2.4,MacIntel,71.42857143,IwVERDUAMtphJleHRuA2FlbQIxMQABHtdPsGOiVYtxvCt6ixozjUJejztDT0-KHTH_DKTBp-R1L2BmnB_afPtnWVHg_aem_L3DL_TWwowZ4TY-Ur8Db0A,406.836,408.386,space,1,0,21,21,13,1,N,space,0.53,,,,,,,,,,,
,,,,,R_9eQjko0qChFJ2Cg,001,2025-09-10_10h31.18.857,continuous_performance_test,2024.2.4,MacIntel,71.42857143,IwVERDUAMtphJleHRuA2FlbQIxMQABHtdPsGOiVYtxvCt6ixozjUJejztDT0-KHTH_DKTBp-R1L2BmnB_afPtnWVHg_aem_L3DL_TWwowZ4TY-Ur8Db0A,408.388,409.937,space,0,0,22,22,25,1,X,,0.335,,,,,,,,,,,
,,,,,R_9eQjko0qChFJ2Cg,001,2025-09-10_10h31.18.857,continuous_performance_test,2024.2.4,MacIntel,71.42857143,IwVERDUAMtphJleHRuA2FlbQIxMQABHtdPsGOiVYtxvCt6ixozjUJejztDT0-KHTH_DKTBp-R1L2BmnB_afPtnWVHg_aem_L3DL_TWwowZ4TY-Ur8Db0A,409.939,411.687,space,1,0,23,23,11,1,L,space,0.313,,,,,,,,,,,
,,,,,R_9eQjko0qChFJ2Cg,001,2025-09-10_10h31.18.857,continuous_performance_test,2024.2.4,MacIntel,71.42857143,IwVERDUAMtphJleHRuA2FlbQIxMQABHtdPsGOiVYtxvCt6ixozjUJejztDT0-KHTH_DKTBp-R1L2BmnB_afPtnWVHg_aem_L3DL_TWwowZ4TY-Ur8Db0A,411.69,413.439,space,1,0,24,24,17,1,R,space,0.38,,,,,,,,,,,
,,,,,R_9eQjko0qChFJ2Cg,001,2025-09-10_10h31.18.857,continuous_performance_test,2024.2.4,MacIntel,71.42857143,IwVERDUAMtphJleHRuA2FlbQIxMQABHtdPsGOiVYtxvCt6ixozjUJejztDT0-KHTH_DKTBp-R1L2BmnB_afPtnWVHg_aem_L3DL_TWwowZ4TY-Ur8Db0A,413.44,415.39,space,1,0,25,25,12,1,M,space,0.387,,,,,,,,,,,
,,,,,R_9eQjko0qChFJ2Cg,001,2025-09-10_10h31.18.857,continuous_performance_test,2024.2.4,MacIntel,71.42857143,IwVERDUAMtphJleHRuA2FlbQIxMQABHtdPsGOiVYtxvCt6ixozjUJejztDT0-KHTH_DKTBp-R1L2BmnB_afPtnWVHg_aem_L3DL_TWwowZ4TY-Ur8Db0A,415.392,417.191,space,1,0,26,26,8,1,I,space,0.38,,,,,,,,,,,
,,,,,R_9eQjko0qChFJ2Cg,001,2025-09-10_10h31.18.857,continuous_performance_test,2024.2.4,MacIntel,71.42857143,IwVERDUAMtphJleHRuA2FlbQIxMQABHtdPsGOiVYtxvCt6ixozjUJejztDT0-KHTH_DKTBp-R1L2BmnB_afPtnWVHg_aem_L3DL_TWwowZ4TY-Ur8Db0A,417.193,419.142,space,1,0,27,27,15,1,P,space,0.438,,,,,,,,,,,
,,,,,R_9eQjko0qChFJ2Cg,001,2025-09-10_10h31.18.857,continuous_performance_test,2024.2.4,MacIntel,71.42857143,IwVERDUAMtphJleHRuA2FlbQIxMQABHtdPsGOiVYtxvCt6ixozjUJejztDT0-KHTH_DKTBp-R1L2BmnB_afPtnWVHg_aem_L3DL_TWwowZ4TY-Ur8Db0A,419.144,420.743,,1,0,28,28,29,1,X,,,,,,,,,,,,,
,,,,,R_9eQjko0qChFJ2Cg,001,2025-09-10_10h31.18.857,continuous_performance_test,2024.2.4,MacIntel,71.42857143,IwVERDUAMtphJleHRuA2FlbQIxMQABHtdPsGOiVYtxvCt6ixozjUJejztDT0-KHTH_DKTBp-R1L2BmnB_afPtnWVHg_aem_L3DL_TWwowZ4TY-Ur8Db0A,420.745,422.494,space,1,0,29,29,21,1,V,space,0.37,,,,,,,,,,,
,,,,,R_9eQjko0qChFJ2Cg,001,2025-09-10_10h31.18.857,continuous_performance_test,2024.2.4,MacIntel,71.42857143,IwVERDUAMtphJleHRuA2FlbQIxMQABHtdPsGOiVYtxvCt6ixozjUJejztDT0-KHTH_DKTBp-R1L2BmnB_afPtnWVHg_aem_L3DL_TWwowZ4TY-Ur8Db0A,424.52,426.263,space,1,0,0,0,21,1,V,space,0.595,,422.497,424.515,space,2.001,,,,,,
,,,,,R_9eQjko0qChFJ2Cg,001,2025-09-10_10h31.18.857,continuous_performance_test,2024.2.4,MacIntel,71.42857143,IwVERDUAMtphJleHRuA2FlbQIxMQABHtdPsGOiVYtxvCt6ixozjUJejztDT0-KHTH_DKTBp-R1L2BmnB_afPtnWVHg_aem_L3DL_TWwowZ4TY-Ur8Db0A,426.266,427.964,,1,0,1,1,25,1,X,,,,,,,,,,,,,
,,,,,R_9eQjko0qChFJ2Cg,001,2025-09-10_10h31.18.857,continuous_performance_test,2024.2.4,MacIntel,71.42857143,IwVERDUAMtphJleHRuA2FlbQIxMQABHtdPsGOiVYtxvCt6ixozjUJejztDT0-KHTH_DKTBp-R1L2BmnB_afPtnWVHg_aem_L3DL_TWwowZ4TY-Ur8Db0A,427.967,429.515,space,1,0,2,2,22,1,W,space,0.384,,,,,,,,,,,
,,,,,R_9eQjko0qChFJ2Cg,001,2025-09-10_10h31.18.857,continuous_performance_test,2024.2.4,MacIntel,71.42857143,IwVERDUAMtphJleHRuA2FlbQIxMQABHtdPsGOiVYtxvCt6ixozjUJejztDT0-KHTH_DKTBp-R1L2BmnB_afPtnWVHg_aem_L3DL_TWwowZ4TY-Ur8Db0A,429.517,431.216,space,1,0,3,3,0,1,A,space,0.487,,,,,,,,,,,
,,,,,R_9eQjko0qChFJ2Cg,001,2025-09-10_10h31.18.857,continuous_performance_test,2024.2.4,MacIntel,71.42857143,IwVERDUAMtphJleHRuA2FlbQIxMQABHtdPsGOiVYtxvCt6ixozjUJejztDT0-KHTH_DKTBp-R1L2BmnB_afPtnWVHg_aem_L3DL_TWwowZ4TY-Ur8Db0A,431.217,432.817,space,1,0,4,4,24,1,Z,space,0.523,,,,,,,,,,,
,,,,,R_9eQjko0qChFJ2Cg,001,2025-09-10_10h31.18.857,continuous_performance_test,2024.2.4,MacIntel,71.42857143,IwVERDUAMtphJleHRuA2FlbQIxMQABHtdPsGOiVYtxvCt6ixozjUJejztDT0-KHTH_DKTBp-R1L2BmnB_afPtnWVHg_aem_L3DL_TWwowZ4TY-Ur8Db0A,432.819,434.518,space,1,0,5,5,16,1,Q,space,0.439,,,,,,,,,,,
,,,,,R_9eQjko0qChFJ2Cg,001,2025-09-10_10h31.18.857,continuous_performance_test,2024.2.4,MacIntel,71.42857143,IwVERDUAMtphJleHRuA2FlbQIxMQABHtdPsGOiVYtxvCt6ixozjUJejztDT0-KHTH_DKTBp-R1L2BmnB_afPtnWVHg_aem_L3DL_TWwowZ4TY-Ur8Db0A,434.52,436.519,space,1,0,6,6,6,1,G,space,0.399,,,,,,,,,,,
,,,,,R_9eQjko0qChFJ2Cg,001,2025-09-10_10h31.18.857,continuous_performance_test,2024.2.4,MacIntel,71.42857143,IwVERDUAMtphJleHRuA2FlbQIxMQABHtdPsGOiVYtxvCt6ixozjUJejztDT0-KHTH_DKTBp-R1L2BmnB_afPtnWVHg_aem_L3DL_TWwowZ4TY-Ur8Db0A,436.521,438.42,space,1,0,7,7,19,1,T,space,0.351,,,,,,,,,,,
,,,,,R_9eQjko0qChFJ2Cg,001,2025-09-10_10h31.18.857,continuous_performance_test,2024.2.4,MacIntel,71.42857143,IwVERDUAMtphJleHRuA2FlbQIxMQABHtdPsGOiVYtxvCt6ixozjUJejztDT0-KHTH_DKTBp-R1L2BmnB_afPtnWVHg_aem_L3DL_TWwowZ4TY-Ur8Db0A,438.423,440.371,space,1,0,8,8,4,1,E,space,0.361,,,,,,,,,,,
,,,,,R_9eQjko0qChFJ2Cg,001,2025-09-10_10h31.18.857,continuous_performance_test,2024.2.4,MacIntel,71.42857143,IwVERDUAMtphJleHRuA2FlbQIxMQABHtdPsGOiVYtxvCt6ixozjUJejztDT0-KHTH_DKTBp-R1L2BmnB_afPtnWVHg_aem_L3DL_TWwowZ4TY-Ur8Db0A,440.373,442.023,,1,0,9,9,26,1,X,,,,,,,,,,,,,
,,,,,R_9eQjko0qChFJ2Cg,001,2025-09-10_10h31.18.857,continuous_performance_test,2024.2.4,MacIntel,71.42857143,IwVERDUAMtphJleHRuA2FlbQIxMQABHtdPsGOiVYtxvCt6ixozjUJejztDT0-KHTH_DKTBp-R1L2BmnB_afPtnWVHg_aem_L3DL_TWwowZ4TY-Ur8Db0A,442.025,443.574,space,1,0,10,10,23,1,Y,space,0.448,,,,,,,,,,,
,,,,,R_9eQjko0qChFJ2Cg,001,2025-09-10_10h31.18.857,continuous_performance_test,2024.2.4,MacIntel,71.42857143,IwVERDUAMtphJleHRuA2FlbQIxMQABHtdPsGOiVYtxvCt6ixozjUJejztDT0-KHTH_DKTBp-R1L2BmnB_afPtnWVHg_aem_L3DL_TWwowZ4TY-Ur8Db0A,443.576,445.224,space,1,0,11,11,14,1,O,space,0.28,,,,,,,,,,,
,,,,,R_9eQjko0qChFJ2Cg,001,2025-09-10_10h31.18.857,continuous_performance_test,2024.2.4,MacIntel,71.42857143,IwVERDUAMtphJleHRuA2FlbQIxMQABHtdPsGOiVYtxvCt6ixozjUJejztDT0-KHTH_DKTBp-R1L2BmnB_afPtnWVHg_aem_L3DL_TWwowZ4TY-Ur8Db0A,445.226,446.976,space,0,0,12,12,28,1,X,,0.316,,,,,,,,,,,
,,,,,R_9eQjko0qChFJ2Cg,001,2025-09-10_10h31.18.857,continuous_performance_test,2024.2.4,MacIntel,71.42857143,IwVERDUAMtphJleHRuA2FlbQIxMQABHtdPsGOiVYtxvCt6ixozjUJejztDT0-KHTH_DKTBp-R1L2BmnB_afPtnWVHg_aem_L3DL_TWwowZ4TY-Ur8Db0A,446.978,448.927,space,1,0,13,13,2,1,C,space,0.416,,,,,,,,,,,
,,,,,R_9eQjko0qChFJ2Cg,001,2025-09-10_10h31.18.857,continuous_performance_test,2024.2.4,MacIntel,71.42857143,IwVERDUAMtphJleHRuA2FlbQIxMQABHtdPsGOiVYtxvCt6ixozjUJejztDT0-KHTH_DKTBp-R1L2BmnB_afPtnWVHg_aem_L3DL_TWwowZ4TY-Ur8Db0A,448.929,450.828,,1,0,14,14,29,1,X,,,,,,,,,,,,,
,,,,,R_9eQjko0qChFJ2Cg,001,2025-09-10_10h31.18.857,continuous_performance_test,2024.2.4,MacIntel,71.42857143,IwVERDUAMtphJleHRuA2FlbQIxMQABHtdPsGOiVYtxvCt6ixozjUJejztDT0-KHTH_DKTBp-R1L2BmnB_afPtnWVHg_aem_L3DL_TWwowZ4TY-Ur8Db0A,450.83,452.429,space,1,0,15,15,18,1,S,space,0.388,,,,,,,,,,,
,,,,,R_9eQjko0qChFJ2Cg,001,2025-09-10_10h31.18.857,continuous_performance_test,2024.2.4,MacIntel,71.42857143,IwVERDUAMtphJleHRuA2FlbQIxMQABHtdPsGOiVYtxvCt6ixozjUJejztDT0-KHTH_DKTBp-R1L2BmnB_afPtnWVHg_aem_L3DL_TWwowZ4TY-Ur8Db0A,452.431,454.03,space,1,0,16,16,7,1,H,space,0.372,,,,,,,,,,,
,,,,,R_9eQjko0qChFJ2Cg,001,2025-09-10_10h31.18.857,continuous_performance_test,2024.2.4,MacIntel,71.42857143,IwVERDUAMtphJleHRuA2FlbQIxMQABHtdPsGOiVYtxvCt6ixozjUJejztDT0-KHTH_DKTBp-R1L2BmnB_afPtnWVHg_aem_L3DL_TWwowZ4TY-Ur8Db0A,454.032,455.931,space,1,0,17,17,20,1,U,space,0.271,,,,,,,,,,,
,,,,,R_9eQjko0qChFJ2Cg,001,2025-09-10_10h31.18.857,continuous_performance_test,2024.2.4,MacIntel,71.42857143,IwVERDUAMtphJleHRuA2FlbQIxMQABHtdPsGOiVYtxvCt6ixozjUJejztDT0-KHTH_DKTBp-R1L2BmnB_afPtnWVHg_aem_L3DL_TWwowZ4TY-Ur8Db0A,455.934,457.782,space,1,0,18,18,1,1,B,space,0.306,,,,,,,,,,,
,,,,,R_9eQjko0qChFJ2Cg,001,2025-09-10_10h31.18.857,continuous_performance_test,2024.2.4,MacIntel,71.42857143,IwVERDUAMtphJleHRuA2FlbQIxMQABHtdPsGOiVYtxvCt6ixozjUJejztDT0-KHTH_DKTBp-R1L2BmnB_afPtnWVHg_aem_L3DL_TWwowZ4TY-Ur8Db0A,457.784,459.583,space,1,0,19,19,3,1,D,space,0.379,,,,,,,,,,,
,,,,,R_9eQjko0qChFJ2Cg,001,2025-09-10_10h31.18.857,continuous_performance_test,2024.2.4,MacIntel,71.42857143,IwVERDUAMtphJleHRuA2FlbQIxMQABHtdPsGOiVYtxvCt6ixozjUJejztDT0-KHTH_DKTBp-R1L2BmnB_afPtnWVHg_aem_L3DL_TWwowZ4TY-Ur8Db0A,459.586,461.284,space,1,0,20,20,5,1,F,space,0.349,,,,,,,,,,,
,,,,,R_9eQjko0qChFJ2Cg,001,2025-09-10_10h31.18.857,continuous_performance_test,2024.2.4,MacIntel,71.42857143,IwVERDUAMtphJleHRuA2FlbQIxMQABHtdPsGOiVYtxvCt6ixozjUJejztDT0-KHTH_DKTBp-R1L2BmnB_afPtnWVHg_aem_L3DL_TWwowZ4TY-Ur8Db0A,461.286,463.285,space,1,0,21,21,11,1,L,space,0.384,,,,,,,,,,,
,,,,,R_9eQjko0qChFJ2Cg,001,2025-09-10_10h31.18.857,continuous_performance_test,2024.2.4,MacIntel,71.42857143,IwVERDUAMtphJleHRuA2FlbQIxMQABHtdPsGOiVYtxvCt6ixozjUJejztDT0-KHTH_DKTBp-R1L2BmnB_afPtnWVHg_aem_L3DL_TWwowZ4TY-Ur8Db0A,463.287,465.087,,1,0,22,22,27,1,X,,,,,,,,,,,,,
,,,,,R_9eQjko0qChFJ2Cg,001,2025-09-10_10h31.18.857,continuous_performance_test,2024.2.4,MacIntel,71.42857143,IwVERDUAMtphJleHRuA2FlbQIxMQABHtdPsGOiVYtxvCt6ixozjUJejztDT0-KHTH_DKTBp-R1L2BmnB_afPtnWVHg_aem_L3DL_TWwowZ4TY-Ur8Db0A,465.089,466.638,space,1,0,23,23,10,1,K,space,0.406,,,,,,,,,,,
,,,,,R_9eQjko0qChFJ2Cg,001,2025-09-10_10h31.18.857,continuous_performance_test,2024.2.4,MacIntel,71.42857143,IwVERDUAMtphJleHRuA2FlbQIxMQABHtdPsGOiVYtxvCt6ixozjUJejztDT0-KHTH_DKTBp-R1L2BmnB_afPtnWVHg_aem_L3DL_TWwowZ4TY-Ur8Db0A,466.64,468.288,space,1,0,24,24,12,1,M,space,0.449,,,,,,,,,,,
,,,,,R_9eQjko0qChFJ2Cg,001,2025-09-10_10h31.18.857,continuous_performance_test,2024.2.4,MacIntel,71.42857143,IwVERDUAMtphJleHRuA2FlbQIxMQABHtdPsGOiVYtxvCt6ixozjUJejztDT0-KHTH_DKTBp-R1L2BmnB_afPtnWVHg_aem_L3DL_TWwowZ4TY-Ur8Db0A,468.291,469.989,space,1,0,25,25,9,1,J,space,0.407,,,,,,,,,,,
,,,,,R_9eQjko0qChFJ2Cg,001,2025-09-10_10h31.18.857,continuous_performance_test,2024.2.4,MacIntel,71.42857143,IwVERDUAMtphJleHRuA2FlbQIxMQABHtdPsGOiVYtxvCt6ixozjUJejztDT0-KHTH_DKTBp-R1L2BmnB_afPtnWVHg_aem_L3DL_TWwowZ4TY-Ur8Db0A,469.991,471.891,space,1,0,26,26,17,1,R,space,0.371,,,,,,,,,,,
,,,,,R_9eQjko0qChFJ2Cg,001,2025-09-10_10h31.18.857,continuous_performance_test,2024.2.4,MacIntel,71.42857143,IwVERDUAMtphJleHRuA2FlbQIxMQABHtdPsGOiVYtxvCt6ixozjUJejztDT0-KHTH_DKTBp-R1L2BmnB_afPtnWVHg_aem_L3DL_TWwowZ4TY-Ur8Db0A,471.893,473.642,space,1,0,27,27,15,1,P,space,0.355,,,,,,,,,,,
,,,,,R_9eQjko0qChFJ2Cg,001,2025-09-10_10h31.18.857,continuous_performance_test,2024.2.4,MacIntel,71.42857143,IwVERDUAMtphJleHRuA2FlbQIxMQABHtdPsGOiVYtxvCt6ixozjUJejztDT0-KHTH_DKTBp-R1L2BmnB_afPtnWVHg_aem_L3DL_TWwowZ4TY-Ur8Db0A,473.643,475.243,space,1,0,28,28,8,1,I,space,0.363,,,,,,,,,,,
,,,,,R_9eQjko0qChFJ2Cg,001,2025-09-10_10h31.18.857,continuous_performance_test,2024.2.4,MacIntel,71.42857143,IwVERDUAMtphJleHRuA2FlbQIxMQABHtdPsGOiVYtxvCt6ixozjUJejztDT0-KHTH_DKTBp-R1L2BmnB_afPtnWVHg_aem_L3DL_TWwowZ4TY-Ur8Db0A,475.245,477.194,space,1,0,29,29,13,1,N,space,0.454,,,,,,,,,,,
,,,,,R_9eQjko0qChFJ2Cg,001,2025-09-10_10h31.18.857,continuous_performance_test,2024.2.4,MacIntel,71.42857143,IwVERDUAMtphJleHRuA2FlbQIxMQABHtdPsGOiVYtxvCt6ixozjUJejztDT0-KHTH_DKTBp-R1L2BmnB_afPtnWVHg_aem_L3DL_TWwowZ4TY-Ur8Db0A,478.562,480.313,space,1,0,0,0,17,1,R,space,0.487,,477.196,478.558,space,1.341,,,,,,
,,,,,R_9eQjko0qChFJ2Cg,001,2025-09-10_10h31.18.857,continuous_performance_test,2024.2.4,MacIntel,71.42857143,IwVERDUAMtphJleHRuA2FlbQIxMQABHtdPsGOiVYtxvCt6ixozjUJejztDT0-KHTH_DKTBp-R1L2BmnB_afPtnWVHg_aem_L3DL_TWwowZ4TY-Ur8Db0A,480.316,482.314,space,1,0,1,1,12,1,M,space,0.332,,,,,,,,,,,
,,,,,R_9eQjko0qChFJ2Cg,001,2025-09-10_10h31.18.857,continuous_performance_test,2024.2.4,MacIntel,71.42857143,IwVERDUAMtphJleHRuA2FlbQIxMQABHtdPsGOiVYtxvCt6ixozjUJejztDT0-KHTH_DKTBp-R1L2BmnB_afPtnWVHg_aem_L3DL_TWwowZ4TY-Ur8Db0A,482.317,483.965,space,1,0,2,2,9,1,J,space,0.321,,,,,,,,,,,
,,,,,R_9eQjko0qChFJ2Cg,001,2025-09-10_10h31.18.857,continuous_performance_test,2024.2.4,MacIntel,71.42857143,IwVERDUAMtphJleHRuA2FlbQIxMQABHtdPsGOiVYtxvCt6ixozjUJejztDT0-KHTH_DKTBp-R1L2BmnB_afPtnWVHg_aem_L3DL_TWwowZ4TY-Ur8Db0A,483.967,485.816,space,1,0,3,3,7,1,H,space,0.288,,,,,,,,,,,
,,,,,R_9eQjko0qChFJ2Cg,001,2025-09-10_10h31.18.857,continuous_performance_test,2024.2.4,MacIntel,71.42857143,IwVERDUAMtphJleHRuA2FlbQIxMQABHtdPsGOiVYtxvCt6ixozjUJejztDT0-KHTH_DKTBp-R1L2BmnB_afPtnWVHg_aem_L3DL_TWwowZ4TY-Ur8Db0A,485.818,487.517,space,1,0,4,4,1,1,B,space,0.279,,,,,,,,,,,
,,,,,R_9eQjko0qChFJ2Cg,001,2025-09-10_10h31.18.857,continuous_performance_test,2024.2.4,MacIntel,71.42857143,IwVERDUAMtphJleHRuA2FlbQIxMQABHtdPsGOiVYtxvCt6ixozjUJejztDT0-KHTH_DKTBp-R1L2BmnB_afPtnWVHg_aem_L3DL_TWwowZ4TY-Ur8Db0A,487.519,489.518,space,1,0,5,5,5,1,F,space,0.271,,,,,,,,,,,
,,,,,R_9eQjko0qChFJ2Cg,001,2025-09-10_10h31.18.857,continuous_performance_test,2024.2.4,MacIntel,71.42857143,IwVERDUAMtphJleHRuA2FlbQIxMQABHtdPsGOiVYtxvCt6ixozjUJejztDT0-KHTH_DKTBp-R1L2BmnB_afPtnWVHg_aem_L3DL_TWwowZ4TY-Ur8Db0A,489.52,491.269,space,1,0,6,6,16,1,Q,space,0.396,,,,,,,,,,,
,,,,,R_9eQjko0qChFJ2Cg,001,2025-09-10_10h31.18.857,continuous_performance_test,2024.2.4,MacIntel,71.42857143,IwVERDUAMtphJleHRuA2FlbQIxMQABHtdPsGOiVYtxvCt6ixozjUJejztDT0-KHTH_DKTBp-R1L2BmnB_afPtnWVHg_aem_L3DL_TWwowZ4TY-Ur8Db0A,491.271,493.22,space,1,0,7,7,6,1,G,space,0.272,,,,,,,,,,,
,,,,,R_9eQjko0qChFJ2Cg,001,2025-09-10_10h31.18.857,continuous_performance_test,2024.2.4,MacIntel,71.42857143,IwVERDUAMtphJleHRuA2FlbQIxMQABHtdPsGOiVYtxvCt6ixozjUJejztDT0-KHTH_DKTBp-R1L2BmnB_afPtnWVHg_aem_L3DL_TWwowZ4TY-Ur8Db0A,493.222,494.871,space,1,0,8,8,21,1,V,space,0.271,,,,,,,,,,,
,,,,,R_9eQjko0qChFJ2Cg,001,2025-09-10_10h31.18.857,continuous_performance_test,2024.2.4,MacIntel,71.42857143,IwVERDUAMtphJleHRuA2FlbQIxMQABHtdPsGOiVYtxvCt6ixozjUJejztDT0-KHTH_DKTBp-R1L2BmnB_afPtnWVHg_aem_L3DL_TWwowZ4TY-Ur8Db0A,494.873,496.572,space,1,0,9,9,0,1,A,space,0.302,,,,,,,,,,,
,,,,,R_9eQjko0qChFJ2Cg,001,2025-09-10_10h31.18.857,continuous_performance_test,2024.2.4,MacIntel,71.42857143,IwVERDUAMtphJleHRuA2FlbQIxMQABHtdPsGOiVYtxvCt6ixozjUJejztDT0-KHTH_DKTBp-R1L2BmnB_afPtnWVHg_aem_L3DL_TWwowZ4TY-Ur8Db0A,496.574,498.373,space,1,0,10,10,10,1,K,space,0.302,,,,,,,,,,,
,,,,,R_9eQjko0qChFJ2Cg,001,2025-09-10_10h31.18.857,continuous_performance_test,2024.2.4,MacIntel,71.42857143,IwVERDUAMtphJleHRuA2FlbQIxMQABHtdPsGOiVYtxvCt6ixozjUJejztDT0-KHTH_DKTBp-R1L2BmnB_afPtnWVHg_aem_L3DL_TWwowZ4TY-Ur8Db0A,498.376,499.974,space,1,0,11,11,4,1,E,space,0.294,,,,,,,,,,,
,,,,,R_9eQjko0qChFJ2Cg,001,2025-09-10_10h31.18.857,continuous_performance_test,2024.2.4,MacIntel,71.42857143,IwVERDUAMtphJleHRuA2FlbQIxMQABHtdPsGOiVYtxvCt6ixozjUJejztDT0-KHTH_DKTBp-R1L2BmnB_afPtnWVHg_aem_L3DL_TWwowZ4TY-Ur8Db0A,499.977,501.525,space,1,0,12,12,3,1,D,space,0.296,,,,,,,,,,,
,,,,,R_9eQjko0qChFJ2Cg,001,2025-09-10_10h31.18.857,continuous_performance_test,2024.2.4,MacIntel,71.42857143,IwVERDUAMtphJleHRuA2FlbQIxMQABHtdPsGOiVYtxvCt6ixozjUJejztDT0-KHTH_DKTBp-R1L2BmnB_afPtnWVHg_aem_L3DL_TWwowZ4TY-Ur8Db0A,501.527,503.376,space,1,0,13,13,24,1,Z,space,0.279,,,,,,,,,,,
,,,,,R_9eQjko0qChFJ2Cg,001,2025-09-10_10h31.18.857,continuous_performance_test,2024.2.4,MacIntel,71.42857143,IwVERDUAMtphJleHRuA2FlbQIxMQABHtdPsGOiVYtxvCt6ixozjUJejztDT0-KHTH_DKTBp-R1L2BmnB_afPtnWVHg_aem_L3DL_TWwowZ4TY-Ur8Db0A,503.378,504.977,space,0,0,14,14,29,1,X,,0.27,,,,,,,,,,,
,,,,,R_9eQjko0qChFJ2Cg,001,2025-09-10_10h31.18.857,continuous_performance_test,2024.2.4,MacIntel,71.42857143,IwVERDUAMtphJleHRuA2FlbQIxMQABHtdPsGOiVYtxvCt6ixozjUJejztDT0-KHTH_DKTBp-R1L2BmnB_afPtnWVHg_aem_L3DL_TWwowZ4TY-Ur8Db0A,504.978,506.978,,1,0,15,15,25,1,X,,,,,,,,,,,,,
,,,,,R_9eQjko0qChFJ2Cg,001,2025-09-10_10h31.18.857,continuous_performance_test,2024.2.4,MacIntel,71.42857143,IwVERDUAMtphJleHRuA2FlbQIxMQABHtdPsGOiVYtxvCt6ixozjUJejztDT0-KHTH_DKTBp-R1L2BmnB_afPtnWVHg_aem_L3DL_TWwowZ4TY-Ur8Db0A,506.98,508.63,space,1,0,16,16,22,1,W,space,0.365,,,,,,,,,,,
,,,,,R_9eQjko0qChFJ2Cg,001,2025-09-10_10h31.18.857,continuous_performance_test,2024.2.4,MacIntel,71.42857143,IwVERDUAMtphJleHRuA2FlbQIxMQABHtdPsGOiVYtxvCt6ixozjUJejztDT0-KHTH_DKTBp-R1L2BmnB_afPtnWVHg_aem_L3DL_TWwowZ4TY-Ur8Db0A,508.632,510.23,space,1,0,17,17,2,1,C,space,0.323,,,,,,,,,,,
,,,,,R_9eQjko0qChFJ2Cg,001,2025-09-10_10h31.18.857,continuous_performance_test,2024.2.4,MacIntel,71.42857143,IwVERDUAMtphJleHRuA2FlbQIxMQABHtdPsGOiVYtxvCt6ixozjUJejztDT0-KHTH_DKTBp-R1L2BmnB_afPtnWVHg_aem_L3DL_TWwowZ4TY-Ur8Db0A,510.232,512.132,space,1,0,18,18,14,1,O,space,0.37,,,,,,,,,,,
,,,,,R_9eQjko0qChFJ2Cg,001,2025-09-10_10h31.18.857,continuous_performance_test,2024.2.4,MacIntel,71.42857143,IwVERDUAMtphJleHRuA2FlbQIxMQABHtdPsGOiVYtxvCt6ixozjUJejztDT0-KHTH_DKTBp-R1L2BmnB_afPtnWVHg_aem_L3DL_TWwowZ4TY-Ur8Db0A,512.134,514.033,,1,0,19,19,28,1,X,,,,,,,,,,,,,
,,,,,R_9eQjko0qChFJ2Cg,001,2025-09-10_10h31.18.857,continuous_performance_test,2024.2.4,MacIntel,71.42857143,IwVERDUAMtphJleHRuA2FlbQIxMQABHtdPsGOiVYtxvCt6ixozjUJejztDT0-KHTH_DKTBp-R1L2BmnB_afPtnWVHg_aem_L3DL_TWwowZ4TY-Ur8Db0A,514.035,515.934,space,1,0,20,20,18,1,S,space,0.32,,,,,,,,,,,
,,,,,R_9eQjko0qChFJ2Cg,001,2025-09-10_10h31.18.857,continuous_performance_test,2024.2.4,MacIntel,71.42857143,IwVERDUAMtphJleHRuA2FlbQIxMQABHtdPsGOiVYtxvCt6ixozjUJejztDT0-KHTH_DKTBp-R1L2BmnB_afPtnWVHg_aem_L3DL_TWwowZ4TY-Ur8Db0A,515.936,517.635,space,1,0,21,21,13,1,N,space,0.388,,,,,,,,,,,
,,,,,R_9eQjko0qChFJ2Cg,001,2025-09-10_10h31.18.857,continuous_performance_test,2024.2.4,MacIntel,71.42857143,IwVERDUAMtphJleHRuA2FlbQIxMQABHtdPsGOiVYtxvCt6ixozjUJejztDT0-KHTH_DKTBp-R1L2BmnB_afPtnWVHg_aem_L3DL_TWwowZ4TY-Ur8Db0A,517.637,519.336,space,1,0,22,22,19,1,T,space,0.355,,,,,,,,,,,
,,,,,R_9eQjko0qChFJ2Cg,001,2025-09-10_10h31.18.857,continuous_performance_test,2024.2.4,MacIntel,71.42857143,IwVERDUAMtphJleHRuA2FlbQIxMQABHtdPsGOiVYtxvCt6ixozjUJejztDT0-KHTH_DKTBp-R1L2BmnB_afPtnWVHg_aem_L3DL_TWwowZ4TY-Ur8Db0A,519.338,521.237,space,1,0,23,23,8,1,I,space,0.339,,,,,,,,,,,
,,,,,R_9eQjko0qChFJ2Cg,001,2025-09-10_10h31.18.857,continuous_performance_test,2024.2.4,MacIntel,71.42857143,IwVERDUAMtphJleHRuA2FlbQIxMQABHtdPsGOiVYtxvCt6ixozjUJejztDT0-KHTH_DKTBp-R1L2BmnB_afPtnWVHg_aem_L3DL_TWwowZ4TY-Ur8Db0A,521.239,522.838,space,1,0,24,24,20,1,U,space,0.316,,,,,,,,,,,
,,,,,R_9eQjko0qChFJ2Cg,001,2025-09-10_10h31.18.857,continuous_performance_test,2024.2.4,MacIntel,71.42857143,IwVERDUAMtphJleHRuA2FlbQIxMQABHtdPsGOiVYtxvCt6ixozjUJejztDT0-KHTH_DKTBp-R1L2BmnB_afPtnWVHg_aem_L3DL_TWwowZ4TY-Ur8Db0A,522.841,524.739,space,0,0,25,25,26,1,X,,0.278,,,,,,,,,,,
,,,,,R_9eQjko0qChFJ2Cg,001,2025-09-10_10h31.18.857,continuous_performance_test,2024.2.4,MacIntel,71.42857143,IwVERDUAMtphJleHRuA2FlbQIxMQABHtdPsGOiVYtxvCt6ixozjUJejztDT0-KHTH_DKTBp-R1L2BmnB_afPtnWVHg_aem_L3DL_TWwowZ4TY-Ur8Db0A,524.741,526.74,space,1,0,26,26,15,1,P,space,0.407,,,,,,,,,,,
,,,,,R_9eQjko0qChFJ2Cg,001,2025-09-10_10h31.18.857,continuous_performance_test,2024.2.4,MacIntel,71.42857143,IwVERDUAMtphJleHRuA2FlbQIxMQABHtdPsGOiVYtxvCt6ixozjUJejztDT0-KHTH_DKTBp-R1L2BmnB_afPtnWVHg_aem_L3DL_TWwowZ4TY-Ur8Db0A,526.742,528.742,space,1,0,27,27,23,1,Y,space,0.403,,,,,,,,,,,
,,,,,R_9eQjko0qChFJ2Cg,001,2025-09-10_10h31.18.857,continuous_performance_test,2024.2.4,MacIntel,71.42857143,IwVERDUAMtphJleHRuA2FlbQIxMQABHtdPsGOiVYtxvCt6ixozjUJejztDT0-KHTH_DKTBp-R1L2BmnB_afPtnWVHg_aem_L3DL_TWwowZ4TY-Ur8Db0A,528.743,530.693,space,1,0,28,28,11,1,L,space,0.466,,,,,,,,,,,
,,,,,R_9eQjko0qChFJ2Cg,001,2025-09-10_10h31.18.857,continuous_performance_test,2024.2.4,MacIntel,71.42857143,IwVERDUAMtphJleHRuA2FlbQIxMQABHtdPsGOiVYtxvCt6ixozjUJejztDT0-KHTH_DKTBp-R1L2BmnB_afPtnWVHg_aem_L3DL_TWwowZ4TY-Ur8Db0A,530.694,532.394,,1,0,29,29,27,1,X,,,,,,,,,,,,,
,,,,,R_9eQjko0qChFJ2Cg,001,2025-09-10_10h31.18.857,continuous_performance_test,2024.2.4,MacIntel,71.42857143,IwVERDUAMtphJleHRuA2FlbQIxMQABHtdPsGOiVYtxvCt6ixozjUJejztDT0-KHTH_DKTBp-R1L2BmnB_afPtnWVHg_aem_L3DL_TWwowZ4TY-Ur8Db0A,534.716,536.414,space,1,0,0,0,5,1,F,space,0.515,,532.397,534.712,space,2.291,,,,,,
,,,,,R_9eQjko0qChFJ2Cg,001,2025-09-10_10h31.18.857,continuous_performance_test,2024.2.4,MacIntel,71.42857143,IwVERDUAMtphJleHRuA2FlbQIxMQABHtdPsGOiVYtxvCt6ixozjUJejztDT0-KHTH_DKTBp-R1L2BmnB_afPtnWVHg_aem_L3DL_TWwowZ4TY-Ur8Db0A,536.417,538.364,space,1,0,1,1,24,1,Z,space,0.321,,,,,,,,,,,
,,,,,R_9eQjko0qChFJ2Cg,001,2025-09-10_10h31.18.857,continuous_performance_test,2024.2.4,MacIntel,71.42857143,IwVERDUAMtphJleHRuA2FlbQIxMQABHtdPsGOiVYtxvCt6ixozjUJejztDT0-KHTH_DKTBp-R1L2BmnB_afPtnWVHg_aem_L3DL_TWwowZ4TY-Ur8Db0A,538.367,540.065,space,1,0,2,2,3,1,D,space,0.365,,,,,,,,,,,
,,,,,R_9eQjko0qChFJ2Cg,001,2025-09-10_10h31.18.857,continuous_performance_test,2024.2.4,MacIntel,71.42857143,IwVERDUAMtphJleHRuA2FlbQIxMQABHtdPsGOiVYtxvCt6ixozjUJejztDT0-KHTH_DKTBp-R1L2BmnB_afPtnWVHg_aem_L3DL_TWwowZ4TY-Ur8Db0A,540.067,541.716,space,1,0,3,3,16,1,Q,space,0.456,,,,,,,,,,,
,,,,,R_9eQjko0qChFJ2Cg,001,2025-09-10_10h31.18.857,continuous_performance_test,2024.2.4,MacIntel,71.42857143,IwVERDUAMtphJleHRuA2FlbQIxMQABHtdPsGOiVYtxvCt6ixozjUJejztDT0-KHTH_DKTBp-R1L2BmnB_afPtnWVHg_aem_L3DL_TWwowZ4TY-Ur8Db0A,541.717,543.667,space,1,0,4,4,0,1,A,space,0.365,,,,,,,,,,,
,,,,,R_9eQjko0qChFJ2Cg,001,2025-09-10_10h31.18.857,continuous_performance_test,2024.2.4,MacIntel,71.42857143,IwVERDUAMtphJleHRuA2FlbQIxMQABHtdPsGOiVYtxvCt6ixozjUJejztDT0-KHTH_DKTBp-R1L2BmnB_afPtnWVHg_aem_L3DL_TWwowZ4TY-Ur8Db0A,543.67,545.319,space,0,0,5,5,26,1,X,,0.353,,,,,,,,,,,
,,,,,R_9eQjko0qChFJ2Cg,001,2025-09-10_10h31.18.857,continuous_performance_test,2024.2.4,MacIntel,71.42857143,IwVERDUAMtphJleHRuA2FlbQIxMQABHtdPsGOiVYtxvCt6ixozjUJejztDT0-KHTH_DKTBp-R1L2BmnB_afPtnWVHg_aem_L3DL_TWwowZ4TY-Ur8Db0A,545.32,546.969,space,1,0,6,6,8,1,I,space,0.819,,,,,,,,,,,
,,,,,R_9eQjko0qChFJ2Cg,001,2025-09-10_10h31.18.857,continuous_performance_test,2024.2.4,MacIntel,71.42857143,IwVERDUAMtphJleHRuA2FlbQIxMQABHtdPsGOiVYtxvCt6ixozjUJejztDT0-KHTH_DKTBp-R1L2BmnB_afPtnWVHg_aem_L3DL_TWwowZ4TY-Ur8Db0A,546.971,548.92,,1,0,7,7,29,1,X,,,,,,,,,,,,,
,,,,,R_9eQjko0qChFJ2Cg,001,2025-09-10_10h31.18.857,continuous_performance_test,2024.2.4,MacIntel,71.42857143,IwVERDUAMtphJleHRuA2FlbQIxMQABHtdPsGOiVYtxvCt6ixozjUJejztDT0-KHTH_DKTBp-R1L2BmnB_afPtnWVHg_aem_L3DL_TWwowZ4TY-Ur8Db0A,548.922,550.521,space,1,0,8,8,23,1,Y,space,0.586,,,,,,,,,,,
,,,,,R_9eQjko0qChFJ2Cg,001,2025-09-10_10h31.18.857,continuous_performance_test,2024.2.4,MacIntel,71.42857143,IwVERDUAMtphJleHRuA2FlbQIxMQABHtdPsGOiVYtxvCt6ixozjUJejztDT0-KHTH_DKTBp-R1L2BmnB_afPtnWVHg_aem_L3DL_TWwowZ4TY-Ur8Db0A,550.523,552.423,space,1,0,9,9,4,1,E,space,0.463,,,,,,,,,,,
,,,,,R_9eQjko0qChFJ2Cg,001,2025-09-10_10h31.18.857,continuous_performance_test,2024.2.4,MacIntel,71.42857143,IwVERDUAMtphJleHRuA2FlbQIxMQABHtdPsGOiVYtxvCt6ixozjUJejztDT0-KHTH_DKTBp-R1L2BmnB_afPtnWVHg_aem_L3DL_TWwowZ4TY-Ur8Db0A,552.425,554.174,space,1,0,10,10,19,1,T,space,0.486,,,,,,,,,,,
,,,,,R_9eQjko0qChFJ2Cg,001,2025-09-10_10h31.18.857,continuous_performance_test,2024.2.4,MacIntel,71.42857143,IwVERDUAMtphJleHRuA2FlbQIxMQABHtdPsGOiVYtxvCt6ixozjUJejztDT0-KHTH_DKTBp-R1L2BmnB_afPtnWVHg_aem_L3DL_TWwowZ4TY-Ur8Db0A,554.176,555.775,space,1,0,11,11,6,1,G,space,0.449,,,,,,,,,,,
,,,,,R_9eQjko0qChFJ2Cg,001,2025-09-10_10h31.18.857,continuous_performance_test,2024.2.4,MacIntel,71.42857143,IwVERDUAMtphJleHRuA2FlbQIxMQABHtdPsGOiVYtxvCt6ixozjUJejztDT0-KHTH_DKTBp-R1L2BmnB_afPtnWVHg_aem_L3DL_TWwowZ4TY-Ur8Db0A,555.777,557.376,space,1,0,12,12,1,1,B,space,0.453,,,,,,,,,,,
,,,,,R_9eQjko0qChFJ2Cg,001,2025-09-10_10h31.18.857,continuous_performance_test,2024.2.4,MacIntel,71.42857143,IwVERDUAMtphJleHRuA2FlbQIxMQABHtdPsGOiVYtxvCt6ixozjUJejztDT0-KHTH_DKTBp-R1L2BmnB_afPtnWVHg_aem_L3DL_TWwowZ4TY-Ur8Db0A,557.378,559.377,space,1,0,13,13,22,1,W,space,0.68,,,,,,,,,,,
,,,,,R_9eQjko0qChFJ2Cg,001,2025-09-10_10h31.18.857,continuous_performance_test,2024.2.4,MacIntel,71.42857143,IwVERDUAMtphJleHRuA2FlbQIxMQABHtdPsGOiVYtxvCt6ixozjUJejztDT0-KHTH_DKTBp-R1L2BmnB_afPtnWVHg_aem_L3DL_TWwowZ4TY-Ur8Db0A,559.379,561.028,space,1,0,14,14,20,1,U,space,0.455,,,,,,,,,,,
,,,,,R_9eQjko0qChFJ2Cg,001,2025-09-10_10h31.18.857,continuous_performance_test,2024.2.4,MacIntel,71.42857143,IwVERDUAMtphJleHRuA2FlbQIxMQABHtdPsGOiVYtxvCt6ixozjUJejztDT0-KHTH_DKTBp-R1L2BmnB_afPtnWVHg_aem_L3DL_TWwowZ4TY-Ur8Db0A,561.03,562.629,space,1,0,15,15,10,1,K,space,0.48,,,,,,,,,,,
,,,,,R_9eQjko0qChFJ2Cg,001,2025-09-10_10h31.18.857,continuous_performance_test,2024.2.4,MacIntel,71.42857143,IwVERDUAMtphJleHRuA2FlbQIxMQABHtdPsGOiVYtxvCt6ixozjUJejztDT0-KHTH_DKTBp-R1L2BmnB_afPtnWVHg_aem_L3DL_TWwowZ4TY-Ur8Db0A,562.631,564.28,space,0,0,16,16,27,1,X,,0.33,,,,,,,,,,,
,,,,,R_9eQjko0qChFJ2Cg,001,2025-09-10_10h31.18.857,continuous_performance_test,2024.2.4,MacIntel,71.42857143,IwVERDUAMtphJleHRuA2FlbQIxMQABHtdPsGOiVYtxvCt6ixozjUJejztDT0-KHTH_DKTBp-R1L2BmnB_afPtnWVHg_aem_L3DL_TWwowZ4TY-Ur8Db0A,564.283,566.181,space,1,0,17,17,14,1,O,space,0.321,,,,,,,,,,,
,,,,,R_9eQjko0qChFJ2Cg,001,2025-09-10_10h31.18.857,continuous_performance_test,2024.2.4,MacIntel,71.42857143,IwVERDUAMtphJleHRuA2FlbQIxMQABHtdPsGOiVYtxvCt6ixozjUJejztDT0-KHTH_DKTBp-R1L2BmnB_afPtnWVHg_aem_L3DL_TWwowZ4TY-Ur8Db0A,566.183,568.082,space,1,0,18,18,18,1,S,space,0.464,,,,,,,,,,,
,,,,,R_9eQjko0qChFJ2Cg,001,2025-09-10_10h31.18.857,continuous_performance_test,2024.2.4,MacIntel,71.42857143,IwVERDUAMtphJleHRuA2FlbQIxMQABHtdPsGOiVYtxvCt6ixozjUJejztDT0-KHTH_DKTBp-R1L2BmnB_afPtnWVHg_aem_L3DL_TWwowZ4TY-Ur8Db0A,568.084,569.733,space,1,0,19,19,17,1,R,space,0.422,,,,,,,,,,,
,,,,,R_9eQjko0qChFJ2Cg,001,2025-09-10_10h31.18.857,continuous_performance_test,2024.2.4,MacIntel,71.42857143,IwVERDUAMtphJleHRuA2FlbQIxMQABHtdPsGOiVYtxvCt6ixozjUJejztDT0-KHTH_DKTBp-R1L2BmnB_afPtnWVHg_aem_L3DL_TWwowZ4TY-Ur8Db0A,569.735,571.284,space,1,0,20,20,21,1,V,space,0.337,,,,,,,,,,,
,,,,,R_9eQjko0qChFJ2Cg,001,2025-09-10_10h31.18.857,continuous_performance_test,2024.2.4,MacIntel,71.42857143,IwVERDUAMtphJleHRuA2FlbQIxMQABHtdPsGOiVYtxvCt6ixozjUJejztDT0-KHTH_DKTBp-R1L2BmnB_afPtnWVHg_aem_L3DL_TWwowZ4TY-Ur8Db0A,571.286,572.935,space,1,0,21,21,11,1,L,space,0.39,,,,,,,,,,,
,,,,,R_9eQjko0qChFJ2Cg,001,2025-09-10_10h31.18.857,continuous_performance_test,2024.2.4,MacIntel,71.42857143,IwVERDUAMtphJleHRuA2FlbQIxMQABHtdPsGOiVYtxvCt6ixozjUJejztDT0-KHTH_DKTBp-R1L2BmnB_afPtnWVHg_aem_L3DL_TWwowZ4TY-Ur8Db0A,572.937,574.736,space,0,0,22,22,25,1,X,,0.386,,,,,,,,,,,
,,,,,R_9eQjko0qChFJ2Cg,001,2025-09-10_10h31.18.857,continuous_performance_test,2024.2.4,MacIntel,71.42857143,IwVERDUAMtphJleHRuA2FlbQIxMQABHtdPsGOiVYtxvCt6ixozjUJejztDT0-KHTH_DKTBp-R1L2BmnB_afPtnWVHg_aem_L3DL_TWwowZ4TY-Ur8Db0A,574.737,576.637,space,1,0,23,23,2,1,C,space,0.314,,,,,,,,,,,
,,,,,R_9eQjko0qChFJ2Cg,001,2025-09-10_10h31.18.857,continuous_performance_test,2024.2.4,MacIntel,71.42857143,IwVERDUAMtphJleHRuA2FlbQIxMQABHtdPsGOiVYtxvCt6ixozjUJejztDT0-KHTH_DKTBp-R1L2BmnB_afPtnWVHg_aem_L3DL_TWwowZ4TY-Ur8Db0A,576.639,578.388,space,1,0,24,24,7,1,H,space,0.354,,,,,,,,,,,
,,,,,R_9eQjko0qChFJ2Cg,001,2025-09-10_10h31.18.857,continuous_performance_test,2024.2.4,MacIntel,71.42857143,IwVERDUAMtphJleHRuA2FlbQIxMQABHtdPsGOiVYtxvCt6ixozjUJejztDT0-KHTH_DKTBp-R1L2BmnB_afPtnWVHg_aem_L3DL_TWwowZ4TY-Ur8Db0A,578.39,579.99,,1,0,25,25,28,1,X,,,,,,,,,,,,,
,,,,,R_9eQjko0qChFJ2Cg,001,2025-09-10_10h31.18.857,continuous_performance_test,2024.2.4,MacIntel,71.42857143,IwVERDUAMtphJleHRuA2FlbQIxMQABHtdPsGOiVYtxvCt6ixozjUJejztDT0-KHTH_DKTBp-R1L2BmnB_afPtnWVHg_aem_L3DL_TWwowZ4TY-Ur8Db0A,579.992,581.791,space,1,0,26,26,12,1,M,space,0.409,,,,,,,,,,,
,,,,,R_9eQjko0qChFJ2Cg,001,2025-09-10_10h31.18.857,continuous_performance_test,2024.2.4,MacIntel,71.42857143,IwVERDUAMtphJleHRuA2FlbQIxMQABHtdPsGOiVYtxvCt6ixozjUJejztDT0-KHTH_DKTBp-R1L2BmnB_afPtnWVHg_aem_L3DL_TWwowZ4TY-Ur8Db0A,581.792,583.341,space,1,0,27,27,9,1,J,space,0.323,,,,,,,,,,,
,,,,,R_9eQjko0qChFJ2Cg,001,2025-09-10_10h31.18.857,continuous_performance_test,2024.2.4,MacIntel,71.42857143,IwVERDUAMtphJleHRuA2FlbQIxMQABHtdPsGOiVYtxvCt6ixozjUJejztDT0-KHTH_DKTBp-R1L2BmnB_afPtnWVHg_aem_L3DL_TWwowZ4TY-Ur8Db0A,583.344,585.143,space,1,0,28,28,13,1,N,space,0.347,,,,,,,,,,,
,,,,,R_9eQjko0qChFJ2Cg,001,2025-09-10_10h31.18.857,continuous_performance_test,2024.2.4,MacIntel,71.42857143,IwVERDUAMtphJleHRuA2FlbQIxMQABHtdPsGOiVYtxvCt6ixozjUJejztDT0-KHTH_DKTBp-R1L2BmnB_afPtnWVHg_aem_L3DL_TWwowZ4TY-Ur8Db0A,585.145,586.793,space,1,0,29,29,15,1,P,space,0.414,,,,,,,,,,,
,,,,,R_9eQjko0qChFJ2Cg,001,2025-09-10_10h31.18.857,continuous_performance_test,2024.2.4,MacIntel,71.42857143,IwVERDUAMtphJleHRuA2FlbQIxMQABHtdPsGOiVYtxvCt6ixozjUJejztDT0-KHTH_DKTBp-R1L2BmnB_afPtnWVHg_aem_L3DL_TWwowZ4TY-Ur8Db0A,,,,,,,,,,,,,,586.795,586.798,,,,586.799,592.476,space,5.654,
