Instructions.started,Instructions.stopped,key_resp.keys,key_resp.rt,key_resp.duration,participant,session,date,expName,psychopyVersion,OS,frameRate,realeye-tester-id,realeye-tester-quality_grade,Trial_noX.started,Trial_noX.stopped,response.keys,response.corr,response.rt,response.duration,trials_noX.thisRepN,trials_noX.thisTrialN,trials_noX.thisN,trials_noX.thisIndex,trials_noX.ran,letter,corrAns,BlockBreak.started,BlockBreak.stopped,key_instruct.keys,key_instruct.rt,key_instruct.duration,End_NoX.started,End_NoX.stopped,key_resp_end_noX.keys,key_resp_end_noX.rt,key_resp_end_noX.duration
0.0006,37.7103,space,37.6847,,R_9h0DU1QvkLJmnQJ,001,2025-08-14_14h31.02.523,continuous_performance_test,2024.2.4,Win32,59.88023952,39a10fb6-29f4-4a3c-b49d-a12c9752649a,5,,,,,,,,,,,,,,,,,,,,,,,
,,,,,R_9h0DU1QvkLJmnQJ,001,2025-08-14_14h31.02.523,continuous_performance_test,2024.2.4,Win32,59.88023952,39a10fb6-29f4-4a3c-b49d-a12c9752649a,5,37.7258,39.4268,space,1,0.868,,0,0,0,22,1,W,space,,,,,,,,,,
,,,,,R_9h0DU1QvkLJmnQJ,001,2025-08-14_14h31.02.523,continuous_performance_test,2024.2.4,Win32,59.88023952,39a10fb6-29f4-4a3c-b49d-a12c9752649a,5,39.4279,41.0772,space,1,0.4041,,0,1,1,11,1,L,space,,,,,,,,,,
,,,,,R_9h0DU1QvkLJmnQJ,001,2025-08-14_14h31.02.523,continuous_performance_test,2024.2.4,Win32,59.88023952,39a10fb6-29f4-4a3c-b49d-a12c9752649a,5,41.0806,43.0771,space,0,0.291,,0,2,2,26,1,X,,,,,,,,,,,
,,,,,R_9h0DU1QvkLJmnQJ,001,2025-08-14_14h31.02.523,continuous_performance_test,2024.2.4,Win32,59.88023952,39a10fb6-29f4-4a3c-b49d-a12c9752649a,5,43.0813,44.8768,space,1,0.5504,,0,3,3,1,1,B,space,,,,,,,,,,
,,,,,R_9h0DU1QvkLJmnQJ,001,2025-08-14_14h31.02.523,continuous_performance_test,2024.2.4,Win32,59.88023952,39a10fb6-29f4-4a3c-b49d-a12c9752649a,5,44.8779,46.4268,,1,,,0,4,4,28,1,X,,,,,,,,,,,
,,,,,R_9h0DU1QvkLJmnQJ,001,2025-08-14_14h31.02.523,continuous_performance_test,2024.2.4,Win32,59.88023952,39a10fb6-29f4-4a3c-b49d-a12c9752649a,5,46.4278,48.2768,space,1,0.3678,,0,5,5,19,1,T,space,,,,,,,,,,
,,,,,R_9h0DU1QvkLJmnQJ,001,2025-08-14_14h31.02.523,continuous_performance_test,2024.2.4,Win32,59.88023952,39a10fb6-29f4-4a3c-b49d-a12c9752649a,5,48.2779,50.1768,space,1,0.638,,0,6,6,9,1,J,space,,,,,,,,,,
,,,,,R_9h0DU1QvkLJmnQJ,001,2025-08-14_14h31.02.523,continuous_performance_test,2024.2.4,Win32,59.88023952,39a10fb6-29f4-4a3c-b49d-a12c9752649a,5,50.178,52.1266,space,1,0.6643,,0,7,7,3,1,D,space,,,,,,,,,,
,,,,,R_9h0DU1QvkLJmnQJ,001,2025-08-14_14h31.02.523,continuous_performance_test,2024.2.4,Win32,59.88023952,39a10fb6-29f4-4a3c-b49d-a12c9752649a,5,52.1277,53.9775,space,1,0.5355,,0,8,8,13,1,N,space,,,,,,,,,,
,,,,,R_9h0DU1QvkLJmnQJ,001,2025-08-14_14h31.02.523,continuous_performance_test,2024.2.4,Win32,59.88023952,39a10fb6-29f4-4a3c-b49d-a12c9752649a,5,53.9809,55.727,space,1,0.4275,,0,9,9,21,1,V,space,,,,,,,,,,
,,,,,R_9h0DU1QvkLJmnQJ,001,2025-08-14_14h31.02.523,continuous_performance_test,2024.2.4,Win32,59.88023952,39a10fb6-29f4-4a3c-b49d-a12c9752649a,5,55.7288,57.5268,space,1,0.4844,,0,10,10,15,1,P,space,,,,,,,,,,
,,,,,R_9h0DU1QvkLJmnQJ,001,2025-08-14_14h31.02.523,continuous_performance_test,2024.2.4,Win32,59.88023952,39a10fb6-29f4-4a3c-b49d-a12c9752649a,5,57.5275,59.3769,,1,,,0,11,11,27,1,X,,,,,,,,,,,
,,,,,R_9h0DU1QvkLJmnQJ,001,2025-08-14_14h31.02.523,continuous_performance_test,2024.2.4,Win32,59.88023952,39a10fb6-29f4-4a3c-b49d-a12c9752649a,5,59.3775,61.1773,,1,,,0,12,12,29,1,X,,,,,,,,,,,
,,,,,R_9h0DU1QvkLJmnQJ,001,2025-08-14_14h31.02.523,continuous_performance_test,2024.2.4,Win32,59.88023952,39a10fb6-29f4-4a3c-b49d-a12c9752649a,5,61.1795,62.8269,space,1,0.4141,,0,13,13,5,1,F,space,,,,,,,,,,
,,,,,R_9h0DU1QvkLJmnQJ,001,2025-08-14_14h31.02.523,continuous_performance_test,2024.2.4,Win32,59.88023952,39a10fb6-29f4-4a3c-b49d-a12c9752649a,5,62.828,64.727,space,1,0.626,,0,14,14,20,1,U,space,,,,,,,,,,
,,,,,R_9h0DU1QvkLJmnQJ,001,2025-08-14_14h31.02.523,continuous_performance_test,2024.2.4,Win32,59.88023952,39a10fb6-29f4-4a3c-b49d-a12c9752649a,5,64.7279,66.3774,space,1,0.5176,,0,15,15,6,1,G,space,,,,,,,,,,
,,,,,R_9h0DU1QvkLJmnQJ,001,2025-08-14_14h31.02.523,continuous_performance_test,2024.2.4,Win32,59.88023952,39a10fb6-29f4-4a3c-b49d-a12c9752649a,5,66.3809,68.2774,space,1,0.6508,,0,16,16,18,1,S,space,,,,,,,,,,
,,,,,R_9h0DU1QvkLJmnQJ,001,2025-08-14_14h31.02.523,continuous_performance_test,2024.2.4,Win32,59.88023952,39a10fb6-29f4-4a3c-b49d-a12c9752649a,5,68.2806,69.877,space,1,0.4474,,0,17,17,23,1,Y,space,,,,,,,,,,
,,,,,R_9h0DU1QvkLJmnQJ,001,2025-08-14_14h31.02.523,continuous_performance_test,2024.2.4,Win32,59.88023952,39a10fb6-29f4-4a3c-b49d-a12c9752649a,5,69.878,71.4271,space,1,0.5358,,0,18,18,14,1,O,space,,,,,,,,,,
,,,,,R_9h0DU1QvkLJmnQJ,001,2025-08-14_14h31.02.523,continuous_performance_test,2024.2.4,Win32,59.88023952,39a10fb6-29f4-4a3c-b49d-a12c9752649a,5,71.428,73.3772,space,1,0.5133,,0,19,19,24,1,Z,space,,,,,,,,,,
,,,,,R_9h0DU1QvkLJmnQJ,001,2025-08-14_14h31.02.523,continuous_performance_test,2024.2.4,Win32,59.88023952,39a10fb6-29f4-4a3c-b49d-a12c9752649a,5,73.3782,75.3276,space,1,0.5273,,0,20,20,17,1,R,space,,,,,,,,,,
,,,,,R_9h0DU1QvkLJmnQJ,001,2025-08-14_14h31.02.523,continuous_performance_test,2024.2.4,Win32,59.88023952,39a10fb6-29f4-4a3c-b49d-a12c9752649a,5,75.3309,77.2776,space,1,0.7461,,0,21,21,0,1,A,space,,,,,,,,,,
,,,,,R_9h0DU1QvkLJmnQJ,001,2025-08-14_14h31.02.523,continuous_performance_test,2024.2.4,Win32,59.88023952,39a10fb6-29f4-4a3c-b49d-a12c9752649a,5,77.281,78.8276,space,1,0.5798,,0,22,22,16,1,Q,space,,,,,,,,,,
,,,,,R_9h0DU1QvkLJmnQJ,001,2025-08-14_14h31.02.523,continuous_performance_test,2024.2.4,Win32,59.88023952,39a10fb6-29f4-4a3c-b49d-a12c9752649a,5,78.8303,80.7776,space,1,0.4808,,0,23,23,8,1,I,space,,,,,,,,,,
,,,,,R_9h0DU1QvkLJmnQJ,001,2025-08-14_14h31.02.523,continuous_performance_test,2024.2.4,Win32,59.88023952,39a10fb6-29f4-4a3c-b49d-a12c9752649a,5,80.7801,82.3272,,1,,,0,24,24,25,1,X,,,,,,,,,,,
,,,,,R_9h0DU1QvkLJmnQJ,001,2025-08-14_14h31.02.523,continuous_performance_test,2024.2.4,Win32,59.88023952,39a10fb6-29f4-4a3c-b49d-a12c9752649a,5,82.328,84.3277,space,1,0.536,,0,25,25,12,1,M,space,,,,,,,,,,
,,,,,R_9h0DU1QvkLJmnQJ,001,2025-08-14_14h31.02.523,continuous_performance_test,2024.2.4,Win32,59.88023952,39a10fb6-29f4-4a3c-b49d-a12c9752649a,5,84.3312,86.1781,space,1,0.6218,,0,26,26,2,1,C,space,,,,,,,,,,
,,,,,R_9h0DU1QvkLJmnQJ,001,2025-08-14_14h31.02.523,continuous_performance_test,2024.2.4,Win32,59.88023952,39a10fb6-29f4-4a3c-b49d-a12c9752649a,5,86.1811,87.8777,space,1,0.5484,,0,27,27,4,1,E,space,,,,,,,,,,
,,,,,R_9h0DU1QvkLJmnQJ,001,2025-08-14_14h31.02.523,continuous_performance_test,2024.2.4,Win32,59.88023952,39a10fb6-29f4-4a3c-b49d-a12c9752649a,5,87.8811,89.7778,space,1,0.5207,,0,28,28,10,1,K,space,,,,,,,,,,
,,,,,R_9h0DU1QvkLJmnQJ,001,2025-08-14_14h31.02.523,continuous_performance_test,2024.2.4,Win32,59.88023952,39a10fb6-29f4-4a3c-b49d-a12c9752649a,5,89.7807,91.5277,,0,,,0,29,29,7,1,H,space,,,,,,,,,,
,,,,,R_9h0DU1QvkLJmnQJ,001,2025-08-14_14h31.02.523,continuous_performance_test,2024.2.4,Win32,59.88023952,39a10fb6-29f4-4a3c-b49d-a12c9752649a,5,106.5479,108.3447,,0,,,0,0,0,2,1,C,space,91.5288,106.5287,,,,,,,,
,,,,,R_9h0DU1QvkLJmnQJ,001,2025-08-14_14h31.02.523,continuous_performance_test,2024.2.4,Win32,59.88023952,39a10fb6-29f4-4a3c-b49d-a12c9752649a,5,108.347,110.3446,space,1,0.6539,,0,1,1,15,1,P,space,,,,,,,,,,
,,,,,R_9h0DU1QvkLJmnQJ,001,2025-08-14_14h31.02.523,continuous_performance_test,2024.2.4,Win32,59.88023952,39a10fb6-29f4-4a3c-b49d-a12c9752649a,5,110.3469,112.2447,space,1,0.4049,,0,2,2,3,1,D,space,,,,,,,,,,
,,,,,R_9h0DU1QvkLJmnQJ,001,2025-08-14_14h31.02.523,continuous_performance_test,2024.2.4,Win32,59.88023952,39a10fb6-29f4-4a3c-b49d-a12c9752649a,5,112.2469,113.7943,space,1,0.4819,,0,3,3,11,1,L,space,,,,,,,,,,
,,,,,R_9h0DU1QvkLJmnQJ,001,2025-08-14_14h31.02.523,continuous_performance_test,2024.2.4,Win32,59.88023952,39a10fb6-29f4-4a3c-b49d-a12c9752649a,5,113.795,115.3449,space,1,0.3864,,0,4,4,23,1,Y,space,,,,,,,,,,
,,,,,R_9h0DU1QvkLJmnQJ,001,2025-08-14_14h31.02.523,continuous_performance_test,2024.2.4,Win32,59.88023952,39a10fb6-29f4-4a3c-b49d-a12c9752649a,5,115.3475,117.0442,space,1,0.3408,,0,5,5,17,1,R,space,,,,,,,,,,
,,,,,R_9h0DU1QvkLJmnQJ,001,2025-08-14_14h31.02.523,continuous_performance_test,2024.2.4,Win32,59.88023952,39a10fb6-29f4-4a3c-b49d-a12c9752649a,5,117.045,119.0443,space,1,0.4026,,0,6,6,13,1,N,space,,,,,,,,,,
,,,,,R_9h0DU1QvkLJmnQJ,001,2025-08-14_14h31.02.523,continuous_performance_test,2024.2.4,Win32,59.88023952,39a10fb6-29f4-4a3c-b49d-a12c9752649a,5,119.0451,120.7943,space,1,0.471,,0,7,7,12,1,M,space,,,,,,,,,,
,,,,,R_9h0DU1QvkLJmnQJ,001,2025-08-14_14h31.02.523,continuous_performance_test,2024.2.4,Win32,59.88023952,39a10fb6-29f4-4a3c-b49d-a12c9752649a,5,120.795,122.7444,space,1,0.3523,,0,8,8,16,1,Q,space,,,,,,,,,,
,,,,,R_9h0DU1QvkLJmnQJ,001,2025-08-14_14h31.02.523,continuous_performance_test,2024.2.4,Win32,59.88023952,39a10fb6-29f4-4a3c-b49d-a12c9752649a,5,122.7451,124.4446,space,1,0.3816,,0,9,9,10,1,K,space,,,,,,,,,,
,,,,,R_9h0DU1QvkLJmnQJ,001,2025-08-14_14h31.02.523,continuous_performance_test,2024.2.4,Win32,59.88023952,39a10fb6-29f4-4a3c-b49d-a12c9752649a,5,124.4466,126.2949,space,1,0.3655,,0,10,10,18,1,S,space,,,,,,,,,,
,,,,,R_9h0DU1QvkLJmnQJ,001,2025-08-14_14h31.02.523,continuous_performance_test,2024.2.4,Win32,59.88023952,39a10fb6-29f4-4a3c-b49d-a12c9752649a,5,126.2975,128.2449,space,1,0.3711,,0,11,11,0,1,A,space,,,,,,,,,,
,,,,,R_9h0DU1QvkLJmnQJ,001,2025-08-14_14h31.02.523,continuous_performance_test,2024.2.4,Win32,59.88023952,39a10fb6-29f4-4a3c-b49d-a12c9752649a,5,128.2472,129.9449,space,1,0.3862,,0,12,12,9,1,J,space,,,,,,,,,,
,,,,,R_9h0DU1QvkLJmnQJ,001,2025-08-14_14h31.02.523,continuous_performance_test,2024.2.4,Win32,59.88023952,39a10fb6-29f4-4a3c-b49d-a12c9752649a,5,129.9471,131.745,space,1,0.3193,,0,13,13,1,1,B,space,,,,,,,,,,
,,,,,R_9h0DU1QvkLJmnQJ,001,2025-08-14_14h31.02.523,continuous_performance_test,2024.2.4,Win32,59.88023952,39a10fb6-29f4-4a3c-b49d-a12c9752649a,5,131.748,133.295,space,1,0.3361,,0,14,14,20,1,U,space,,,,,,,,,,
,,,,,R_9h0DU1QvkLJmnQJ,001,2025-08-14_14h31.02.523,continuous_performance_test,2024.2.4,Win32,59.88023952,39a10fb6-29f4-4a3c-b49d-a12c9752649a,5,133.2974,135.0451,space,1,0.5012,,0,15,15,8,1,I,space,,,,,,,,,,
,,,,,R_9h0DU1QvkLJmnQJ,001,2025-08-14_14h31.02.523,continuous_performance_test,2024.2.4,Win32,59.88023952,39a10fb6-29f4-4a3c-b49d-a12c9752649a,5,135.0472,136.845,space,0,0.3165,,0,16,16,28,1,X,,,,,,,,,,,
,,,,,R_9h0DU1QvkLJmnQJ,001,2025-08-14_14h31.02.523,continuous_performance_test,2024.2.4,Win32,59.88023952,39a10fb6-29f4-4a3c-b49d-a12c9752649a,5,136.8471,138.7947,space,1,0.4647,,0,17,17,24,1,Z,space,,,,,,,,,,
,,,,,R_9h0DU1QvkLJmnQJ,001,2025-08-14_14h31.02.523,continuous_performance_test,2024.2.4,Win32,59.88023952,39a10fb6-29f4-4a3c-b49d-a12c9752649a,5,138.7952,140.595,space,1,0.5309,,0,18,18,19,1,T,space,,,,,,,,,,
,,,,,R_9h0DU1QvkLJmnQJ,001,2025-08-14_14h31.02.523,continuous_performance_test,2024.2.4,Win32,59.88023952,39a10fb6-29f4-4a3c-b49d-a12c9752649a,5,140.5967,142.2446,space,1,0.4339,,0,19,19,6,1,G,space,,,,,,,,,,
,,,,,R_9h0DU1QvkLJmnQJ,001,2025-08-14_14h31.02.523,continuous_performance_test,2024.2.4,Win32,59.88023952,39a10fb6-29f4-4a3c-b49d-a12c9752649a,5,142.2454,144.0447,space,1,0.3404,,0,20,20,7,1,H,space,,,,,,,,,,
,,,,,R_9h0DU1QvkLJmnQJ,001,2025-08-14_14h31.02.523,continuous_performance_test,2024.2.4,Win32,59.88023952,39a10fb6-29f4-4a3c-b49d-a12c9752649a,5,144.0454,145.9451,space,1,0.3525,,0,21,21,14,1,O,space,,,,,,,,,,
,,,,,R_9h0DU1QvkLJmnQJ,001,2025-08-14_14h31.02.523,continuous_performance_test,2024.2.4,Win32,59.88023952,39a10fb6-29f4-4a3c-b49d-a12c9752649a,5,145.9478,147.7947,,1,,,0,22,22,26,1,X,,,,,,,,,,,
,,,,,R_9h0DU1QvkLJmnQJ,001,2025-08-14_14h31.02.523,continuous_performance_test,2024.2.4,Win32,59.88023952,39a10fb6-29f4-4a3c-b49d-a12c9752649a,5,147.7954,149.5453,space,1,0.465,,0,23,23,4,1,E,space,,,,,,,,,,
,,,,,R_9h0DU1QvkLJmnQJ,001,2025-08-14_14h31.02.523,continuous_performance_test,2024.2.4,Win32,59.88023952,39a10fb6-29f4-4a3c-b49d-a12c9752649a,5,149.5475,151.2448,,1,,,0,24,24,27,1,X,,,,,,,,,,,
,,,,,R_9h0DU1QvkLJmnQJ,001,2025-08-14_14h31.02.523,continuous_performance_test,2024.2.4,Win32,59.88023952,39a10fb6-29f4-4a3c-b49d-a12c9752649a,5,151.2454,152.9452,,1,,,0,25,25,25,1,X,,,,,,,,,,,
,,,,,R_9h0DU1QvkLJmnQJ,001,2025-08-14_14h31.02.523,continuous_performance_test,2024.2.4,Win32,59.88023952,39a10fb6-29f4-4a3c-b49d-a12c9752649a,5,152.9464,154.6452,,1,,,0,26,26,29,1,X,,,,,,,,,,,
,,,,,R_9h0DU1QvkLJmnQJ,001,2025-08-14_14h31.02.523,continuous_performance_test,2024.2.4,Win32,59.88023952,39a10fb6-29f4-4a3c-b49d-a12c9752649a,5,154.6475,156.3949,space,1,0.3982,,0,27,27,22,1,W,space,,,,,,,,,,
,,,,,R_9h0DU1QvkLJmnQJ,001,2025-08-14_14h31.02.523,continuous_performance_test,2024.2.4,Win32,59.88023952,39a10fb6-29f4-4a3c-b49d-a12c9752649a,5,156.3955,157.9449,space,1,0.4547,,0,28,28,21,1,V,space,,,,,,,,,,
,,,,,R_9h0DU1QvkLJmnQJ,001,2025-08-14_14h31.02.523,continuous_performance_test,2024.2.4,Win32,59.88023952,39a10fb6-29f4-4a3c-b49d-a12c9752649a,5,157.9456,159.4954,space,1,0.4987,,0,29,29,5,1,F,space,,,,,,,,,,
,,,,,R_9h0DU1QvkLJmnQJ,001,2025-08-14_14h31.02.523,continuous_performance_test,2024.2.4,Win32,59.88023952,39a10fb6-29f4-4a3c-b49d-a12c9752649a,5,171.0996,172.7456,space,1,0.9176,,0,0,0,0,1,A,space,159.4976,171.0952,space,11.5818,,,,,,
,,,,,R_9h0DU1QvkLJmnQJ,001,2025-08-14_14h31.02.523,continuous_performance_test,2024.2.4,Win32,59.88023952,39a10fb6-29f4-4a3c-b49d-a12c9752649a,5,172.7478,174.5956,,1,,,0,1,1,25,1,X,,,,,,,,,,,
,,,,,R_9h0DU1QvkLJmnQJ,001,2025-08-14_14h31.02.523,continuous_performance_test,2024.2.4,Win32,59.88023952,39a10fb6-29f4-4a3c-b49d-a12c9752649a,5,174.598,176.3956,space,1,0.4205,,0,2,2,6,1,G,space,,,,,,,,,,
,,,,,R_9h0DU1QvkLJmnQJ,001,2025-08-14_14h31.02.523,continuous_performance_test,2024.2.4,Win32,59.88023952,39a10fb6-29f4-4a3c-b49d-a12c9752649a,5,176.3979,178.3957,space,1,0.531,,0,3,3,19,1,T,space,,,,,,,,,,
,,,,,R_9h0DU1QvkLJmnQJ,001,2025-08-14_14h31.02.523,continuous_performance_test,2024.2.4,Win32,59.88023952,39a10fb6-29f4-4a3c-b49d-a12c9752649a,5,178.3978,179.9452,,1,,,0,4,4,28,1,X,,,,,,,,,,,
,,,,,R_9h0DU1QvkLJmnQJ,001,2025-08-14_14h31.02.523,continuous_performance_test,2024.2.4,Win32,59.88023952,39a10fb6-29f4-4a3c-b49d-a12c9752649a,5,179.9459,181.4956,space,1,0.4488,,0,5,5,21,1,V,space,,,,,,,,,,
,,,,,R_9h0DU1QvkLJmnQJ,001,2025-08-14_14h31.02.523,continuous_performance_test,2024.2.4,Win32,59.88023952,39a10fb6-29f4-4a3c-b49d-a12c9752649a,5,181.4983,183.1957,space,1,0.5233,,0,6,6,11,1,L,space,,,,,,,,,,
,,,,,R_9h0DU1QvkLJmnQJ,001,2025-08-14_14h31.02.523,continuous_performance_test,2024.2.4,Win32,59.88023952,39a10fb6-29f4-4a3c-b49d-a12c9752649a,5,183.198,185.0453,space,1,0.4491,,0,7,7,18,1,S,space,,,,,,,,,,
,,,,,R_9h0DU1QvkLJmnQJ,001,2025-08-14_14h31.02.523,continuous_performance_test,2024.2.4,Win32,59.88023952,39a10fb6-29f4-4a3c-b49d-a12c9752649a,5,185.046,186.8453,space,1,0.5557,,0,8,8,14,1,O,space,,,,,,,,,,
,,,,,R_9h0DU1QvkLJmnQJ,001,2025-08-14_14h31.02.523,continuous_performance_test,2024.2.4,Win32,59.88023952,39a10fb6-29f4-4a3c-b49d-a12c9752649a,5,186.846,188.4459,space,1,0.506,,0,9,9,16,1,Q,space,,,,,,,,,,
,,,,,R_9h0DU1QvkLJmnQJ,001,2025-08-14_14h31.02.523,continuous_performance_test,2024.2.4,Win32,59.88023952,39a10fb6-29f4-4a3c-b49d-a12c9752649a,5,188.4483,190.2458,,0,,,0,10,10,24,1,Z,space,,,,,,,,,,
,,,,,R_9h0DU1QvkLJmnQJ,001,2025-08-14_14h31.02.523,continuous_performance_test,2024.2.4,Win32,59.88023952,39a10fb6-29f4-4a3c-b49d-a12c9752649a,5,190.248,192.1453,space,1,0.3997,,0,11,11,9,1,J,space,,,,,,,,,,
,,,,,R_9h0DU1QvkLJmnQJ,001,2025-08-14_14h31.02.523,continuous_performance_test,2024.2.4,Win32,59.88023952,39a10fb6-29f4-4a3c-b49d-a12c9752649a,5,192.1461,193.9455,space,1,0.3997,,0,12,12,20,1,U,space,,,,,,,,,,
,,,,,R_9h0DU1QvkLJmnQJ,001,2025-08-14_14h31.02.523,continuous_performance_test,2024.2.4,Win32,59.88023952,39a10fb6-29f4-4a3c-b49d-a12c9752649a,5,193.9462,195.9458,space,1,0.3904,,0,13,13,23,1,Y,space,,,,,,,,,,
,,,,,R_9h0DU1QvkLJmnQJ,001,2025-08-14_14h31.02.523,continuous_performance_test,2024.2.4,Win32,59.88023952,39a10fb6-29f4-4a3c-b49d-a12c9752649a,5,195.9465,197.4956,space,1,0.4494,,0,14,14,22,1,W,space,,,,,,,,,,
,,,,,R_9h0DU1QvkLJmnQJ,001,2025-08-14_14h31.02.523,continuous_performance_test,2024.2.4,Win32,59.88023952,39a10fb6-29f4-4a3c-b49d-a12c9752649a,5,197.4967,199.1458,space,1,0.3971,,0,15,15,2,1,C,space,,,,,,,,,,
,,,,,R_9h0DU1QvkLJmnQJ,001,2025-08-14_14h31.02.523,continuous_performance_test,2024.2.4,Win32,59.88023952,39a10fb6-29f4-4a3c-b49d-a12c9752649a,5,199.1481,200.9956,space,1,0.4701,,0,16,16,15,1,P,space,,,,,,,,,,
,,,,,R_9h0DU1QvkLJmnQJ,001,2025-08-14_14h31.02.523,continuous_performance_test,2024.2.4,Win32,59.88023952,39a10fb6-29f4-4a3c-b49d-a12c9752649a,5,200.9962,202.7456,space,1,0.8522,,0,17,17,10,1,K,space,,,,,,,,,,
,,,,,R_9h0DU1QvkLJmnQJ,001,2025-08-14_14h31.02.523,continuous_performance_test,2024.2.4,Win32,59.88023952,39a10fb6-29f4-4a3c-b49d-a12c9752649a,5,202.7462,204.2961,space,1,0.3542,,0,18,18,3,1,D,space,,,,,,,,,,
,,,,,R_9h0DU1QvkLJmnQJ,001,2025-08-14_14h31.02.523,continuous_performance_test,2024.2.4,Win32,59.88023952,39a10fb6-29f4-4a3c-b49d-a12c9752649a,5,204.2981,206.2961,space,1,0.4242,,0,19,19,12,1,M,space,,,,,,,,,,
,,,,,R_9h0DU1QvkLJmnQJ,001,2025-08-14_14h31.02.523,continuous_performance_test,2024.2.4,Win32,59.88023952,39a10fb6-29f4-4a3c-b49d-a12c9752649a,5,206.2981,207.8456,,1,,,0,20,20,26,1,X,,,,,,,,,,,
,,,,,R_9h0DU1QvkLJmnQJ,001,2025-08-14_14h31.02.523,continuous_performance_test,2024.2.4,Win32,59.88023952,39a10fb6-29f4-4a3c-b49d-a12c9752649a,5,207.8462,209.6461,,1,,,0,21,21,27,1,X,,,,,,,,,,,
,,,,,R_9h0DU1QvkLJmnQJ,001,2025-08-14_14h31.02.523,continuous_performance_test,2024.2.4,Win32,59.88023952,39a10fb6-29f4-4a3c-b49d-a12c9752649a,5,209.6481,211.3456,space,1,0.5408,,0,22,22,4,1,E,space,,,,,,,,,,
,,,,,R_9h0DU1QvkLJmnQJ,001,2025-08-14_14h31.02.523,continuous_performance_test,2024.2.4,Win32,59.88023952,39a10fb6-29f4-4a3c-b49d-a12c9752649a,5,211.3463,213.1456,space,1,0.4138,,0,23,23,17,1,R,space,,,,,,,,,,
,,,,,R_9h0DU1QvkLJmnQJ,001,2025-08-14_14h31.02.523,continuous_performance_test,2024.2.4,Win32,59.88023952,39a10fb6-29f4-4a3c-b49d-a12c9752649a,5,213.1468,214.8962,space,1,0.3678,,0,24,24,1,1,B,space,,,,,,,,,,
,,,,,R_9h0DU1QvkLJmnQJ,001,2025-08-14_14h31.02.523,continuous_performance_test,2024.2.4,Win32,59.88023952,39a10fb6-29f4-4a3c-b49d-a12c9752649a,5,214.8984,216.5462,space,1,0.4392,,0,25,25,5,1,F,space,,,,,,,,,,
,,,,,R_9h0DU1QvkLJmnQJ,001,2025-08-14_14h31.02.523,continuous_performance_test,2024.2.4,Win32,59.88023952,39a10fb6-29f4-4a3c-b49d-a12c9752649a,5,216.5482,218.0958,,1,,,0,26,26,29,1,X,,,,,,,,,,,
,,,,,R_9h0DU1QvkLJmnQJ,001,2025-08-14_14h31.02.523,continuous_performance_test,2024.2.4,Win32,59.88023952,39a10fb6-29f4-4a3c-b49d-a12c9752649a,5,218.0964,219.8461,space,1,0.5509,,0,27,27,8,1,I,space,,,,,,,,,,
,,,,,R_9h0DU1QvkLJmnQJ,001,2025-08-14_14h31.02.523,continuous_performance_test,2024.2.4,Win32,59.88023952,39a10fb6-29f4-4a3c-b49d-a12c9752649a,5,219.8482,221.3958,space,1,0.5557,,0,28,28,13,1,N,space,,,,,,,,,,
,,,,,R_9h0DU1QvkLJmnQJ,001,2025-08-14_14h31.02.523,continuous_performance_test,2024.2.4,Win32,59.88023952,39a10fb6-29f4-4a3c-b49d-a12c9752649a,5,221.3966,223.0962,space,1,0.6998,,0,29,29,7,1,H,space,,,,,,,,,,
,,,,,R_9h0DU1QvkLJmnQJ,001,2025-08-14_14h31.02.523,continuous_performance_test,2024.2.4,Win32,59.88023952,39a10fb6-29f4-4a3c-b49d-a12c9752649a,5,231.3171,233.0126,space,1,0.5513,,0,0,0,2,1,C,space,223.0985,231.3125,space,8.2012,,,,,,
,,,,,R_9h0DU1QvkLJmnQJ,001,2025-08-14_14h31.02.523,continuous_performance_test,2024.2.4,Win32,59.88023952,39a10fb6-29f4-4a3c-b49d-a12c9752649a,5,233.0132,235.0131,space,0,0.4151,,0,1,1,27,1,X,,,,,,,,,,,
,,,,,R_9h0DU1QvkLJmnQJ,001,2025-08-14_14h31.02.523,continuous_performance_test,2024.2.4,Win32,59.88023952,39a10fb6-29f4-4a3c-b49d-a12c9752649a,5,235.0145,236.963,,1,,,0,2,2,26,1,X,,,,,,,,,,,
,,,,,R_9h0DU1QvkLJmnQJ,001,2025-08-14_14h31.02.523,continuous_performance_test,2024.2.4,Win32,59.88023952,39a10fb6-29f4-4a3c-b49d-a12c9752649a,5,236.965,238.5631,space,1,0.4396,,0,3,3,23,1,Y,space,,,,,,,,,,
,,,,,R_9h0DU1QvkLJmnQJ,001,2025-08-14_14h31.02.523,continuous_performance_test,2024.2.4,Win32,59.88023952,39a10fb6-29f4-4a3c-b49d-a12c9752649a,5,238.5651,240.5131,space,1,0.3855,,0,4,4,24,1,Z,space,,,,,,,,,,
,,,,,R_9h0DU1QvkLJmnQJ,001,2025-08-14_14h31.02.523,continuous_performance_test,2024.2.4,Win32,59.88023952,39a10fb6-29f4-4a3c-b49d-a12c9752649a,5,240.5152,242.4126,space,1,0.5378,,0,5,5,9,1,J,space,,,,,,,,,,
,,,,,R_9h0DU1QvkLJmnQJ,001,2025-08-14_14h31.02.523,continuous_performance_test,2024.2.4,Win32,59.88023952,39a10fb6-29f4-4a3c-b49d-a12c9752649a,5,242.4133,244.0132,space,1,0.6316,,0,6,6,12,1,M,space,,,,,,,,,,
,,,,,R_9h0DU1QvkLJmnQJ,001,2025-08-14_14h31.02.523,continuous_performance_test,2024.2.4,Win32,59.88023952,39a10fb6-29f4-4a3c-b49d-a12c9752649a,5,244.0153,245.7132,,1,,,0,7,7,29,1,X,,,,,,,,,,,
,,,,,R_9h0DU1QvkLJmnQJ,001,2025-08-14_14h31.02.523,continuous_performance_test,2024.2.4,Win32,59.88023952,39a10fb6-29f4-4a3c-b49d-a12c9752649a,5,245.7152,247.2633,space,1,0.5143,,0,8,8,10,1,K,space,,,,,,,,,,
,,,,,R_9h0DU1QvkLJmnQJ,001,2025-08-14_14h31.02.523,continuous_performance_test,2024.2.4,Win32,59.88023952,39a10fb6-29f4-4a3c-b49d-a12c9752649a,5,247.2653,248.9628,space,1,0.6659,,0,9,9,7,1,H,space,,,,,,,,,,
,,,,,R_9h0DU1QvkLJmnQJ,001,2025-08-14_14h31.02.523,continuous_performance_test,2024.2.4,Win32,59.88023952,39a10fb6-29f4-4a3c-b49d-a12c9752649a,5,248.9634,250.6633,space,1,0.4427,,0,10,10,20,1,U,space,,,,,,,,,,
,,,,,R_9h0DU1QvkLJmnQJ,001,2025-08-14_14h31.02.523,continuous_performance_test,2024.2.4,Win32,59.88023952,39a10fb6-29f4-4a3c-b49d-a12c9752649a,5,250.6653,252.5628,space,1,0.4297,,0,11,11,22,1,W,space,,,,,,,,,,
,,,,,R_9h0DU1QvkLJmnQJ,001,2025-08-14_14h31.02.523,continuous_performance_test,2024.2.4,Win32,59.88023952,39a10fb6-29f4-4a3c-b49d-a12c9752649a,5,252.5634,254.3133,space,1,0.7183,,0,12,12,11,1,L,space,,,,,,,,,,
,,,,,R_9h0DU1QvkLJmnQJ,001,2025-08-14_14h31.02.523,continuous_performance_test,2024.2.4,Win32,59.88023952,39a10fb6-29f4-4a3c-b49d-a12c9752649a,5,254.3152,255.9134,space,1,0.4241,,0,13,13,18,1,S,space,,,,,,,,,,
,,,,,R_9h0DU1QvkLJmnQJ,001,2025-08-14_14h31.02.523,continuous_performance_test,2024.2.4,Win32,59.88023952,39a10fb6-29f4-4a3c-b49d-a12c9752649a,5,255.9159,257.6129,space,1,0.4153,,0,14,14,1,1,B,space,,,,,,,,,,
,,,,,R_9h0DU1QvkLJmnQJ,001,2025-08-14_14h31.02.523,continuous_performance_test,2024.2.4,Win32,59.88023952,39a10fb6-29f4-4a3c-b49d-a12c9752649a,5,257.6136,259.4134,space,1,0.4549,,0,15,15,13,1,N,space,,,,,,,,,,
,,,,,R_9h0DU1QvkLJmnQJ,001,2025-08-14_14h31.02.523,continuous_performance_test,2024.2.4,Win32,59.88023952,39a10fb6-29f4-4a3c-b49d-a12c9752649a,5,259.4155,261.3134,space,1,0.5675,,0,16,16,14,1,O,space,,,,,,,,,,
,,,,,R_9h0DU1QvkLJmnQJ,001,2025-08-14_14h31.02.523,continuous_performance_test,2024.2.4,Win32,59.88023952,39a10fb6-29f4-4a3c-b49d-a12c9752649a,5,261.3156,263.0631,,1,,,0,17,17,28,1,X,,,,,,,,,,,
,,,,,R_9h0DU1QvkLJmnQJ,001,2025-08-14_14h31.02.523,continuous_performance_test,2024.2.4,Win32,59.88023952,39a10fb6-29f4-4a3c-b49d-a12c9752649a,5,263.0639,264.7629,space,1,0.4388,,0,18,18,19,1,T,space,,,,,,,,,,
,,,,,R_9h0DU1QvkLJmnQJ,001,2025-08-14_14h31.02.523,continuous_performance_test,2024.2.4,Win32,59.88023952,39a10fb6-29f4-4a3c-b49d-a12c9752649a,5,264.7635,266.3631,space,1,0.4219,,0,19,19,5,1,F,space,,,,,,,,,,
,,,,,R_9h0DU1QvkLJmnQJ,001,2025-08-14_14h31.02.523,continuous_performance_test,2024.2.4,Win32,59.88023952,39a10fb6-29f4-4a3c-b49d-a12c9752649a,5,266.3638,268.0134,space,1,0.4761,,0,20,20,0,1,A,space,,,,,,,,,,
,,,,,R_9h0DU1QvkLJmnQJ,001,2025-08-14_14h31.02.523,continuous_performance_test,2024.2.4,Win32,59.88023952,39a10fb6-29f4-4a3c-b49d-a12c9752649a,5,268.0148,269.8135,space,1,0.4178,,0,21,21,8,1,I,space,,,,,,,,,,
,,,,,R_9h0DU1QvkLJmnQJ,001,2025-08-14_14h31.02.523,continuous_performance_test,2024.2.4,Win32,59.88023952,39a10fb6-29f4-4a3c-b49d-a12c9752649a,5,269.8155,271.5632,,1,,,0,22,22,25,1,X,,,,,,,,,,,
,,,,,R_9h0DU1QvkLJmnQJ,001,2025-08-14_14h31.02.523,continuous_performance_test,2024.2.4,Win32,59.88023952,39a10fb6-29f4-4a3c-b49d-a12c9752649a,5,271.5643,273.4631,space,1,0.5649,,0,23,23,21,1,V,space,,,,,,,,,,
,,,,,R_9h0DU1QvkLJmnQJ,001,2025-08-14_14h31.02.523,continuous_performance_test,2024.2.4,Win32,59.88023952,39a10fb6-29f4-4a3c-b49d-a12c9752649a,5,273.4638,275.1132,space,1,0.363,,0,24,24,17,1,R,space,,,,,,,,,,
,,,,,R_9h0DU1QvkLJmnQJ,001,2025-08-14_14h31.02.523,continuous_performance_test,2024.2.4,Win32,59.88023952,39a10fb6-29f4-4a3c-b49d-a12c9752649a,5,275.1138,276.9635,space,1,0.4359,,0,25,25,3,1,D,space,,,,,,,,,,
,,,,,R_9h0DU1QvkLJmnQJ,001,2025-08-14_14h31.02.523,continuous_performance_test,2024.2.4,Win32,59.88023952,39a10fb6-29f4-4a3c-b49d-a12c9752649a,5,276.965,278.9131,space,1,0.4059,,0,26,26,6,1,G,space,,,,,,,,,,
,,,,,R_9h0DU1QvkLJmnQJ,001,2025-08-14_14h31.02.523,continuous_performance_test,2024.2.4,Win32,59.88023952,39a10fb6-29f4-4a3c-b49d-a12c9752649a,5,278.9138,280.7137,space,1,0.4397,,0,27,27,15,1,P,space,,,,,,,,,,
,,,,,R_9h0DU1QvkLJmnQJ,001,2025-08-14_14h31.02.523,continuous_performance_test,2024.2.4,Win32,59.88023952,39a10fb6-29f4-4a3c-b49d-a12c9752649a,5,280.7158,282.3136,space,1,0.4059,,0,28,28,4,1,E,space,,,,,,,,,,
,,,,,R_9h0DU1QvkLJmnQJ,001,2025-08-14_14h31.02.523,continuous_performance_test,2024.2.4,Win32,59.88023952,39a10fb6-29f4-4a3c-b49d-a12c9752649a,5,282.3156,284.2636,space,1,0.5698,,0,29,29,16,1,Q,space,,,,,,,,,,
,,,,,R_9h0DU1QvkLJmnQJ,001,2025-08-14_14h31.02.523,continuous_performance_test,2024.2.4,Win32,59.88023952,39a10fb6-29f4-4a3c-b49d-a12c9752649a,5,299.278,301.2301,,1,,,0,0,0,26,1,X,,284.2651,299.2639,,,,,,,,
,,,,,R_9h0DU1QvkLJmnQJ,001,2025-08-14_14h31.02.523,continuous_performance_test,2024.2.4,Win32,59.88023952,39a10fb6-29f4-4a3c-b49d-a12c9752649a,5,301.2308,302.9302,space,1,0.318,,0,1,1,3,1,D,space,,,,,,,,,,
,,,,,R_9h0DU1QvkLJmnQJ,001,2025-08-14_14h31.02.523,continuous_performance_test,2024.2.4,Win32,59.88023952,39a10fb6-29f4-4a3c-b49d-a12c9752649a,5,302.9308,304.8807,space,1,0.377,,0,2,2,4,1,E,space,,,,,,,,,,
,,,,,R_9h0DU1QvkLJmnQJ,001,2025-08-14_14h31.02.523,continuous_performance_test,2024.2.4,Win32,59.88023952,39a10fb6-29f4-4a3c-b49d-a12c9752649a,5,304.8827,306.7302,space,1,0.3587,,0,3,3,17,1,R,space,,,,,,,,,,
,,,,,R_9h0DU1QvkLJmnQJ,001,2025-08-14_14h31.02.523,continuous_performance_test,2024.2.4,Win32,59.88023952,39a10fb6-29f4-4a3c-b49d-a12c9752649a,5,306.7309,308.5303,space,1,0.4972,,0,4,4,21,1,V,space,,,,,,,,,,
,,,,,R_9h0DU1QvkLJmnQJ,001,2025-08-14_14h31.02.523,continuous_performance_test,2024.2.4,Win32,59.88023952,39a10fb6-29f4-4a3c-b49d-a12c9752649a,5,308.5311,310.2304,,1,,,0,5,5,25,1,X,,,,,,,,,,,
,,,,,R_9h0DU1QvkLJmnQJ,001,2025-08-14_14h31.02.523,continuous_performance_test,2024.2.4,Win32,59.88023952,39a10fb6-29f4-4a3c-b49d-a12c9752649a,5,310.231,311.8304,space,1,0.4723,,0,6,6,15,1,P,space,,,,,,,,,,
,,,,,R_9h0DU1QvkLJmnQJ,001,2025-08-14_14h31.02.523,continuous_performance_test,2024.2.4,Win32,59.88023952,39a10fb6-29f4-4a3c-b49d-a12c9752649a,5,311.8311,313.6803,space,1,0.4021,,0,7,7,20,1,U,space,,,,,,,,,,
,,,,,R_9h0DU1QvkLJmnQJ,001,2025-08-14_14h31.02.523,continuous_performance_test,2024.2.4,Win32,59.88023952,39a10fb6-29f4-4a3c-b49d-a12c9752649a,5,313.681,315.2303,space,1,0.4341,,0,8,8,19,1,T,space,,,,,,,,,,
,,,,,R_9h0DU1QvkLJmnQJ,001,2025-08-14_14h31.02.523,continuous_performance_test,2024.2.4,Win32,59.88023952,39a10fb6-29f4-4a3c-b49d-a12c9752649a,5,315.2309,317.1808,space,1,0.5151,,0,9,9,6,1,G,space,,,,,,,,,,
,,,,,R_9h0DU1QvkLJmnQJ,001,2025-08-14_14h31.02.523,continuous_performance_test,2024.2.4,Win32,59.88023952,39a10fb6-29f4-4a3c-b49d-a12c9752649a,5,317.1828,319.1807,space,1,0.5912,,0,10,10,10,1,K,space,,,,,,,,,,
,,,,,R_9h0DU1QvkLJmnQJ,001,2025-08-14_14h31.02.523,continuous_performance_test,2024.2.4,Win32,59.88023952,39a10fb6-29f4-4a3c-b49d-a12c9752649a,5,319.1814,321.0309,space,1,0.6036,,0,11,11,14,1,O,space,,,,,,,,,,
,,,,,R_9h0DU1QvkLJmnQJ,001,2025-08-14_14h31.02.523,continuous_performance_test,2024.2.4,Win32,59.88023952,39a10fb6-29f4-4a3c-b49d-a12c9752649a,5,321.0329,322.9809,space,1,0.4319,,0,12,12,5,1,F,space,,,,,,,,,,
,,,,,R_9h0DU1QvkLJmnQJ,001,2025-08-14_14h31.02.523,continuous_performance_test,2024.2.4,Win32,59.88023952,39a10fb6-29f4-4a3c-b49d-a12c9752649a,5,322.9832,324.7809,space,1,0.596,,0,13,13,24,1,Z,space,,,,,,,,,,
,,,,,R_9h0DU1QvkLJmnQJ,001,2025-08-14_14h31.02.523,continuous_performance_test,2024.2.4,Win32,59.88023952,39a10fb6-29f4-4a3c-b49d-a12c9752649a,5,324.7829,326.631,space,1,0.4505,,0,14,14,7,1,H,space,,,,,,,,,,
,,,,,R_9h0DU1QvkLJmnQJ,001,2025-08-14_14h31.02.523,continuous_performance_test,2024.2.4,Win32,59.88023952,39a10fb6-29f4-4a3c-b49d-a12c9752649a,5,326.633,328.331,space,1,0.389,,0,15,15,18,1,S,space,,,,,,,,,,
,,,,,R_9h0DU1QvkLJmnQJ,001,2025-08-14_14h31.02.523,continuous_performance_test,2024.2.4,Win32,59.88023952,39a10fb6-29f4-4a3c-b49d-a12c9752649a,5,328.3329,330.0305,space,1,0.3989,,0,16,16,16,1,Q,space,,,,,,,,,,
,,,,,R_9h0DU1QvkLJmnQJ,001,2025-08-14_14h31.02.523,continuous_performance_test,2024.2.4,Win32,59.88023952,39a10fb6-29f4-4a3c-b49d-a12c9752649a,5,330.0311,331.6805,space,1,0.4152,,0,17,17,9,1,J,space,,,,,,,,,,
,,,,,R_9h0DU1QvkLJmnQJ,001,2025-08-14_14h31.02.523,continuous_performance_test,2024.2.4,Win32,59.88023952,39a10fb6-29f4-4a3c-b49d-a12c9752649a,5,331.6811,333.4806,space,1,0.3485,,0,18,18,2,1,C,space,,,,,,,,,,
,,,,,R_9h0DU1QvkLJmnQJ,001,2025-08-14_14h31.02.523,continuous_performance_test,2024.2.4,Win32,59.88023952,39a10fb6-29f4-4a3c-b49d-a12c9752649a,5,333.4813,335.031,space,1,0.4263,,0,19,19,11,1,L,space,,,,,,,,,,
,,,,,R_9h0DU1QvkLJmnQJ,001,2025-08-14_14h31.02.523,continuous_performance_test,2024.2.4,Win32,59.88023952,39a10fb6-29f4-4a3c-b49d-a12c9752649a,5,335.0331,336.5812,space,1,0.4485,,0,20,20,22,1,W,space,,,,,,,,,,
,,,,,R_9h0DU1QvkLJmnQJ,001,2025-08-14_14h31.02.523,continuous_performance_test,2024.2.4,Win32,59.88023952,39a10fb6-29f4-4a3c-b49d-a12c9752649a,5,336.5832,338.2807,space,1,0.4733,,0,21,21,23,1,Y,space,,,,,,,,,,
,,,,,R_9h0DU1QvkLJmnQJ,001,2025-08-14_14h31.02.523,continuous_performance_test,2024.2.4,Win32,59.88023952,39a10fb6-29f4-4a3c-b49d-a12c9752649a,5,338.2814,339.8311,,1,,,0,22,22,28,1,X,,,,,,,,,,,
,,,,,R_9h0DU1QvkLJmnQJ,001,2025-08-14_14h31.02.523,continuous_performance_test,2024.2.4,Win32,59.88023952,39a10fb6-29f4-4a3c-b49d-a12c9752649a,5,339.8326,341.7311,space,0,0.3431,,0,23,23,27,1,X,,,,,,,,,,,
,,,,,R_9h0DU1QvkLJmnQJ,001,2025-08-14_14h31.02.523,continuous_performance_test,2024.2.4,Win32,59.88023952,39a10fb6-29f4-4a3c-b49d-a12c9752649a,5,341.7332,343.6312,space,1,0.4674,,0,24,24,13,1,N,space,,,,,,,,,,
,,,,,R_9h0DU1QvkLJmnQJ,001,2025-08-14_14h31.02.523,continuous_performance_test,2024.2.4,Win32,59.88023952,39a10fb6-29f4-4a3c-b49d-a12c9752649a,5,343.6332,345.2811,space,1,0.8184,,0,25,25,8,1,I,space,,,,,,,,,,
,,,,,R_9h0DU1QvkLJmnQJ,001,2025-08-14_14h31.02.523,continuous_performance_test,2024.2.4,Win32,59.88023952,39a10fb6-29f4-4a3c-b49d-a12c9752649a,5,345.2832,346.9307,space,1,0.8316,,0,26,26,0,1,A,space,,,,,,,,,,
,,,,,R_9h0DU1QvkLJmnQJ,001,2025-08-14_14h31.02.523,continuous_performance_test,2024.2.4,Win32,59.88023952,39a10fb6-29f4-4a3c-b49d-a12c9752649a,5,346.9313,348.9308,,1,,,0,27,27,29,1,X,,,,,,,,,,,
,,,,,R_9h0DU1QvkLJmnQJ,001,2025-08-14_14h31.02.523,continuous_performance_test,2024.2.4,Win32,59.88023952,39a10fb6-29f4-4a3c-b49d-a12c9752649a,5,348.9314,350.6814,space,1,0.424,,0,28,28,1,1,B,space,,,,,,,,,,
,,,,,R_9h0DU1QvkLJmnQJ,001,2025-08-14_14h31.02.523,continuous_performance_test,2024.2.4,Win32,59.88023952,39a10fb6-29f4-4a3c-b49d-a12c9752649a,5,350.6834,352.381,space,1,0.4492,,0,29,29,12,1,M,space,,,,,,,,,,
,,,,,R_9h0DU1QvkLJmnQJ,001,2025-08-14_14h31.02.523,continuous_performance_test,2024.2.4,Win32,59.88023952,39a10fb6-29f4-4a3c-b49d-a12c9752649a,5,359.1354,360.7814,space,1,0.7656,,0,0,0,10,1,K,space,352.3816,359.1311,space,6.7314,,,,,,
,,,,,R_9h0DU1QvkLJmnQJ,001,2025-08-14_14h31.02.523,continuous_performance_test,2024.2.4,Win32,59.88023952,39a10fb6-29f4-4a3c-b49d-a12c9752649a,5,360.7834,362.3815,,1,,,0,1,1,29,1,X,,,,,,,,,,,
,,,,,R_9h0DU1QvkLJmnQJ,001,2025-08-14_14h31.02.523,continuous_performance_test,2024.2.4,Win32,59.88023952,39a10fb6-29f4-4a3c-b49d-a12c9752649a,5,362.3834,364.2315,space,1,0.6986,,0,2,2,8,1,I,space,,,,,,,,,,
,,,,,R_9h0DU1QvkLJmnQJ,001,2025-08-14_14h31.02.523,continuous_performance_test,2024.2.4,Win32,59.88023952,39a10fb6-29f4-4a3c-b49d-a12c9752649a,5,364.2335,365.9815,space,1,0.4511,,0,3,3,15,1,P,space,,,,,,,,,,
,,,,,R_9h0DU1QvkLJmnQJ,001,2025-08-14_14h31.02.523,continuous_performance_test,2024.2.4,Win32,59.88023952,39a10fb6-29f4-4a3c-b49d-a12c9752649a,5,365.9835,367.8815,space,1,0.4262,,0,4,4,14,1,O,space,,,,,,,,,,
,,,,,R_9h0DU1QvkLJmnQJ,001,2025-08-14_14h31.02.523,continuous_performance_test,2024.2.4,Win32,59.88023952,39a10fb6-29f4-4a3c-b49d-a12c9752649a,5,367.8835,369.7814,,1,,,0,5,5,28,1,X,,,,,,,,,,,
,,,,,R_9h0DU1QvkLJmnQJ,001,2025-08-14_14h31.02.523,continuous_performance_test,2024.2.4,Win32,59.88023952,39a10fb6-29f4-4a3c-b49d-a12c9752649a,5,369.7834,371.4317,space,1,0.6177,,0,6,6,22,1,W,space,,,,,,,,,,
,,,,,R_9h0DU1QvkLJmnQJ,001,2025-08-14_14h31.02.523,continuous_performance_test,2024.2.4,Win32,59.88023952,39a10fb6-29f4-4a3c-b49d-a12c9752649a,5,371.4337,373.3312,space,1,0.4698,,0,7,7,11,1,L,space,,,,,,,,,,
,,,,,R_9h0DU1QvkLJmnQJ,001,2025-08-14_14h31.02.523,continuous_performance_test,2024.2.4,Win32,59.88023952,39a10fb6-29f4-4a3c-b49d-a12c9752649a,5,373.3318,375.0318,space,1,0.4984,,0,8,8,4,1,E,space,,,,,,,,,,
,,,,,R_9h0DU1QvkLJmnQJ,001,2025-08-14_14h31.02.523,continuous_performance_test,2024.2.4,Win32,59.88023952,39a10fb6-29f4-4a3c-b49d-a12c9752649a,5,375.0338,376.6811,space,1,0.4628,,0,9,9,9,1,J,space,,,,,,,,,,
,,,,,R_9h0DU1QvkLJmnQJ,001,2025-08-14_14h31.02.523,continuous_performance_test,2024.2.4,Win32,59.88023952,39a10fb6-29f4-4a3c-b49d-a12c9752649a,5,376.6818,378.6317,,1,,,0,10,10,26,1,X,,,,,,,,,,,
,,,,,R_9h0DU1QvkLJmnQJ,001,2025-08-14_14h31.02.523,continuous_performance_test,2024.2.4,Win32,59.88023952,39a10fb6-29f4-4a3c-b49d-a12c9752649a,5,378.6336,380.3317,space,1,0.5005,,0,11,11,24,1,Z,space,,,,,,,,,,
,,,,,R_9h0DU1QvkLJmnQJ,001,2025-08-14_14h31.02.523,continuous_performance_test,2024.2.4,Win32,59.88023952,39a10fb6-29f4-4a3c-b49d-a12c9752649a,5,380.3337,382.1317,space,1,0.4198,,0,12,12,16,1,Q,space,,,,,,,,,,
,,,,,R_9h0DU1QvkLJmnQJ,001,2025-08-14_14h31.02.523,continuous_performance_test,2024.2.4,Win32,59.88023952,39a10fb6-29f4-4a3c-b49d-a12c9752649a,5,382.134,383.9818,space,1,0.4188,,0,13,13,2,1,C,space,,,,,,,,,,
,,,,,R_9h0DU1QvkLJmnQJ,001,2025-08-14_14h31.02.523,continuous_performance_test,2024.2.4,Win32,59.88023952,39a10fb6-29f4-4a3c-b49d-a12c9752649a,5,383.9838,385.7814,space,1,0.4369,,0,14,14,17,1,R,space,,,,,,,,,,
,,,,,R_9h0DU1QvkLJmnQJ,001,2025-08-14_14h31.02.523,continuous_performance_test,2024.2.4,Win32,59.88023952,39a10fb6-29f4-4a3c-b49d-a12c9752649a,5,385.782,387.6818,space,1,0.3903,,0,15,15,7,1,H,space,,,,,,,,,,
,,,,,R_9h0DU1QvkLJmnQJ,001,2025-08-14_14h31.02.523,continuous_performance_test,2024.2.4,Win32,59.88023952,39a10fb6-29f4-4a3c-b49d-a12c9752649a,5,387.6838,389.5314,,1,,,0,16,16,25,1,X,,,,,,,,,,,
,,,,,R_9h0DU1QvkLJmnQJ,001,2025-08-14_14h31.02.523,continuous_performance_test,2024.2.4,Win32,59.88023952,39a10fb6-29f4-4a3c-b49d-a12c9752649a,5,389.5322,391.4815,space,1,0.3662,,0,17,17,1,1,B,space,,,,,,,,,,
,,,,,R_9h0DU1QvkLJmnQJ,001,2025-08-14_14h31.02.523,continuous_performance_test,2024.2.4,Win32,59.88023952,39a10fb6-29f4-4a3c-b49d-a12c9752649a,5,391.4821,393.3315,space,1,0.4508,,0,18,18,6,1,G,space,,,,,,,,,,
,,,,,R_9h0DU1QvkLJmnQJ,001,2025-08-14_14h31.02.523,continuous_performance_test,2024.2.4,Win32,59.88023952,39a10fb6-29f4-4a3c-b49d-a12c9752649a,5,393.332,394.9819,space,1,0.5476,,0,19,19,19,1,T,space,,,,,,,,,,
,,,,,R_9h0DU1QvkLJmnQJ,001,2025-08-14_14h31.02.523,continuous_performance_test,2024.2.4,Win32,59.88023952,39a10fb6-29f4-4a3c-b49d-a12c9752649a,5,394.9839,396.7814,space,1,0.4681,,0,20,20,20,1,U,space,,,,,,,,,,
,,,,,R_9h0DU1QvkLJmnQJ,001,2025-08-14_14h31.02.523,continuous_performance_test,2024.2.4,Win32,59.88023952,39a10fb6-29f4-4a3c-b49d-a12c9752649a,5,396.782,398.482,space,1,0.4795,,0,21,21,3,1,D,space,,,,,,,,,,
,,,,,R_9h0DU1QvkLJmnQJ,001,2025-08-14_14h31.02.523,continuous_performance_test,2024.2.4,Win32,59.88023952,39a10fb6-29f4-4a3c-b49d-a12c9752649a,5,398.484,400.3815,space,0,0.2347,,0,22,22,27,1,X,,,,,,,,,,,
,,,,,R_9h0DU1QvkLJmnQJ,001,2025-08-14_14h31.02.523,continuous_performance_test,2024.2.4,Win32,59.88023952,39a10fb6-29f4-4a3c-b49d-a12c9752649a,5,400.3822,402.2815,space,1,0.2956,,0,23,23,23,1,Y,space,,,,,,,,,,
,,,,,R_9h0DU1QvkLJmnQJ,001,2025-08-14_14h31.02.523,continuous_performance_test,2024.2.4,Win32,59.88023952,39a10fb6-29f4-4a3c-b49d-a12c9752649a,5,402.2822,403.932,space,1,0.6637,,0,24,24,18,1,S,space,,,,,,,,,,
,,,,,R_9h0DU1QvkLJmnQJ,001,2025-08-14_14h31.02.523,continuous_performance_test,2024.2.4,Win32,59.88023952,39a10fb6-29f4-4a3c-b49d-a12c9752649a,5,403.9339,405.832,space,1,0.4648,,0,25,25,13,1,N,space,,,,,,,,,,
,,,,,R_9h0DU1QvkLJmnQJ,001,2025-08-14_14h31.02.523,continuous_performance_test,2024.2.4,Win32,59.88023952,39a10fb6-29f4-4a3c-b49d-a12c9752649a,5,405.834,407.7821,space,1,0.4185,,0,26,26,21,1,V,space,,,,,,,,,,
,,,,,R_9h0DU1QvkLJmnQJ,001,2025-08-14_14h31.02.523,continuous_performance_test,2024.2.4,Win32,59.88023952,39a10fb6-29f4-4a3c-b49d-a12c9752649a,5,407.7839,409.432,space,1,0.4403,,0,27,27,12,1,M,space,,,,,,,,,,
,,,,,R_9h0DU1QvkLJmnQJ,001,2025-08-14_14h31.02.523,continuous_performance_test,2024.2.4,Win32,59.88023952,39a10fb6-29f4-4a3c-b49d-a12c9752649a,5,409.434,411.3316,space,1,0.4959,,0,28,28,0,1,A,space,,,,,,,,,,
,,,,,R_9h0DU1QvkLJmnQJ,001,2025-08-14_14h31.02.523,continuous_performance_test,2024.2.4,Win32,59.88023952,39a10fb6-29f4-4a3c-b49d-a12c9752649a,5,411.3323,412.8822,space,1,0.5175,,0,29,29,5,1,F,space,,,,,,,,,,
,,,,,R_9h0DU1QvkLJmnQJ,001,2025-08-14_14h31.02.523,continuous_performance_test,2024.2.4,Win32,59.88023952,39a10fb6-29f4-4a3c-b49d-a12c9752649a,5,427.9011,429.5986,,0,,,0,0,0,0,1,A,space,412.8843,427.8824,,,,,,,,
,,,,,R_9h0DU1QvkLJmnQJ,001,2025-08-14_14h31.02.523,continuous_performance_test,2024.2.4,Win32,59.88023952,39a10fb6-29f4-4a3c-b49d-a12c9752649a,5,429.5993,431.1991,space,1,0.4826,,0,1,1,3,1,D,space,,,,,,,,,,
,,,,,R_9h0DU1QvkLJmnQJ,001,2025-08-14_14h31.02.523,continuous_performance_test,2024.2.4,Win32,59.88023952,39a10fb6-29f4-4a3c-b49d-a12c9752649a,5,431.2003,432.7492,space,1,0.4307,,0,2,2,17,1,R,space,,,,,,,,,,
,,,,,R_9h0DU1QvkLJmnQJ,001,2025-08-14_14h31.02.523,continuous_performance_test,2024.2.4,Win32,59.88023952,39a10fb6-29f4-4a3c-b49d-a12c9752649a,5,432.7515,434.399,space,1,0.4124,,0,3,3,16,1,Q,space,,,,,,,,,,
,,,,,R_9h0DU1QvkLJmnQJ,001,2025-08-14_14h31.02.523,continuous_performance_test,2024.2.4,Win32,59.88023952,39a10fb6-29f4-4a3c-b49d-a12c9752649a,5,434.4012,436.3991,space,1,0.4344,,0,4,4,21,1,V,space,,,,,,,,,,
,,,,,R_9h0DU1QvkLJmnQJ,001,2025-08-14_14h31.02.523,continuous_performance_test,2024.2.4,Win32,59.88023952,39a10fb6-29f4-4a3c-b49d-a12c9752649a,5,436.4014,437.9487,space,1,0.3819,,0,5,5,1,1,B,space,,,,,,,,,,
,,,,,R_9h0DU1QvkLJmnQJ,001,2025-08-14_14h31.02.523,continuous_performance_test,2024.2.4,Win32,59.88023952,39a10fb6-29f4-4a3c-b49d-a12c9752649a,5,437.9494,439.7992,space,1,0.4319,,0,6,6,2,1,C,space,,,,,,,,,,
,,,,,R_9h0DU1QvkLJmnQJ,001,2025-08-14_14h31.02.523,continuous_performance_test,2024.2.4,Win32,59.88023952,39a10fb6-29f4-4a3c-b49d-a12c9752649a,5,439.8013,441.7986,space,1,0.6411,,0,7,7,5,1,F,space,,,,,,,,,,
,,,,,R_9h0DU1QvkLJmnQJ,001,2025-08-14_14h31.02.523,continuous_performance_test,2024.2.4,Win32,59.88023952,39a10fb6-29f4-4a3c-b49d-a12c9752649a,5,441.7993,443.7492,space,1,0.4124,,0,8,8,9,1,J,space,,,,,,,,,,
,,,,,R_9h0DU1QvkLJmnQJ,001,2025-08-14_14h31.02.523,continuous_performance_test,2024.2.4,Win32,59.88023952,39a10fb6-29f4-4a3c-b49d-a12c9752649a,5,443.7513,445.3989,space,1,0.484,,0,9,9,23,1,Y,space,,,,,,,,,,
,,,,,R_9h0DU1QvkLJmnQJ,001,2025-08-14_14h31.02.523,continuous_performance_test,2024.2.4,Win32,59.88023952,39a10fb6-29f4-4a3c-b49d-a12c9752649a,5,445.3995,447.3488,space,1,0.4321,,0,10,10,24,1,Z,space,,,,,,,,,,
,,,,,R_9h0DU1QvkLJmnQJ,001,2025-08-14_14h31.02.523,continuous_performance_test,2024.2.4,Win32,59.88023952,39a10fb6-29f4-4a3c-b49d-a12c9752649a,5,447.3495,448.9989,,1,,,0,11,11,28,1,X,,,,,,,,,,,
,,,,,R_9h0DU1QvkLJmnQJ,001,2025-08-14_14h31.02.523,continuous_performance_test,2024.2.4,Win32,59.88023952,39a10fb6-29f4-4a3c-b49d-a12c9752649a,5,448.9996,450.5488,space,1,0.4628,,0,12,12,11,1,L,space,,,,,,,,,,
,,,,,R_9h0DU1QvkLJmnQJ,001,2025-08-14_14h31.02.523,continuous_performance_test,2024.2.4,Win32,59.88023952,39a10fb6-29f4-4a3c-b49d-a12c9752649a,5,450.5494,452.2994,space,1,0.3979,,0,13,13,19,1,T,space,,,,,,,,,,
,,,,,R_9h0DU1QvkLJmnQJ,001,2025-08-14_14h31.02.523,continuous_performance_test,2024.2.4,Win32,59.88023952,39a10fb6-29f4-4a3c-b49d-a12c9752649a,5,452.3013,454.0489,space,1,0.4144,,0,14,14,6,1,G,space,,,,,,,,,,
,,,,,R_9h0DU1QvkLJmnQJ,001,2025-08-14_14h31.02.523,continuous_performance_test,2024.2.4,Win32,59.88023952,39a10fb6-29f4-4a3c-b49d-a12c9752649a,5,454.0496,455.5994,space,1,0.4987,,0,15,15,8,1,I,space,,,,,,,,,,
,,,,,R_9h0DU1QvkLJmnQJ,001,2025-08-14_14h31.02.523,continuous_performance_test,2024.2.4,Win32,59.88023952,39a10fb6-29f4-4a3c-b49d-a12c9752649a,5,455.6013,457.2989,space,0,0.3169,,0,16,16,25,1,X,,,,,,,,,,,
,,,,,R_9h0DU1QvkLJmnQJ,001,2025-08-14_14h31.02.523,continuous_performance_test,2024.2.4,Win32,59.88023952,39a10fb6-29f4-4a3c-b49d-a12c9752649a,5,457.2995,459.1993,space,1,0.5321,,0,17,17,10,1,K,space,,,,,,,,,,
,,,,,R_9h0DU1QvkLJmnQJ,001,2025-08-14_14h31.02.523,continuous_performance_test,2024.2.4,Win32,59.88023952,39a10fb6-29f4-4a3c-b49d-a12c9752649a,5,459.2017,460.749,space,1,0.6154,,0,18,18,13,1,N,space,,,,,,,,,,
,,,,,R_9h0DU1QvkLJmnQJ,001,2025-08-14_14h31.02.523,continuous_performance_test,2024.2.4,Win32,59.88023952,39a10fb6-29f4-4a3c-b49d-a12c9752649a,5,460.7496,462.3994,space,1,0.57,,0,19,19,12,1,M,space,,,,,,,,,,
,,,,,R_9h0DU1QvkLJmnQJ,001,2025-08-14_14h31.02.523,continuous_performance_test,2024.2.4,Win32,59.88023952,39a10fb6-29f4-4a3c-b49d-a12c9752649a,5,462.4014,464.0495,space,1,0.4163,,0,20,20,14,1,O,space,,,,,,,,,,
,,,,,R_9h0DU1QvkLJmnQJ,001,2025-08-14_14h31.02.523,continuous_performance_test,2024.2.4,Win32,59.88023952,39a10fb6-29f4-4a3c-b49d-a12c9752649a,5,464.0514,465.5994,space,1,0.598,,0,21,21,22,1,W,space,,,,,,,,,,
,,,,,R_9h0DU1QvkLJmnQJ,001,2025-08-14_14h31.02.523,continuous_performance_test,2024.2.4,Win32,59.88023952,39a10fb6-29f4-4a3c-b49d-a12c9752649a,5,465.6009,467.1991,space,1,0.4156,,0,22,22,4,1,E,space,,,,,,,,,,
,,,,,R_9h0DU1QvkLJmnQJ,001,2025-08-14_14h31.02.523,continuous_performance_test,2024.2.4,Win32,59.88023952,39a10fb6-29f4-4a3c-b49d-a12c9752649a,5,467.1998,469.049,,1,,,0,23,23,26,1,X,,,,,,,,,,,
,,,,,R_9h0DU1QvkLJmnQJ,001,2025-08-14_14h31.02.523,continuous_performance_test,2024.2.4,Win32,59.88023952,39a10fb6-29f4-4a3c-b49d-a12c9752649a,5,469.0497,470.9995,space,1,0.4331,,0,24,24,7,1,H,space,,,,,,,,,,
,,,,,R_9h0DU1QvkLJmnQJ,001,2025-08-14_14h31.02.523,continuous_performance_test,2024.2.4,Win32,59.88023952,39a10fb6-29f4-4a3c-b49d-a12c9752649a,5,471.0017,472.9997,,1,,,0,25,25,29,1,X,,,,,,,,,,,
,,,,,R_9h0DU1QvkLJmnQJ,001,2025-08-14_14h31.02.523,continuous_performance_test,2024.2.4,Win32,59.88023952,39a10fb6-29f4-4a3c-b49d-a12c9752649a,5,473.0015,474.9996,space,1,0.6885,,0,26,26,20,1,U,space,,,,,,,,,,
,,,,,R_9h0DU1QvkLJmnQJ,001,2025-08-14_14h31.02.523,continuous_performance_test,2024.2.4,Win32,59.88023952,39a10fb6-29f4-4a3c-b49d-a12c9752649a,5,475.0017,476.5996,space,1,0.6336,,0,27,27,15,1,P,space,,,,,,,,,,
,,,,,R_9h0DU1QvkLJmnQJ,001,2025-08-14_14h31.02.523,continuous_performance_test,2024.2.4,Win32,59.88023952,39a10fb6-29f4-4a3c-b49d-a12c9752649a,5,476.6016,478.1493,,1,,,0,28,28,27,1,X,,,,,,,,,,,
,,,,,R_9h0DU1QvkLJmnQJ,001,2025-08-14_14h31.02.523,continuous_performance_test,2024.2.4,Win32,59.88023952,39a10fb6-29f4-4a3c-b49d-a12c9752649a,5,478.15,480.0492,space,1,0.5977,,0,29,29,18,1,S,space,,,,,,,,,,
,,,,,R_9h0DU1QvkLJmnQJ,001,2025-08-14_14h31.02.523,continuous_performance_test,2024.2.4,Win32,59.88023952,39a10fb6-29f4-4a3c-b49d-a12c9752649a,5,489.2484,490.9495,space,1,0.5094,,0,0,0,14,1,O,space,480.0499,489.2332,space,9.1757,,,,,,
,,,,,R_9h0DU1QvkLJmnQJ,001,2025-08-14_14h31.02.523,continuous_performance_test,2024.2.4,Win32,59.88023952,39a10fb6-29f4-4a3c-b49d-a12c9752649a,5,490.9501,492.6494,space,1,0.464,,0,1,1,7,1,H,space,,,,,,,,,,
,,,,,R_9h0DU1QvkLJmnQJ,001,2025-08-14_14h31.02.523,continuous_performance_test,2024.2.4,Win32,59.88023952,39a10fb6-29f4-4a3c-b49d-a12c9752649a,5,492.65,494.5494,space,1,0.5215,,0,2,2,10,1,K,space,,,,,,,,,,
,,,,,R_9h0DU1QvkLJmnQJ,001,2025-08-14_14h31.02.523,continuous_performance_test,2024.2.4,Win32,59.88023952,39a10fb6-29f4-4a3c-b49d-a12c9752649a,5,494.5501,496.2995,,1,,,0,3,3,29,1,X,,,,,,,,,,,
,,,,,R_9h0DU1QvkLJmnQJ,001,2025-08-14_14h31.02.523,continuous_performance_test,2024.2.4,Win32,59.88023952,39a10fb6-29f4-4a3c-b49d-a12c9752649a,5,496.3001,498.0995,space,1,0.6379,,0,4,4,17,1,R,space,,,,,,,,,,
,,,,,R_9h0DU1QvkLJmnQJ,001,2025-08-14_14h31.02.523,continuous_performance_test,2024.2.4,Win32,59.88023952,39a10fb6-29f4-4a3c-b49d-a12c9752649a,5,498.1001,499.9999,space,1,0.5217,,0,5,5,18,1,S,space,,,,,,,,,,
,,,,,R_9h0DU1QvkLJmnQJ,001,2025-08-14_14h31.02.523,continuous_performance_test,2024.2.4,Win32,59.88023952,39a10fb6-29f4-4a3c-b49d-a12c9752649a,5,500.0018,501.6,space,1,0.5129,,0,6,6,23,1,Y,space,,,,,,,,,,
,,,,,R_9h0DU1QvkLJmnQJ,001,2025-08-14_14h31.02.523,continuous_performance_test,2024.2.4,Win32,59.88023952,39a10fb6-29f4-4a3c-b49d-a12c9752649a,5,501.6019,503.2497,space,1,0.4797,,0,7,7,1,1,B,space,,,,,,,,,,
,,,,,R_9h0DU1QvkLJmnQJ,001,2025-08-14_14h31.02.523,continuous_performance_test,2024.2.4,Win32,59.88023952,39a10fb6-29f4-4a3c-b49d-a12c9752649a,5,503.2503,504.7995,space,1,0.352,,0,8,8,16,1,Q,space,,,,,,,,,,
,,,,,R_9h0DU1QvkLJmnQJ,001,2025-08-14_14h31.02.523,continuous_performance_test,2024.2.4,Win32,59.88023952,39a10fb6-29f4-4a3c-b49d-a12c9752649a,5,504.8001,506.6001,space,1,0.4495,,0,9,9,22,1,W,space,,,,,,,,,,
,,,,,R_9h0DU1QvkLJmnQJ,001,2025-08-14_14h31.02.523,continuous_performance_test,2024.2.4,Win32,59.88023952,39a10fb6-29f4-4a3c-b49d-a12c9752649a,5,506.602,508.2997,space,1,0.435,,0,10,10,4,1,E,space,,,,,,,,,,
,,,,,R_9h0DU1QvkLJmnQJ,001,2025-08-14_14h31.02.523,continuous_performance_test,2024.2.4,Win32,59.88023952,39a10fb6-29f4-4a3c-b49d-a12c9752649a,5,508.3003,510.3001,space,1,0.4392,,0,11,11,0,1,A,space,,,,,,,,,,
,,,,,R_9h0DU1QvkLJmnQJ,001,2025-08-14_14h31.02.523,continuous_performance_test,2024.2.4,Win32,59.88023952,39a10fb6-29f4-4a3c-b49d-a12c9752649a,5,510.3021,512.2001,space,1,0.3986,,0,12,12,15,1,P,space,,,,,,,,,,
,,,,,R_9h0DU1QvkLJmnQJ,001,2025-08-14_14h31.02.523,continuous_performance_test,2024.2.4,Win32,59.88023952,39a10fb6-29f4-4a3c-b49d-a12c9752649a,5,512.2021,513.9997,space,1,0.7497,,0,13,13,24,1,Z,space,,,,,,,,,,
,,,,,R_9h0DU1QvkLJmnQJ,001,2025-08-14_14h31.02.523,continuous_performance_test,2024.2.4,Win32,59.88023952,39a10fb6-29f4-4a3c-b49d-a12c9752649a,5,514.0004,515.6999,space,1,0.5476,,0,14,14,6,1,G,space,,,,,,,,,,
,,,,,R_9h0DU1QvkLJmnQJ,001,2025-08-14_14h31.02.523,continuous_performance_test,2024.2.4,Win32,59.88023952,39a10fb6-29f4-4a3c-b49d-a12c9752649a,5,515.7004,517.6002,space,1,0.4577,,0,15,15,13,1,N,space,,,,,,,,,,
,,,,,R_9h0DU1QvkLJmnQJ,001,2025-08-14_14h31.02.523,continuous_performance_test,2024.2.4,Win32,59.88023952,39a10fb6-29f4-4a3c-b49d-a12c9752649a,5,517.6022,519.35,space,1,0.3888,,0,16,16,3,1,D,space,,,,,,,,,,
,,,,,R_9h0DU1QvkLJmnQJ,001,2025-08-14_14h31.02.523,continuous_performance_test,2024.2.4,Win32,59.88023952,39a10fb6-29f4-4a3c-b49d-a12c9752649a,5,519.3512,520.9503,space,1,0.3534,,0,17,17,11,1,L,space,,,,,,,,,,
,,,,,R_9h0DU1QvkLJmnQJ,001,2025-08-14_14h31.02.523,continuous_performance_test,2024.2.4,Win32,59.88023952,39a10fb6-29f4-4a3c-b49d-a12c9752649a,5,520.9524,522.9004,space,1,0.3149,,0,18,18,5,1,F,space,,,,,,,,,,
,,,,,R_9h0DU1QvkLJmnQJ,001,2025-08-14_14h31.02.523,continuous_performance_test,2024.2.4,Win32,59.88023952,39a10fb6-29f4-4a3c-b49d-a12c9752649a,5,522.9027,524.4997,,1,,,0,19,19,27,1,X,,,,,,,,,,,
,,,,,R_9h0DU1QvkLJmnQJ,001,2025-08-14_14h31.02.523,continuous_performance_test,2024.2.4,Win32,59.88023952,39a10fb6-29f4-4a3c-b49d-a12c9752649a,5,524.5005,526.1498,space,1,0.3244,,0,20,20,21,1,V,space,,,,,,,,,,
,,,,,R_9h0DU1QvkLJmnQJ,001,2025-08-14_14h31.02.523,continuous_performance_test,2024.2.4,Win32,59.88023952,39a10fb6-29f4-4a3c-b49d-a12c9752649a,5,526.1506,527.9499,,1,,,0,21,21,26,1,X,,,,,,,,,,,
,,,,,R_9h0DU1QvkLJmnQJ,001,2025-08-14_14h31.02.523,continuous_performance_test,2024.2.4,Win32,59.88023952,39a10fb6-29f4-4a3c-b49d-a12c9752649a,5,527.9506,529.5504,space,1,0.4145,,0,22,22,20,1,U,space,,,,,,,,,,
,,,,,R_9h0DU1QvkLJmnQJ,001,2025-08-14_14h31.02.523,continuous_performance_test,2024.2.4,Win32,59.88023952,39a10fb6-29f4-4a3c-b49d-a12c9752649a,5,529.5525,531.1504,space,1,0.4321,,0,23,23,19,1,T,space,,,,,,,,,,
,,,,,R_9h0DU1QvkLJmnQJ,001,2025-08-14_14h31.02.523,continuous_performance_test,2024.2.4,Win32,59.88023952,39a10fb6-29f4-4a3c-b49d-a12c9752649a,5,531.1523,533.1499,,1,,,0,24,24,25,1,X,,,,,,,,,,,
,,,,,R_9h0DU1QvkLJmnQJ,001,2025-08-14_14h31.02.523,continuous_performance_test,2024.2.4,Win32,59.88023952,39a10fb6-29f4-4a3c-b49d-a12c9752649a,5,533.1506,534.7504,space,1,0.4323,,0,25,25,9,1,J,space,,,,,,,,,,
,,,,,R_9h0DU1QvkLJmnQJ,001,2025-08-14_14h31.02.523,continuous_performance_test,2024.2.4,Win32,59.88023952,39a10fb6-29f4-4a3c-b49d-a12c9752649a,5,534.7524,536.5001,space,1,0.45,,0,26,26,12,1,M,space,,,,,,,,,,
,,,,,R_9h0DU1QvkLJmnQJ,001,2025-08-14_14h31.02.523,continuous_performance_test,2024.2.4,Win32,59.88023952,39a10fb6-29f4-4a3c-b49d-a12c9752649a,5,536.5007,538.3001,,1,,,0,27,27,28,1,X,,,,,,,,,,,
,,,,,R_9h0DU1QvkLJmnQJ,001,2025-08-14_14h31.02.523,continuous_performance_test,2024.2.4,Win32,59.88023952,39a10fb6-29f4-4a3c-b49d-a12c9752649a,5,538.3007,540.1505,space,1,0.6044,,0,28,28,8,1,I,space,,,,,,,,,,
,,,,,R_9h0DU1QvkLJmnQJ,001,2025-08-14_14h31.02.523,continuous_performance_test,2024.2.4,Win32,59.88023952,39a10fb6-29f4-4a3c-b49d-a12c9752649a,5,540.1525,542.1505,space,1,0.4842,,0,29,29,2,1,C,space,,,,,,,,,,
,,,,,R_9h0DU1QvkLJmnQJ,001,2025-08-14_14h31.02.523,continuous_performance_test,2024.2.4,Win32,59.88023952,39a10fb6-29f4-4a3c-b49d-a12c9752649a,5,554.3382,556.3341,space,1,0.4668,,0,0,0,22,1,W,space,542.1528,554.3337,space,12.1651,,,,,,
,,,,,R_9h0DU1QvkLJmnQJ,001,2025-08-14_14h31.02.523,continuous_performance_test,2024.2.4,Win32,59.88023952,39a10fb6-29f4-4a3c-b49d-a12c9752649a,5,556.3361,558.0841,space,1,0.4986,,0,1,1,2,1,C,space,,,,,,,,,,
,,,,,R_9h0DU1QvkLJmnQJ,001,2025-08-14_14h31.02.523,continuous_performance_test,2024.2.4,Win32,59.88023952,39a10fb6-29f4-4a3c-b49d-a12c9752649a,5,558.086,559.6337,space,1,0.5741,,0,2,2,10,1,K,space,,,,,,,,,,
,,,,,R_9h0DU1QvkLJmnQJ,001,2025-08-14_14h31.02.523,continuous_performance_test,2024.2.4,Win32,59.88023952,39a10fb6-29f4-4a3c-b49d-a12c9752649a,5,559.6343,561.6341,space,1,0.3742,,0,3,3,3,1,D,space,,,,,,,,,,
,,,,,R_9h0DU1QvkLJmnQJ,001,2025-08-14_14h31.02.523,continuous_performance_test,2024.2.4,Win32,59.88023952,39a10fb6-29f4-4a3c-b49d-a12c9752649a,5,561.6361,563.1838,space,1,0.4404,,0,4,4,4,1,E,space,,,,,,,,,,
,,,,,R_9h0DU1QvkLJmnQJ,001,2025-08-14_14h31.02.523,continuous_performance_test,2024.2.4,Win32,59.88023952,39a10fb6-29f4-4a3c-b49d-a12c9752649a,5,563.1844,565.0842,space,1,0.5552,,0,5,5,7,1,H,space,,,,,,,,,,
,,,,,R_9h0DU1QvkLJmnQJ,001,2025-08-14_14h31.02.523,continuous_performance_test,2024.2.4,Win32,59.88023952,39a10fb6-29f4-4a3c-b49d-a12c9752649a,5,565.0862,567.0343,space,1,0.4555,,0,6,6,21,1,V,space,,,,,,,,,,
,,,,,R_9h0DU1QvkLJmnQJ,001,2025-08-14_14h31.02.523,continuous_performance_test,2024.2.4,Win32,59.88023952,39a10fb6-29f4-4a3c-b49d-a12c9752649a,5,567.0362,568.8339,space,1,0.4407,,0,7,7,17,1,R,space,,,,,,,,,,
,,,,,R_9h0DU1QvkLJmnQJ,001,2025-08-14_14h31.02.523,continuous_performance_test,2024.2.4,Win32,59.88023952,39a10fb6-29f4-4a3c-b49d-a12c9752649a,5,568.8344,570.5343,,1,,,0,8,8,27,1,X,,,,,,,,,,,
,,,,,R_9h0DU1QvkLJmnQJ,001,2025-08-14_14h31.02.523,continuous_performance_test,2024.2.4,Win32,59.88023952,39a10fb6-29f4-4a3c-b49d-a12c9752649a,5,570.5363,572.3343,space,1,0.495,,0,9,9,16,1,Q,space,,,,,,,,,,
,,,,,R_9h0DU1QvkLJmnQJ,001,2025-08-14_14h31.02.523,continuous_performance_test,2024.2.4,Win32,59.88023952,39a10fb6-29f4-4a3c-b49d-a12c9752649a,5,572.3367,574.1839,space,1,0.408,,0,10,10,11,1,L,space,,,,,,,,,,
,,,,,R_9h0DU1QvkLJmnQJ,001,2025-08-14_14h31.02.523,continuous_performance_test,2024.2.4,Win32,59.88023952,39a10fb6-29f4-4a3c-b49d-a12c9752649a,5,574.1846,575.934,space,1,0.3656,,0,11,11,13,1,N,space,,,,,,,,,,
,,,,,R_9h0DU1QvkLJmnQJ,001,2025-08-14_14h31.02.523,continuous_performance_test,2024.2.4,Win32,59.88023952,39a10fb6-29f4-4a3c-b49d-a12c9752649a,5,575.9345,577.8344,space,1,0.4706,,0,12,12,19,1,T,space,,,,,,,,,,
,,,,,R_9h0DU1QvkLJmnQJ,001,2025-08-14_14h31.02.523,continuous_performance_test,2024.2.4,Win32,59.88023952,39a10fb6-29f4-4a3c-b49d-a12c9752649a,5,577.8355,579.4339,,1,,,0,13,13,29,1,X,,,,,,,,,,,
,,,,,R_9h0DU1QvkLJmnQJ,001,2025-08-14_14h31.02.523,continuous_performance_test,2024.2.4,Win32,59.88023952,39a10fb6-29f4-4a3c-b49d-a12c9752649a,5,579.4347,581.184,space,1,0.3161,,0,14,14,15,1,P,space,,,,,,,,,,
,,,,,R_9h0DU1QvkLJmnQJ,001,2025-08-14_14h31.02.523,continuous_performance_test,2024.2.4,Win32,59.88023952,39a10fb6-29f4-4a3c-b49d-a12c9752649a,5,581.1846,583.0844,space,1,0.4626,,0,15,15,8,1,I,space,,,,,,,,,,
,,,,,R_9h0DU1QvkLJmnQJ,001,2025-08-14_14h31.02.523,continuous_performance_test,2024.2.4,Win32,59.88023952,39a10fb6-29f4-4a3c-b49d-a12c9752649a,5,583.0866,584.8845,space,1,0.4154,,0,16,16,5,1,F,space,,,,,,,,,,
,,,,,R_9h0DU1QvkLJmnQJ,001,2025-08-14_14h31.02.523,continuous_performance_test,2024.2.4,Win32,59.88023952,39a10fb6-29f4-4a3c-b49d-a12c9752649a,5,584.8864,586.6345,space,1,0.582,,0,17,17,14,1,O,space,,,,,,,,,,
,,,,,R_9h0DU1QvkLJmnQJ,001,2025-08-14_14h31.02.523,continuous_performance_test,2024.2.4,Win32,59.88023952,39a10fb6-29f4-4a3c-b49d-a12c9752649a,5,586.6366,588.184,space,1,0.4497,,0,18,18,12,1,M,space,,,,,,,,,,
,,,,,R_9h0DU1QvkLJmnQJ,001,2025-08-14_14h31.02.523,continuous_performance_test,2024.2.4,Win32,59.88023952,39a10fb6-29f4-4a3c-b49d-a12c9752649a,5,588.1847,589.8345,space,1,0.5488,,0,19,19,6,1,G,space,,,,,,,,,,
,,,,,R_9h0DU1QvkLJmnQJ,001,2025-08-14_14h31.02.523,continuous_performance_test,2024.2.4,Win32,59.88023952,39a10fb6-29f4-4a3c-b49d-a12c9752649a,5,589.8364,591.8342,,1,,,0,20,20,26,1,X,,,,,,,,,,,
,,,,,R_9h0DU1QvkLJmnQJ,001,2025-08-14_14h31.02.523,continuous_performance_test,2024.2.4,Win32,59.88023952,39a10fb6-29f4-4a3c-b49d-a12c9752649a,5,591.8349,593.3842,space,1,0.5666,,0,21,21,20,1,U,space,,,,,,,,,,
,,,,,R_9h0DU1QvkLJmnQJ,001,2025-08-14_14h31.02.523,continuous_performance_test,2024.2.4,Win32,59.88023952,39a10fb6-29f4-4a3c-b49d-a12c9752649a,5,593.3848,594.9841,space,1,0.5319,,0,22,22,0,1,A,space,,,,,,,,,,
,,,,,R_9h0DU1QvkLJmnQJ,001,2025-08-14_14h31.02.523,continuous_performance_test,2024.2.4,Win32,59.88023952,39a10fb6-29f4-4a3c-b49d-a12c9752649a,5,594.9849,596.6841,,1,,,0,23,23,28,1,X,,,,,,,,,,,
,,,,,R_9h0DU1QvkLJmnQJ,001,2025-08-14_14h31.02.523,continuous_performance_test,2024.2.4,Win32,59.88023952,39a10fb6-29f4-4a3c-b49d-a12c9752649a,5,596.6847,598.2346,space,1,0.4546,,0,24,24,24,1,Z,space,,,,,,,,,,
,,,,,R_9h0DU1QvkLJmnQJ,001,2025-08-14_14h31.02.523,continuous_performance_test,2024.2.4,Win32,59.88023952,39a10fb6-29f4-4a3c-b49d-a12c9752649a,5,598.2375,599.8842,space,1,0.5265,,0,25,25,23,1,Y,space,,,,,,,,,,
,,,,,R_9h0DU1QvkLJmnQJ,001,2025-08-14_14h31.02.523,continuous_performance_test,2024.2.4,Win32,59.88023952,39a10fb6-29f4-4a3c-b49d-a12c9752649a,5,599.8848,601.4346,space,1,0.5123,,0,26,26,1,1,B,space,,,,,,,,,,
,,,,,R_9h0DU1QvkLJmnQJ,001,2025-08-14_14h31.02.523,continuous_performance_test,2024.2.4,Win32,59.88023952,39a10fb6-29f4-4a3c-b49d-a12c9752649a,5,601.4367,602.9847,space,1,0.4878,,0,27,27,9,1,J,space,,,,,,,,,,
,,,,,R_9h0DU1QvkLJmnQJ,001,2025-08-14_14h31.02.523,continuous_performance_test,2024.2.4,Win32,59.88023952,39a10fb6-29f4-4a3c-b49d-a12c9752649a,5,602.9867,604.7843,,1,,,0,28,28,25,1,X,,,,,,,,,,,
,,,,,R_9h0DU1QvkLJmnQJ,001,2025-08-14_14h31.02.523,continuous_performance_test,2024.2.4,Win32,59.88023952,39a10fb6-29f4-4a3c-b49d-a12c9752649a,5,604.7849,606.5842,space,1,0.3698,,0,29,29,18,1,S,space,,,,,,,,,,
,,,,,R_9h0DU1QvkLJmnQJ,001,2025-08-14_14h31.02.523,continuous_performance_test,2024.2.4,Win32,59.88023952,39a10fb6-29f4-4a3c-b49d-a12c9752649a,5,621.5914,623.5846,,0,,,0,0,0,13,1,N,space,606.5848,621.585,,,,,,,,
,,,,,R_9h0DU1QvkLJmnQJ,001,2025-08-14_14h31.02.523,continuous_performance_test,2024.2.4,Win32,59.88023952,39a10fb6-29f4-4a3c-b49d-a12c9752649a,5,623.5852,625.2351,,0,,,0,1,1,8,1,I,space,,,,,,,,,,
,,,,,R_9h0DU1QvkLJmnQJ,001,2025-08-14_14h31.02.523,continuous_performance_test,2024.2.4,Win32,59.88023952,39a10fb6-29f4-4a3c-b49d-a12c9752649a,5,625.2371,627.1851,space,1,0.4603,,0,2,2,20,1,U,space,,,,,,,,,,
,,,,,R_9h0DU1QvkLJmnQJ,001,2025-08-14_14h31.02.523,continuous_performance_test,2024.2.4,Win32,59.88023952,39a10fb6-29f4-4a3c-b49d-a12c9752649a,5,627.1876,628.9351,space,1,0.4157,,0,3,3,21,1,V,space,,,,,,,,,,
,,,,,R_9h0DU1QvkLJmnQJ,001,2025-08-14_14h31.02.523,continuous_performance_test,2024.2.4,Win32,59.88023952,39a10fb6-29f4-4a3c-b49d-a12c9752649a,5,628.9371,630.7346,space,1,0.4807,,0,4,4,23,1,Y,space,,,,,,,,,,
,,,,,R_9h0DU1QvkLJmnQJ,001,2025-08-14_14h31.02.523,continuous_performance_test,2024.2.4,Win32,59.88023952,39a10fb6-29f4-4a3c-b49d-a12c9752649a,5,630.7352,632.4347,,1,,,0,5,5,29,1,X,,,,,,,,,,,
,,,,,R_9h0DU1QvkLJmnQJ,001,2025-08-14_14h31.02.523,continuous_performance_test,2024.2.4,Win32,59.88023952,39a10fb6-29f4-4a3c-b49d-a12c9752649a,5,632.4352,634.4349,space,1,0.3016,,0,6,6,16,1,Q,space,,,,,,,,,,
,,,,,R_9h0DU1QvkLJmnQJ,001,2025-08-14_14h31.02.523,continuous_performance_test,2024.2.4,Win32,59.88023952,39a10fb6-29f4-4a3c-b49d-a12c9752649a,5,634.4364,635.9852,space,1,0.3632,,0,7,7,18,1,S,space,,,,,,,,,,
,,,,,R_9h0DU1QvkLJmnQJ,001,2025-08-14_14h31.02.523,continuous_performance_test,2024.2.4,Win32,59.88023952,39a10fb6-29f4-4a3c-b49d-a12c9752649a,5,635.9872,637.7851,space,0,0.3337,,0,8,8,26,1,X,,,,,,,,,,,
,,,,,R_9h0DU1QvkLJmnQJ,001,2025-08-14_14h31.02.523,continuous_performance_test,2024.2.4,Win32,59.88023952,39a10fb6-29f4-4a3c-b49d-a12c9752649a,5,637.7871,639.3347,space,1,0.5321,,0,9,9,9,1,J,space,,,,,,,,,,
,,,,,R_9h0DU1QvkLJmnQJ,001,2025-08-14_14h31.02.523,continuous_performance_test,2024.2.4,Win32,59.88023952,39a10fb6-29f4-4a3c-b49d-a12c9752649a,5,639.3355,641.1851,space,1,0.5029,,0,10,10,14,1,O,space,,,,,,,,,,
,,,,,R_9h0DU1QvkLJmnQJ,001,2025-08-14_14h31.02.523,continuous_performance_test,2024.2.4,Win32,59.88023952,39a10fb6-29f4-4a3c-b49d-a12c9752649a,5,641.1872,643.1852,space,1,0.4256,,0,11,11,17,1,R,space,,,,,,,,,,
,,,,,R_9h0DU1QvkLJmnQJ,001,2025-08-14_14h31.02.523,continuous_performance_test,2024.2.4,Win32,59.88023952,39a10fb6-29f4-4a3c-b49d-a12c9752649a,5,643.1874,644.7853,space,1,0.5177,,0,12,12,0,1,A,space,,,,,,,,,,
,,,,,R_9h0DU1QvkLJmnQJ,001,2025-08-14_14h31.02.523,continuous_performance_test,2024.2.4,Win32,59.88023952,39a10fb6-29f4-4a3c-b49d-a12c9752649a,5,644.7873,646.7353,space,1,0.5989,,0,13,13,10,1,K,space,,,,,,,,,,
,,,,,R_9h0DU1QvkLJmnQJ,001,2025-08-14_14h31.02.523,continuous_performance_test,2024.2.4,Win32,59.88023952,39a10fb6-29f4-4a3c-b49d-a12c9752649a,5,646.7372,648.4853,space,1,0.4487,,0,14,14,15,1,P,space,,,,,,,,,,
,,,,,R_9h0DU1QvkLJmnQJ,001,2025-08-14_14h31.02.523,continuous_performance_test,2024.2.4,Win32,59.88023952,39a10fb6-29f4-4a3c-b49d-a12c9752649a,5,648.4874,650.4354,space,1,0.7,,0,15,15,11,1,L,space,,,,,,,,,,
,,,,,R_9h0DU1QvkLJmnQJ,001,2025-08-14_14h31.02.523,continuous_performance_test,2024.2.4,Win32,59.88023952,39a10fb6-29f4-4a3c-b49d-a12c9752649a,5,650.4376,651.9854,,1,,,0,16,16,28,1,X,,,,,,,,,,,
,,,,,R_9h0DU1QvkLJmnQJ,001,2025-08-14_14h31.02.523,continuous_performance_test,2024.2.4,Win32,59.88023952,39a10fb6-29f4-4a3c-b49d-a12c9752649a,5,651.9876,653.535,space,1,0.3554,,0,17,17,3,1,D,space,,,,,,,,,,
,,,,,R_9h0DU1QvkLJmnQJ,001,2025-08-14_14h31.02.523,continuous_performance_test,2024.2.4,Win32,59.88023952,39a10fb6-29f4-4a3c-b49d-a12c9752649a,5,653.5357,655.4854,space,1,0.6817,,0,18,18,5,1,F,space,,,,,,,,,,
,,,,,R_9h0DU1QvkLJmnQJ,001,2025-08-14_14h31.02.523,continuous_performance_test,2024.2.4,Win32,59.88023952,39a10fb6-29f4-4a3c-b49d-a12c9752649a,5,655.4875,657.2853,space,1,0.7165,,0,19,19,12,1,M,space,,,,,,,,,,
,,,,,R_9h0DU1QvkLJmnQJ,001,2025-08-14_14h31.02.523,continuous_performance_test,2024.2.4,Win32,59.88023952,39a10fb6-29f4-4a3c-b49d-a12c9752649a,5,657.2869,659.0856,space,1,0.8671,,0,20,20,4,1,E,space,,,,,,,,,,
,,,,,R_9h0DU1QvkLJmnQJ,001,2025-08-14_14h31.02.523,continuous_performance_test,2024.2.4,Win32,59.88023952,39a10fb6-29f4-4a3c-b49d-a12c9752649a,5,659.0876,661.0854,,1,,,0,21,21,25,1,X,,,,,,,,,,,
,,,,,R_9h0DU1QvkLJmnQJ,001,2025-08-14_14h31.02.523,continuous_performance_test,2024.2.4,Win32,59.88023952,39a10fb6-29f4-4a3c-b49d-a12c9752649a,5,661.087,663.0357,space,1,0.3811,,0,22,22,2,1,C,space,,,,,,,,,,
,,,,,R_9h0DU1QvkLJmnQJ,001,2025-08-14_14h31.02.523,continuous_performance_test,2024.2.4,Win32,59.88023952,39a10fb6-29f4-4a3c-b49d-a12c9752649a,5,663.0377,664.7352,space,1,0.5193,,0,23,23,1,1,B,space,,,,,,,,,,
,,,,,R_9h0DU1QvkLJmnQJ,001,2025-08-14_14h31.02.523,continuous_performance_test,2024.2.4,Win32,59.88023952,39a10fb6-29f4-4a3c-b49d-a12c9752649a,5,664.7357,666.4355,space,1,0.4677,,0,24,24,19,1,T,space,,,,,,,,,,
,,,,,R_9h0DU1QvkLJmnQJ,001,2025-08-14_14h31.02.523,continuous_performance_test,2024.2.4,Win32,59.88023952,39a10fb6-29f4-4a3c-b49d-a12c9752649a,5,666.4377,668.2354,space,1,0.4217,,0,25,25,6,1,G,space,,,,,,,,,,
,,,,,R_9h0DU1QvkLJmnQJ,001,2025-08-14_14h31.02.523,continuous_performance_test,2024.2.4,Win32,59.88023952,39a10fb6-29f4-4a3c-b49d-a12c9752649a,5,668.2369,669.7852,space,1,0.5522,,0,26,26,24,1,Z,space,,,,,,,,,,
,,,,,R_9h0DU1QvkLJmnQJ,001,2025-08-14_14h31.02.523,continuous_performance_test,2024.2.4,Win32,59.88023952,39a10fb6-29f4-4a3c-b49d-a12c9752649a,5,669.7858,671.4857,space,1,0.6679,,0,27,27,7,1,H,space,,,,,,,,,,
,,,,,R_9h0DU1QvkLJmnQJ,001,2025-08-14_14h31.02.523,continuous_performance_test,2024.2.4,Win32,59.88023952,39a10fb6-29f4-4a3c-b49d-a12c9752649a,5,671.4876,673.1853,,1,,,0,28,28,27,1,X,,,,,,,,,,,
,,,,,R_9h0DU1QvkLJmnQJ,001,2025-08-14_14h31.02.523,continuous_performance_test,2024.2.4,Win32,59.88023952,39a10fb6-29f4-4a3c-b49d-a12c9752649a,5,673.1859,674.9852,space,1,0.5149,,0,29,29,22,1,W,space,,,,,,,,,,
,,,,,R_9h0DU1QvkLJmnQJ,001,2025-08-14_14h31.02.523,continuous_performance_test,2024.2.4,Win32,59.88023952,39a10fb6-29f4-4a3c-b49d-a12c9752649a,5,,,,,,,,,,,,,,674.9858,674.9863,,,,674.9864,678.4862,space,3.4878,
