Instructions.started,Instructions.stopped,key_resp.keys,key_resp.rt,key_resp.duration,participant,session,date,expName,psychopyVersion,OS,frameRate,realeye-tester-id,realeye-tester-quality_grade,Trial_noX.started,Trial_noX.stopped,response.keys,response.corr,trials_noX.thisRepN,trials_noX.thisTrialN,trials_noX.thisN,trials_noX.thisIndex,trials_noX.ran,letter,corrAns,response.rt,response.duration,BlockBreak.started,BlockBreak.stopped,key_instruct.keys,key_instruct.rt,key_instruct.duration,End_NoX.started,End_NoX.stopped,key_resp_end_noX.keys,key_resp_end_noX.rt,key_resp_end_noX.duration
0.0004,20.6543,space,20.5826,,R_9OSAti36T2tOLoO,001,2025-08-22_10h54.27.176,continuous_performance_test,2024.2.4,Win32,59.88023952,7220dbcb-0af0-4c1c-bfd6-00400ca65028,5,,,,,,,,,,,,,,,,,,,,,,,
,,,,,R_9OSAti36T2tOLoO,001,2025-08-22_10h54.27.176,continuous_performance_test,2024.2.4,Win32,59.88023952,7220dbcb-0af0-4c1c-bfd6-00400ca65028,5,20.6749,22.273,,1,0,0,0,28,1,X,,,,,,,,,,,,,
,,,,,R_9OSAti36T2tOLoO,001,2025-08-22_10h54.27.176,continuous_performance_test,2024.2.4,Win32,59.88023952,7220dbcb-0af0-4c1c-bfd6-00400ca65028,5,22.2757,24.1754,space,1,0,1,1,1,1,B,space,0.4459,,,,,,,,,,,
,,,,,R_9OSAti36T2tOLoO,001,2025-08-22_10h54.27.176,continuous_performance_test,2024.2.4,Win32,59.88023952,7220dbcb-0af0-4c1c-bfd6-00400ca65028,5,24.1767,25.8277,space,1,0,2,2,4,1,E,space,0.4592,,,,,,,,,,,
,,,,,R_9OSAti36T2tOLoO,001,2025-08-22_10h54.27.176,continuous_performance_test,2024.2.4,Win32,59.88023952,7220dbcb-0af0-4c1c-bfd6-00400ca65028,5,25.8326,27.8309,space,1,0,3,3,9,1,J,space,0.4356,,,,,,,,,,,
,,,,,R_9OSAti36T2tOLoO,001,2025-08-22_10h54.27.176,continuous_performance_test,2024.2.4,Win32,59.88023952,7220dbcb-0af0-4c1c-bfd6-00400ca65028,5,27.8327,29.4332,,1,0,4,4,29,1,X,,,,,,,,,,,,,
,,,,,R_9OSAti36T2tOLoO,001,2025-08-22_10h54.27.176,continuous_performance_test,2024.2.4,Win32,59.88023952,7220dbcb-0af0-4c1c-bfd6-00400ca65028,5,29.4346,31.2863,,0,0,5,5,12,1,M,space,,,,,,,,,,,,
,,,,,R_9OSAti36T2tOLoO,001,2025-08-22_10h54.27.176,continuous_performance_test,2024.2.4,Win32,59.88023952,7220dbcb-0af0-4c1c-bfd6-00400ca65028,5,31.2885,32.9392,space,0,0,6,6,25,1,X,,0.6046,,,,,,,,,,,
,,,,,R_9OSAti36T2tOLoO,001,2025-08-22_10h54.27.176,continuous_performance_test,2024.2.4,Win32,59.88023952,7220dbcb-0af0-4c1c-bfd6-00400ca65028,5,32.9418,34.7917,space,1,0,7,7,8,1,I,space,0.4744,,,,,,,,,,,
,,,,,R_9OSAti36T2tOLoO,001,2025-08-22_10h54.27.176,continuous_performance_test,2024.2.4,Win32,59.88023952,7220dbcb-0af0-4c1c-bfd6-00400ca65028,5,34.7935,36.394,space,1,0,8,8,2,1,C,space,0.4647,,,,,,,,,,,
,,,,,R_9OSAti36T2tOLoO,001,2025-08-22_10h54.27.176,continuous_performance_test,2024.2.4,Win32,59.88023952,7220dbcb-0af0-4c1c-bfd6-00400ca65028,5,36.3958,38.2971,space,1,0,9,9,16,1,Q,space,0.4686,,,,,,,,,,,
,,,,,R_9OSAti36T2tOLoO,001,2025-08-22_10h54.27.176,continuous_performance_test,2024.2.4,Win32,59.88023952,7220dbcb-0af0-4c1c-bfd6-00400ca65028,5,38.3029,40.1999,space,1,0,10,10,13,1,N,space,0.4386,,,,,,,,,,,
,,,,,R_9OSAti36T2tOLoO,001,2025-08-22_10h54.27.176,continuous_performance_test,2024.2.4,Win32,59.88023952,7220dbcb-0af0-4c1c-bfd6-00400ca65028,5,40.2015,41.7522,space,1,0,11,11,24,1,Z,space,0.4471,,,,,,,,,,,
,,,,,R_9OSAti36T2tOLoO,001,2025-08-22_10h54.27.176,continuous_performance_test,2024.2.4,Win32,59.88023952,7220dbcb-0af0-4c1c-bfd6-00400ca65028,5,41.7537,43.6565,space,1,0,12,12,22,1,W,space,0.4214,,,,,,,,,,,
,,,,,R_9OSAti36T2tOLoO,001,2025-08-22_10h54.27.176,continuous_performance_test,2024.2.4,Win32,59.88023952,7220dbcb-0af0-4c1c-bfd6-00400ca65028,5,43.6587,45.458,space,1,0,13,13,19,1,T,space,0.2921,,,,,,,,,,,
,,,,,R_9OSAti36T2tOLoO,001,2025-08-22_10h54.27.176,continuous_performance_test,2024.2.4,Win32,59.88023952,7220dbcb-0af0-4c1c-bfd6-00400ca65028,5,45.4595,47.0606,space,1,0,14,14,20,1,U,space,0.2516,,,,,,,,,,,
,,,,,R_9OSAti36T2tOLoO,001,2025-08-22_10h54.27.176,continuous_performance_test,2024.2.4,Win32,59.88023952,7220dbcb-0af0-4c1c-bfd6-00400ca65028,5,47.0618,49.0638,space,1,0,15,15,5,1,F,space,0.4822,,,,,,,,,,,
,,,,,R_9OSAti36T2tOLoO,001,2025-08-22_10h54.27.176,continuous_performance_test,2024.2.4,Win32,59.88023952,7220dbcb-0af0-4c1c-bfd6-00400ca65028,5,49.0655,50.9164,space,1,0,16,16,18,1,S,space,0.4345,,,,,,,,,,,
,,,,,R_9OSAti36T2tOLoO,001,2025-08-22_10h54.27.176,continuous_performance_test,2024.2.4,Win32,59.88023952,7220dbcb-0af0-4c1c-bfd6-00400ca65028,5,50.918,52.7192,space,1,0,17,17,7,1,H,space,0.4088,,,,,,,,,,,
,,,,,R_9OSAti36T2tOLoO,001,2025-08-22_10h54.27.176,continuous_performance_test,2024.2.4,Win32,59.88023952,7220dbcb-0af0-4c1c-bfd6-00400ca65028,5,52.7205,54.5227,space,0,0,18,18,26,1,X,,0.2692,,,,,,,,,,,
,,,,,R_9OSAti36T2tOLoO,001,2025-08-22_10h54.27.176,continuous_performance_test,2024.2.4,Win32,59.88023952,7220dbcb-0af0-4c1c-bfd6-00400ca65028,5,54.5242,56.5259,space,1,0,19,19,10,1,K,space,0.2787,,,,,,,,,,,
,,,,,R_9OSAti36T2tOLoO,001,2025-08-22_10h54.27.176,continuous_performance_test,2024.2.4,Win32,59.88023952,7220dbcb-0af0-4c1c-bfd6-00400ca65028,5,56.5274,58.428,space,1,0,20,20,21,1,V,space,0.301,,,,,,,,,,,
,,,,,R_9OSAti36T2tOLoO,001,2025-08-22_10h54.27.176,continuous_performance_test,2024.2.4,Win32,59.88023952,7220dbcb-0af0-4c1c-bfd6-00400ca65028,5,58.4293,60.1809,space,1,0,21,21,11,1,L,space,0.2966,,,,,,,,,,,
,,,,,R_9OSAti36T2tOLoO,001,2025-08-22_10h54.27.176,continuous_performance_test,2024.2.4,Win32,59.88023952,7220dbcb-0af0-4c1c-bfd6-00400ca65028,5,60.1824,61.7333,space,0,0,22,22,27,1,X,,0.2823,,,,,,,,,,,
,,,,,R_9OSAti36T2tOLoO,001,2025-08-22_10h54.27.176,continuous_performance_test,2024.2.4,Win32,59.88023952,7220dbcb-0af0-4c1c-bfd6-00400ca65028,5,61.7348,63.4358,space,1,0,23,23,15,1,P,space,0.5785,,,,,,,,,,,
,,,,,R_9OSAti36T2tOLoO,001,2025-08-22_10h54.27.176,continuous_performance_test,2024.2.4,Win32,59.88023952,7220dbcb-0af0-4c1c-bfd6-00400ca65028,5,63.437,65.0386,space,1,0,24,24,23,1,Y,space,0.48,,,,,,,,,,,
,,,,,R_9OSAti36T2tOLoO,001,2025-08-22_10h54.27.176,continuous_performance_test,2024.2.4,Win32,59.88023952,7220dbcb-0af0-4c1c-bfd6-00400ca65028,5,65.04,66.9413,space,1,0,25,25,6,1,G,space,0.262,,,,,,,,,,,
,,,,,R_9OSAti36T2tOLoO,001,2025-08-22_10h54.27.176,continuous_performance_test,2024.2.4,Win32,59.88023952,7220dbcb-0af0-4c1c-bfd6-00400ca65028,5,66.9426,68.4936,space,1,0,26,26,3,1,D,space,0.2766,,,,,,,,,,,
,,,,,R_9OSAti36T2tOLoO,001,2025-08-22_10h54.27.176,continuous_performance_test,2024.2.4,Win32,59.88023952,7220dbcb-0af0-4c1c-bfd6-00400ca65028,5,68.4949,70.0459,space,1,0,27,27,17,1,R,space,0.3117,,,,,,,,,,,
,,,,,R_9OSAti36T2tOLoO,001,2025-08-22_10h54.27.176,continuous_performance_test,2024.2.4,Win32,59.88023952,7220dbcb-0af0-4c1c-bfd6-00400ca65028,5,70.0478,71.6985,space,1,0,28,28,14,1,O,space,0.4529,,,,,,,,,,,
,,,,,R_9OSAti36T2tOLoO,001,2025-08-22_10h54.27.176,continuous_performance_test,2024.2.4,Win32,59.88023952,7220dbcb-0af0-4c1c-bfd6-00400ca65028,5,71.7,73.6012,space,1,0,29,29,0,1,A,space,0.485,,,,,,,,,,,
,,,,,R_9OSAti36T2tOLoO,001,2025-08-22_10h54.27.176,continuous_performance_test,2024.2.4,Win32,59.88023952,7220dbcb-0af0-4c1c-bfd6-00400ca65028,5,79.5883,81.5802,space,1,0,0,0,5,1,F,space,0.5138,,73.6016,79.5775,space,5.9557,,,,,,
,,,,,R_9OSAti36T2tOLoO,001,2025-08-22_10h54.27.176,continuous_performance_test,2024.2.4,Win32,59.88023952,7220dbcb-0af0-4c1c-bfd6-00400ca65028,5,81.5813,83.1327,space,1,0,1,1,21,1,V,space,0.3088,,,,,,,,,,,
,,,,,R_9OSAti36T2tOLoO,001,2025-08-22_10h54.27.176,continuous_performance_test,2024.2.4,Win32,59.88023952,7220dbcb-0af0-4c1c-bfd6-00400ca65028,5,83.1339,84.6852,space,1,0,2,2,12,1,M,space,0.4557,,,,,,,,,,,
,,,,,R_9OSAti36T2tOLoO,001,2025-08-22_10h54.27.176,continuous_performance_test,2024.2.4,Win32,59.88023952,7220dbcb-0af0-4c1c-bfd6-00400ca65028,5,84.6866,86.3376,space,0,0,3,3,29,1,X,,0.2736,,,,,,,,,,,
,,,,,R_9OSAti36T2tOLoO,001,2025-08-22_10h54.27.176,continuous_performance_test,2024.2.4,Win32,59.88023952,7220dbcb-0af0-4c1c-bfd6-00400ca65028,5,86.339,88.0905,space,1,0,4,4,16,1,Q,space,0.5198,,,,,,,,,,,
,,,,,R_9OSAti36T2tOLoO,001,2025-08-22_10h54.27.176,continuous_performance_test,2024.2.4,Win32,59.88023952,7220dbcb-0af0-4c1c-bfd6-00400ca65028,5,88.0918,89.8431,space,1,0,5,5,19,1,T,space,0.4836,,,,,,,,,,,
,,,,,R_9OSAti36T2tOLoO,001,2025-08-22_10h54.27.176,continuous_performance_test,2024.2.4,Win32,59.88023952,7220dbcb-0af0-4c1c-bfd6-00400ca65028,5,89.8441,91.796,space,1,0,6,6,1,1,B,space,0.2709,,,,,,,,,,,
,,,,,R_9OSAti36T2tOLoO,001,2025-08-22_10h54.27.176,continuous_performance_test,2024.2.4,Win32,59.88023952,7220dbcb-0af0-4c1c-bfd6-00400ca65028,5,91.797,93.6004,space,1,0,7,7,2,1,C,space,0.3081,,,,,,,,,,,
,,,,,R_9OSAti36T2tOLoO,001,2025-08-22_10h54.27.176,continuous_performance_test,2024.2.4,Win32,59.88023952,7220dbcb-0af0-4c1c-bfd6-00400ca65028,5,93.6024,95.602,space,1,0,8,8,0,1,A,space,0.3046,,,,,,,,,,,
,,,,,R_9OSAti36T2tOLoO,001,2025-08-22_10h54.27.176,continuous_performance_test,2024.2.4,Win32,59.88023952,7220dbcb-0af0-4c1c-bfd6-00400ca65028,5,95.6034,97.5049,space,1,0,9,9,18,1,S,space,0.2918,,,,,,,,,,,
,,,,,R_9OSAti36T2tOLoO,001,2025-08-22_10h54.27.176,continuous_performance_test,2024.2.4,Win32,59.88023952,7220dbcb-0af0-4c1c-bfd6-00400ca65028,5,97.5065,99.5079,space,1,0,10,10,15,1,P,space,0.3042,,,,,,,,,,,
,,,,,R_9OSAti36T2tOLoO,001,2025-08-22_10h54.27.176,continuous_performance_test,2024.2.4,Win32,59.88023952,7220dbcb-0af0-4c1c-bfd6-00400ca65028,5,99.5091,101.461,space,1,0,11,11,7,1,H,space,0.2873,,,,,,,,,,,
,,,,,R_9OSAti36T2tOLoO,001,2025-08-22_10h54.27.176,continuous_performance_test,2024.2.4,Win32,59.88023952,7220dbcb-0af0-4c1c-bfd6-00400ca65028,5,101.462,103.2137,space,1,0,12,12,10,1,K,space,0.7295,,,,,,,,,,,
,,,,,R_9OSAti36T2tOLoO,001,2025-08-22_10h54.27.176,continuous_performance_test,2024.2.4,Win32,59.88023952,7220dbcb-0af0-4c1c-bfd6-00400ca65028,5,103.215,105.2167,space,1,0,13,13,22,1,W,space,0.5066,,,,,,,,,,,
,,,,,R_9OSAti36T2tOLoO,001,2025-08-22_10h54.27.176,continuous_performance_test,2024.2.4,Win32,59.88023952,7220dbcb-0af0-4c1c-bfd6-00400ca65028,5,105.2178,107.1197,space,1,0,14,14,3,1,D,space,0.3454,,,,,,,,,,,
,,,,,R_9OSAti36T2tOLoO,001,2025-08-22_10h54.27.176,continuous_performance_test,2024.2.4,Win32,59.88023952,7220dbcb-0af0-4c1c-bfd6-00400ca65028,5,107.1206,109.0727,space,1,0,15,15,8,1,I,space,0.2881,,,,,,,,,,,
,,,,,R_9OSAti36T2tOLoO,001,2025-08-22_10h54.27.176,continuous_performance_test,2024.2.4,Win32,59.88023952,7220dbcb-0af0-4c1c-bfd6-00400ca65028,5,109.0739,111.0256,space,1,0,16,16,4,1,E,space,0.3849,,,,,,,,,,,
,,,,,R_9OSAti36T2tOLoO,001,2025-08-22_10h54.27.176,continuous_performance_test,2024.2.4,Win32,59.88023952,7220dbcb-0af0-4c1c-bfd6-00400ca65028,5,111.0267,112.9785,space,1,0,17,17,6,1,G,space,0.3062,,,,,,,,,,,
,,,,,R_9OSAti36T2tOLoO,001,2025-08-22_10h54.27.176,continuous_performance_test,2024.2.4,Win32,59.88023952,7220dbcb-0af0-4c1c-bfd6-00400ca65028,5,112.9797,114.9317,space,1,0,18,18,24,1,Z,space,0.3103,,,,,,,,,,,
,,,,,R_9OSAti36T2tOLoO,001,2025-08-22_10h54.27.176,continuous_performance_test,2024.2.4,Win32,59.88023952,7220dbcb-0af0-4c1c-bfd6-00400ca65028,5,114.9327,116.8347,,1,0,19,19,27,1,X,,,,,,,,,,,,,
,,,,,R_9OSAti36T2tOLoO,001,2025-08-22_10h54.27.176,continuous_performance_test,2024.2.4,Win32,59.88023952,7220dbcb-0af0-4c1c-bfd6-00400ca65028,5,116.8359,118.6374,space,1,0,20,20,23,1,Y,space,0.2991,,,,,,,,,,,
,,,,,R_9OSAti36T2tOLoO,001,2025-08-22_10h54.27.176,continuous_performance_test,2024.2.4,Win32,59.88023952,7220dbcb-0af0-4c1c-bfd6-00400ca65028,5,118.6386,120.3401,space,1,0,21,21,20,1,U,space,0.4047,,,,,,,,,,,
,,,,,R_9OSAti36T2tOLoO,001,2025-08-22_10h54.27.176,continuous_performance_test,2024.2.4,Win32,59.88023952,7220dbcb-0af0-4c1c-bfd6-00400ca65028,5,120.3412,122.1929,space,1,0,22,22,13,1,N,space,0.5433,,,,,,,,,,,
,,,,,R_9OSAti36T2tOLoO,001,2025-08-22_10h54.27.176,continuous_performance_test,2024.2.4,Win32,59.88023952,7220dbcb-0af0-4c1c-bfd6-00400ca65028,5,122.194,123.7955,space,0,0,23,23,26,1,X,,0.4391,,,,,,,,,,,
,,,,,R_9OSAti36T2tOLoO,001,2025-08-22_10h54.27.176,continuous_performance_test,2024.2.4,Win32,59.88023952,7220dbcb-0af0-4c1c-bfd6-00400ca65028,5,123.7967,125.3977,space,1,0,24,24,9,1,J,space,0.3081,,,,,,,,,,,
,,,,,R_9OSAti36T2tOLoO,001,2025-08-22_10h54.27.176,continuous_performance_test,2024.2.4,Win32,59.88023952,7220dbcb-0af0-4c1c-bfd6-00400ca65028,5,125.3988,127.2508,space,0,0,25,25,28,1,X,,0.302,,,,,,,,,,,
,,,,,R_9OSAti36T2tOLoO,001,2025-08-22_10h54.27.176,continuous_performance_test,2024.2.4,Win32,59.88023952,7220dbcb-0af0-4c1c-bfd6-00400ca65028,5,127.2519,129.2539,space,1,0,26,26,17,1,R,space,0.4279,,,,,,,,,,,
,,,,,R_9OSAti36T2tOLoO,001,2025-08-22_10h54.27.176,continuous_performance_test,2024.2.4,Win32,59.88023952,7220dbcb-0af0-4c1c-bfd6-00400ca65028,5,129.2548,131.1067,,1,0,27,27,25,1,X,,,,,,,,,,,,,
,,,,,R_9OSAti36T2tOLoO,001,2025-08-22_10h54.27.176,continuous_performance_test,2024.2.4,Win32,59.88023952,7220dbcb-0af0-4c1c-bfd6-00400ca65028,5,131.1076,133.0596,space,1,0,28,28,11,1,L,space,0.3794,,,,,,,,,,,
,,,,,R_9OSAti36T2tOLoO,001,2025-08-22_10h54.27.176,continuous_performance_test,2024.2.4,Win32,59.88023952,7220dbcb-0af0-4c1c-bfd6-00400ca65028,5,133.061,135.0628,space,1,0,29,29,14,1,O,space,0.4179,,,,,,,,,,,
,,,,,R_9OSAti36T2tOLoO,001,2025-08-22_10h54.27.176,continuous_performance_test,2024.2.4,Win32,59.88023952,7220dbcb-0af0-4c1c-bfd6-00400ca65028,5,140.2085,141.8566,,0,0,0,0,5,1,F,space,,,135.0635,140.204,space,5.1209,,,,,,
,,,,,R_9OSAti36T2tOLoO,001,2025-08-22_10h54.27.176,continuous_performance_test,2024.2.4,Win32,59.88023952,7220dbcb-0af0-4c1c-bfd6-00400ca65028,5,141.8577,143.6096,space,1,0,1,1,20,1,U,space,0.5014,,,,,,,,,,,
,,,,,R_9OSAti36T2tOLoO,001,2025-08-22_10h54.27.176,continuous_performance_test,2024.2.4,Win32,59.88023952,7220dbcb-0af0-4c1c-bfd6-00400ca65028,5,143.6109,145.512,space,1,0,2,2,17,1,R,space,0.4368,,,,,,,,,,,
,,,,,R_9OSAti36T2tOLoO,001,2025-08-22_10h54.27.176,continuous_performance_test,2024.2.4,Win32,59.88023952,7220dbcb-0af0-4c1c-bfd6-00400ca65028,5,145.513,147.2649,,1,0,3,3,25,1,X,,,,,,,,,,,,,
,,,,,R_9OSAti36T2tOLoO,001,2025-08-22_10h54.27.176,continuous_performance_test,2024.2.4,Win32,59.88023952,7220dbcb-0af0-4c1c-bfd6-00400ca65028,5,147.2662,148.9174,space,1,0,4,4,22,1,W,space,0.486,,,,,,,,,,,
,,,,,R_9OSAti36T2tOLoO,001,2025-08-22_10h54.27.176,continuous_performance_test,2024.2.4,Win32,59.88023952,7220dbcb-0af0-4c1c-bfd6-00400ca65028,5,148.9185,150.7703,space,1,0,5,5,7,1,H,space,0.4467,,,,,,,,,,,
,,,,,R_9OSAti36T2tOLoO,001,2025-08-22_10h54.27.176,continuous_performance_test,2024.2.4,Win32,59.88023952,7220dbcb-0af0-4c1c-bfd6-00400ca65028,5,150.7714,152.6233,space,1,0,6,6,4,1,E,space,0.3423,,,,,,,,,,,
,,,,,R_9OSAti36T2tOLoO,001,2025-08-22_10h54.27.176,continuous_performance_test,2024.2.4,Win32,59.88023952,7220dbcb-0af0-4c1c-bfd6-00400ca65028,5,152.6242,154.1755,space,0,0,7,7,26,1,X,,0.3666,,,,,,,,,,,
,,,,,R_9OSAti36T2tOLoO,001,2025-08-22_10h54.27.176,continuous_performance_test,2024.2.4,Win32,59.88023952,7220dbcb-0af0-4c1c-bfd6-00400ca65028,5,154.1765,155.9783,space,1,0,8,8,0,1,A,space,0.5236,,,,,,,,,,,
,,,,,R_9OSAti36T2tOLoO,001,2025-08-22_10h54.27.176,continuous_performance_test,2024.2.4,Win32,59.88023952,7220dbcb-0af0-4c1c-bfd6-00400ca65028,5,155.9796,157.6309,space,1,0,9,9,2,1,C,space,0.4744,,,,,,,,,,,
,,,,,R_9OSAti36T2tOLoO,001,2025-08-22_10h54.27.176,continuous_performance_test,2024.2.4,Win32,59.88023952,7220dbcb-0af0-4c1c-bfd6-00400ca65028,5,157.6319,159.4838,space,1,0,10,10,14,1,O,space,0.4817,,,,,,,,,,,
,,,,,R_9OSAti36T2tOLoO,001,2025-08-22_10h54.27.176,continuous_performance_test,2024.2.4,Win32,59.88023952,7220dbcb-0af0-4c1c-bfd6-00400ca65028,5,159.4849,161.3865,space,1,0,11,11,11,1,L,space,0.5504,,,,,,,,,,,
,,,,,R_9OSAti36T2tOLoO,001,2025-08-22_10h54.27.176,continuous_performance_test,2024.2.4,Win32,59.88023952,7220dbcb-0af0-4c1c-bfd6-00400ca65028,5,161.3876,163.1895,space,1,0,12,12,6,1,G,space,0.5335,,,,,,,,,,,
,,,,,R_9OSAti36T2tOLoO,001,2025-08-22_10h54.27.176,continuous_performance_test,2024.2.4,Win32,59.88023952,7220dbcb-0af0-4c1c-bfd6-00400ca65028,5,163.1908,164.8921,space,1,0,13,13,18,1,S,space,0.4832,,,,,,,,,,,
,,,,,R_9OSAti36T2tOLoO,001,2025-08-22_10h54.27.176,continuous_performance_test,2024.2.4,Win32,59.88023952,7220dbcb-0af0-4c1c-bfd6-00400ca65028,5,164.8932,166.4442,,0,0,14,14,21,1,V,space,,,,,,,,,,,,
,,,,,R_9OSAti36T2tOLoO,001,2025-08-22_10h54.27.176,continuous_performance_test,2024.2.4,Win32,59.88023952,7220dbcb-0af0-4c1c-bfd6-00400ca65028,5,166.4453,168.0468,space,1,0,15,15,19,1,T,space,0.2656,,,,,,,,,,,
,,,,,R_9OSAti36T2tOLoO,001,2025-08-22_10h54.27.176,continuous_performance_test,2024.2.4,Win32,59.88023952,7220dbcb-0af0-4c1c-bfd6-00400ca65028,5,168.0479,170.0002,space,1,0,16,16,24,1,Z,space,0.5009,,,,,,,,,,,
,,,,,R_9OSAti36T2tOLoO,001,2025-08-22_10h54.27.176,continuous_performance_test,2024.2.4,Win32,59.88023952,7220dbcb-0af0-4c1c-bfd6-00400ca65028,5,170.0013,171.8527,space,1,0,17,17,3,1,D,space,0.6748,,,,,,,,,,,
,,,,,R_9OSAti36T2tOLoO,001,2025-08-22_10h54.27.176,continuous_performance_test,2024.2.4,Win32,59.88023952,7220dbcb-0af0-4c1c-bfd6-00400ca65028,5,171.8536,173.8558,space,1,0,18,18,16,1,Q,space,0.2691,,,,,,,,,,,
,,,,,R_9OSAti36T2tOLoO,001,2025-08-22_10h54.27.176,continuous_performance_test,2024.2.4,Win32,59.88023952,7220dbcb-0af0-4c1c-bfd6-00400ca65028,5,173.857,175.8088,space,1,0,19,19,8,1,I,space,0.5583,,,,,,,,,,,
,,,,,R_9OSAti36T2tOLoO,001,2025-08-22_10h54.27.176,continuous_performance_test,2024.2.4,Win32,59.88023952,7220dbcb-0af0-4c1c-bfd6-00400ca65028,5,175.8098,177.6116,space,1,0,20,20,9,1,J,space,0.3319,,,,,,,,,,,
,,,,,R_9OSAti36T2tOLoO,001,2025-08-22_10h54.27.176,continuous_performance_test,2024.2.4,Win32,59.88023952,7220dbcb-0af0-4c1c-bfd6-00400ca65028,5,177.613,179.3643,space,0,0,21,21,27,1,X,,0.8364,,,,,,,,,,,
,,,,,R_9OSAti36T2tOLoO,001,2025-08-22_10h54.27.176,continuous_performance_test,2024.2.4,Win32,59.88023952,7220dbcb-0af0-4c1c-bfd6-00400ca65028,5,179.3661,181.067,space,1,0,22,22,12,1,M,space,0.5253,,,,,,,,,,,
,,,,,R_9OSAti36T2tOLoO,001,2025-08-22_10h54.27.176,continuous_performance_test,2024.2.4,Win32,59.88023952,7220dbcb-0af0-4c1c-bfd6-00400ca65028,5,181.068,183.0701,space,1,0,23,23,15,1,P,space,0.4418,,,,,,,,,,,
,,,,,R_9OSAti36T2tOLoO,001,2025-08-22_10h54.27.176,continuous_performance_test,2024.2.4,Win32,59.88023952,7220dbcb-0af0-4c1c-bfd6-00400ca65028,5,183.0712,184.8729,space,1,0,24,24,23,1,Y,space,0.4088,,,,,,,,,,,
,,,,,R_9OSAti36T2tOLoO,001,2025-08-22_10h54.27.176,continuous_performance_test,2024.2.4,Win32,59.88023952,7220dbcb-0af0-4c1c-bfd6-00400ca65028,5,184.8739,186.6759,,1,0,25,25,28,1,X,,,,,,,,,,,,,
,,,,,R_9OSAti36T2tOLoO,001,2025-08-22_10h54.27.176,continuous_performance_test,2024.2.4,Win32,59.88023952,7220dbcb-0af0-4c1c-bfd6-00400ca65028,5,186.6767,188.2781,space,0,0,26,26,29,1,X,,0.361,,,,,,,,,,,
,,,,,R_9OSAti36T2tOLoO,001,2025-08-22_10h54.27.176,continuous_performance_test,2024.2.4,Win32,59.88023952,7220dbcb-0af0-4c1c-bfd6-00400ca65028,5,188.2792,190.1308,space,1,0,27,27,1,1,B,space,0.867,,,,,,,,,,,
,,,,,R_9OSAti36T2tOLoO,001,2025-08-22_10h54.27.176,continuous_performance_test,2024.2.4,Win32,59.88023952,7220dbcb-0af0-4c1c-bfd6-00400ca65028,5,190.1317,191.6834,space,1,0,28,28,10,1,K,space,0.4259,,,,,,,,,,,
,,,,,R_9OSAti36T2tOLoO,001,2025-08-22_10h54.27.176,continuous_performance_test,2024.2.4,Win32,59.88023952,7220dbcb-0af0-4c1c-bfd6-00400ca65028,5,191.6844,193.4861,space,1,0,29,29,13,1,N,space,0.4927,,,,,,,,,,,
,,,,,R_9OSAti36T2tOLoO,001,2025-08-22_10h54.27.176,continuous_performance_test,2024.2.4,Win32,59.88023952,7220dbcb-0af0-4c1c-bfd6-00400ca65028,5,198.5662,200.5636,space,1,0,0,0,22,1,W,space,0.6645,,193.4871,198.5608,space,5.0544,,,,,,
,,,,,R_9OSAti36T2tOLoO,001,2025-08-22_10h54.27.176,continuous_performance_test,2024.2.4,Win32,59.88023952,7220dbcb-0af0-4c1c-bfd6-00400ca65028,5,200.5648,202.567,space,1,0,1,1,17,1,R,space,0.406,,,,,,,,,,,
,,,,,R_9OSAti36T2tOLoO,001,2025-08-22_10h54.27.176,continuous_performance_test,2024.2.4,Win32,59.88023952,7220dbcb-0af0-4c1c-bfd6-00400ca65028,5,202.568,204.52,space,0,0,2,2,28,1,X,,0.3258,,,,,,,,,,,
,,,,,R_9OSAti36T2tOLoO,001,2025-08-22_10h54.27.176,continuous_performance_test,2024.2.4,Win32,59.88023952,7220dbcb-0af0-4c1c-bfd6-00400ca65028,5,204.521,206.3224,space,1,0,3,3,6,1,G,space,0.4484,,,,,,,,,,,
,,,,,R_9OSAti36T2tOLoO,001,2025-08-22_10h54.27.176,continuous_performance_test,2024.2.4,Win32,59.88023952,7220dbcb-0af0-4c1c-bfd6-00400ca65028,5,206.3233,208.3257,space,1,0,4,4,13,1,N,space,0.3111,,,,,,,,,,,
,,,,,R_9OSAti36T2tOLoO,001,2025-08-22_10h54.27.176,continuous_performance_test,2024.2.4,Win32,59.88023952,7220dbcb-0af0-4c1c-bfd6-00400ca65028,5,208.327,210.1784,space,1,0,5,5,20,1,U,space,0.4947,,,,,,,,,,,
,,,,,R_9OSAti36T2tOLoO,001,2025-08-22_10h54.27.176,continuous_performance_test,2024.2.4,Win32,59.88023952,7220dbcb-0af0-4c1c-bfd6-00400ca65028,5,210.1796,211.931,,1,0,6,6,27,1,X,,,,,,,,,,,,,
,,,,,R_9OSAti36T2tOLoO,001,2025-08-22_10h54.27.176,continuous_performance_test,2024.2.4,Win32,59.88023952,7220dbcb-0af0-4c1c-bfd6-00400ca65028,5,211.9319,213.5336,space,1,0,7,7,7,1,H,space,0.2662,,,,,,,,,,,
,,,,,R_9OSAti36T2tOLoO,001,2025-08-22_10h54.27.176,continuous_performance_test,2024.2.4,Win32,59.88023952,7220dbcb-0af0-4c1c-bfd6-00400ca65028,5,213.5345,215.136,space,1,0,8,8,12,1,M,space,0.3292,,,,,,,,,,,
,,,,,R_9OSAti36T2tOLoO,001,2025-08-22_10h54.27.176,continuous_performance_test,2024.2.4,Win32,59.88023952,7220dbcb-0af0-4c1c-bfd6-00400ca65028,5,215.137,216.6884,space,1,0,9,9,14,1,O,space,0.5706,,,,,,,,,,,
,,,,,R_9OSAti36T2tOLoO,001,2025-08-22_10h54.27.176,continuous_performance_test,2024.2.4,Win32,59.88023952,7220dbcb-0af0-4c1c-bfd6-00400ca65028,5,216.6895,218.6416,space,1,0,10,10,24,1,Z,space,0.377,,,,,,,,,,,
,,,,,R_9OSAti36T2tOLoO,001,2025-08-22_10h54.27.176,continuous_performance_test,2024.2.4,Win32,59.88023952,7220dbcb-0af0-4c1c-bfd6-00400ca65028,5,218.6427,220.5945,space,1,0,11,11,1,1,B,space,0.3943,,,,,,,,,,,
,,,,,R_9OSAti36T2tOLoO,001,2025-08-22_10h54.27.176,continuous_performance_test,2024.2.4,Win32,59.88023952,7220dbcb-0af0-4c1c-bfd6-00400ca65028,5,220.5954,222.2971,space,1,0,12,12,3,1,D,space,0.2882,,,,,,,,,,,
,,,,,R_9OSAti36T2tOLoO,001,2025-08-22_10h54.27.176,continuous_performance_test,2024.2.4,Win32,59.88023952,7220dbcb-0af0-4c1c-bfd6-00400ca65028,5,222.298,223.8495,space,0,0,13,13,25,1,X,,0.2941,,,,,,,,,,,
,,,,,R_9OSAti36T2tOLoO,001,2025-08-22_10h54.27.176,continuous_performance_test,2024.2.4,Win32,59.88023952,7220dbcb-0af0-4c1c-bfd6-00400ca65028,5,223.8507,225.8525,space,1,0,14,14,15,1,P,space,0.2876,,,,,,,,,,,
,,,,,R_9OSAti36T2tOLoO,001,2025-08-22_10h54.27.176,continuous_performance_test,2024.2.4,Win32,59.88023952,7220dbcb-0af0-4c1c-bfd6-00400ca65028,5,225.8535,227.6552,,1,0,15,15,26,1,X,,,,,,,,,,,,,
,,,,,R_9OSAti36T2tOLoO,001,2025-08-22_10h54.27.176,continuous_performance_test,2024.2.4,Win32,59.88023952,7220dbcb-0af0-4c1c-bfd6-00400ca65028,5,227.6563,229.2078,space,1,0,16,16,2,1,C,space,0.3301,,,,,,,,,,,
,,,,,R_9OSAti36T2tOLoO,001,2025-08-22_10h54.27.176,continuous_performance_test,2024.2.4,Win32,59.88023952,7220dbcb-0af0-4c1c-bfd6-00400ca65028,5,229.2092,231.0606,space,1,0,17,17,19,1,T,space,0.2897,,,,,,,,,,,
,,,,,R_9OSAti36T2tOLoO,001,2025-08-22_10h54.27.176,continuous_performance_test,2024.2.4,Win32,59.88023952,7220dbcb-0af0-4c1c-bfd6-00400ca65028,5,231.0617,232.9635,space,1,0,18,18,11,1,L,space,0.4278,,,,,,,,,,,
,,,,,R_9OSAti36T2tOLoO,001,2025-08-22_10h54.27.176,continuous_performance_test,2024.2.4,Win32,59.88023952,7220dbcb-0af0-4c1c-bfd6-00400ca65028,5,232.9644,234.9165,space,1,0,19,19,8,1,I,space,0.2992,,,,,,,,,,,
,,,,,R_9OSAti36T2tOLoO,001,2025-08-22_10h54.27.176,continuous_performance_test,2024.2.4,Win32,59.88023952,7220dbcb-0af0-4c1c-bfd6-00400ca65028,5,234.9175,236.8196,space,1,0,20,20,21,1,V,space,0.3193,,,,,,,,,,,
,,,,,R_9OSAti36T2tOLoO,001,2025-08-22_10h54.27.176,continuous_performance_test,2024.2.4,Win32,59.88023952,7220dbcb-0af0-4c1c-bfd6-00400ca65028,5,236.8207,238.8229,space,0,0,21,21,29,1,X,,0.2794,,,,,,,,,,,
,,,,,R_9OSAti36T2tOLoO,001,2025-08-22_10h54.27.176,continuous_performance_test,2024.2.4,Win32,59.88023952,7220dbcb-0af0-4c1c-bfd6-00400ca65028,5,238.8278,240.375,space,1,0,22,22,10,1,K,space,0.7615,,,,,,,,,,,
,,,,,R_9OSAti36T2tOLoO,001,2025-08-22_10h54.27.176,continuous_performance_test,2024.2.4,Win32,59.88023952,7220dbcb-0af0-4c1c-bfd6-00400ca65028,5,240.3761,242.0777,space,1,0,23,23,9,1,J,space,0.4081,,,,,,,,,,,
,,,,,R_9OSAti36T2tOLoO,001,2025-08-22_10h54.27.176,continuous_performance_test,2024.2.4,Win32,59.88023952,7220dbcb-0af0-4c1c-bfd6-00400ca65028,5,242.0788,243.8302,space,1,0,24,24,5,1,F,space,0.4774,,,,,,,,,,,
,,,,,R_9OSAti36T2tOLoO,001,2025-08-22_10h54.27.176,continuous_performance_test,2024.2.4,Win32,59.88023952,7220dbcb-0af0-4c1c-bfd6-00400ca65028,5,243.8313,245.4827,space,1,0,25,25,0,1,A,space,0.2833,,,,,,,,,,,
,,,,,R_9OSAti36T2tOLoO,001,2025-08-22_10h54.27.176,continuous_performance_test,2024.2.4,Win32,59.88023952,7220dbcb-0af0-4c1c-bfd6-00400ca65028,5,245.4838,247.4357,space,1,0,26,26,4,1,E,space,0.2872,,,,,,,,,,,
,,,,,R_9OSAti36T2tOLoO,001,2025-08-22_10h54.27.176,continuous_performance_test,2024.2.4,Win32,59.88023952,7220dbcb-0af0-4c1c-bfd6-00400ca65028,5,247.4368,249.3388,space,1,0,27,27,23,1,Y,space,0.3795,,,,,,,,,,,
,,,,,R_9OSAti36T2tOLoO,001,2025-08-22_10h54.27.176,continuous_performance_test,2024.2.4,Win32,59.88023952,7220dbcb-0af0-4c1c-bfd6-00400ca65028,5,249.34,251.0917,space,1,0,28,28,16,1,Q,space,0.3878,,,,,,,,,,,
,,,,,R_9OSAti36T2tOLoO,001,2025-08-22_10h54.27.176,continuous_performance_test,2024.2.4,Win32,59.88023952,7220dbcb-0af0-4c1c-bfd6-00400ca65028,5,251.0962,253.0445,space,1,0,29,29,18,1,S,space,0.3022,,,,,,,,,,,
,,,,,R_9OSAti36T2tOLoO,001,2025-08-22_10h54.27.176,continuous_performance_test,2024.2.4,Win32,59.88023952,7220dbcb-0af0-4c1c-bfd6-00400ca65028,5,261.4446,263.0932,,0,0,0,0,8,1,I,space,,,253.0454,261.4408,space,8.3809,,,,,,
,,,,,R_9OSAti36T2tOLoO,001,2025-08-22_10h54.27.176,continuous_performance_test,2024.2.4,Win32,59.88023952,7220dbcb-0af0-4c1c-bfd6-00400ca65028,5,263.094,264.9462,,1,0,1,1,29,1,X,,,,,,,,,,,,,
,,,,,R_9OSAti36T2tOLoO,001,2025-08-22_10h54.27.176,continuous_performance_test,2024.2.4,Win32,59.88023952,7220dbcb-0af0-4c1c-bfd6-00400ca65028,5,264.9471,266.8493,space,1,0,2,2,15,1,P,space,0.3617,,,,,,,,,,,
,,,,,R_9OSAti36T2tOLoO,001,2025-08-22_10h54.27.176,continuous_performance_test,2024.2.4,Win32,59.88023952,7220dbcb-0af0-4c1c-bfd6-00400ca65028,5,266.8506,268.7019,space,1,0,3,3,9,1,J,space,0.2918,,,,,,,,,,,
,,,,,R_9OSAti36T2tOLoO,001,2025-08-22_10h54.27.176,continuous_performance_test,2024.2.4,Win32,59.88023952,7220dbcb-0af0-4c1c-bfd6-00400ca65028,5,268.703,270.4547,space,1,0,4,4,2,1,C,space,0.2717,,,,,,,,,,,
,,,,,R_9OSAti36T2tOLoO,001,2025-08-22_10h54.27.176,continuous_performance_test,2024.2.4,Win32,59.88023952,7220dbcb-0af0-4c1c-bfd6-00400ca65028,5,270.4556,272.2575,space,1,0,5,5,13,1,N,space,0.2894,,,,,,,,,,,
,,,,,R_9OSAti36T2tOLoO,001,2025-08-22_10h54.27.176,continuous_performance_test,2024.2.4,Win32,59.88023952,7220dbcb-0af0-4c1c-bfd6-00400ca65028,5,272.2585,274.1604,space,1,0,6,6,4,1,E,space,0.4985,,,,,,,,,,,
,,,,,R_9OSAti36T2tOLoO,001,2025-08-22_10h54.27.176,continuous_performance_test,2024.2.4,Win32,59.88023952,7220dbcb-0af0-4c1c-bfd6-00400ca65028,5,274.1615,275.9132,space,1,0,7,7,7,1,H,space,0.2809,,,,,,,,,,,
,,,,,R_9OSAti36T2tOLoO,001,2025-08-22_10h54.27.176,continuous_performance_test,2024.2.4,Win32,59.88023952,7220dbcb-0af0-4c1c-bfd6-00400ca65028,5,275.9143,277.6157,space,1,0,8,8,19,1,T,space,0.289,,,,,,,,,,,
,,,,,R_9OSAti36T2tOLoO,001,2025-08-22_10h54.27.176,continuous_performance_test,2024.2.4,Win32,59.88023952,7220dbcb-0af0-4c1c-bfd6-00400ca65028,5,277.6169,279.4184,space,1,0,9,9,1,1,B,space,0.2659,,,,,,,,,,,
,,,,,R_9OSAti36T2tOLoO,001,2025-08-22_10h54.27.176,continuous_performance_test,2024.2.4,Win32,59.88023952,7220dbcb-0af0-4c1c-bfd6-00400ca65028,5,279.4195,281.1713,space,1,0,10,10,17,1,R,space,0.3462,,,,,,,,,,,
,,,,,R_9OSAti36T2tOLoO,001,2025-08-22_10h54.27.176,continuous_performance_test,2024.2.4,Win32,59.88023952,7220dbcb-0af0-4c1c-bfd6-00400ca65028,5,281.1723,283.0742,space,1,0,11,11,5,1,F,space,0.3101,,,,,,,,,,,
,,,,,R_9OSAti36T2tOLoO,001,2025-08-22_10h54.27.176,continuous_performance_test,2024.2.4,Win32,59.88023952,7220dbcb-0af0-4c1c-bfd6-00400ca65028,5,283.0752,284.8268,space,0,0,12,12,28,1,X,,0.2684,,,,,,,,,,,
,,,,,R_9OSAti36T2tOLoO,001,2025-08-22_10h54.27.176,continuous_performance_test,2024.2.4,Win32,59.88023952,7220dbcb-0af0-4c1c-bfd6-00400ca65028,5,284.8275,286.6298,space,1,0,13,13,24,1,Z,space,0.2755,,,,,,,,,,,
,,,,,R_9OSAti36T2tOLoO,001,2025-08-22_10h54.27.176,continuous_performance_test,2024.2.4,Win32,59.88023952,7220dbcb-0af0-4c1c-bfd6-00400ca65028,5,286.6307,288.5826,space,1,0,14,14,3,1,D,space,0.2925,,,,,,,,,,,
,,,,,R_9OSAti36T2tOLoO,001,2025-08-22_10h54.27.176,continuous_performance_test,2024.2.4,Win32,59.88023952,7220dbcb-0af0-4c1c-bfd6-00400ca65028,5,288.5836,290.185,space,1,0,15,15,16,1,Q,space,0.2835,,,,,,,,,,,
,,,,,R_9OSAti36T2tOLoO,001,2025-08-22_10h54.27.176,continuous_performance_test,2024.2.4,Win32,59.88023952,7220dbcb-0af0-4c1c-bfd6-00400ca65028,5,290.1859,292.0884,space,1,0,16,16,18,1,S,space,0.2641,,,,,,,,,,,
,,,,,R_9OSAti36T2tOLoO,001,2025-08-22_10h54.27.176,continuous_performance_test,2024.2.4,Win32,59.88023952,7220dbcb-0af0-4c1c-bfd6-00400ca65028,5,292.0895,294.041,space,1,0,17,17,10,1,K,space,0.3195,,,,,,,,,,,
,,,,,R_9OSAti36T2tOLoO,001,2025-08-22_10h54.27.176,continuous_performance_test,2024.2.4,Win32,59.88023952,7220dbcb-0af0-4c1c-bfd6-00400ca65028,5,294.042,295.7937,space,1,0,18,18,11,1,L,space,0.3635,,,,,,,,,,,
,,,,,R_9OSAti36T2tOLoO,001,2025-08-22_10h54.27.176,continuous_performance_test,2024.2.4,Win32,59.88023952,7220dbcb-0af0-4c1c-bfd6-00400ca65028,5,295.7947,297.4963,space,1,0,19,19,0,1,A,space,0.2907,,,,,,,,,,,
,,,,,R_9OSAti36T2tOLoO,001,2025-08-22_10h54.27.176,continuous_performance_test,2024.2.4,Win32,59.88023952,7220dbcb-0af0-4c1c-bfd6-00400ca65028,5,297.4975,299.4998,space,0,0,20,20,26,1,X,,0.2709,,,,,,,,,,,
,,,,,R_9OSAti36T2tOLoO,001,2025-08-22_10h54.27.176,continuous_performance_test,2024.2.4,Win32,59.88023952,7220dbcb-0af0-4c1c-bfd6-00400ca65028,5,299.5007,301.4524,space,1,0,21,21,20,1,U,space,0.3556,,,,,,,,,,,
,,,,,R_9OSAti36T2tOLoO,001,2025-08-22_10h54.27.176,continuous_performance_test,2024.2.4,Win32,59.88023952,7220dbcb-0af0-4c1c-bfd6-00400ca65028,5,301.4534,303.3054,space,1,0,22,22,23,1,Y,space,0.2483,,,,,,,,,,,
,,,,,R_9OSAti36T2tOLoO,001,2025-08-22_10h54.27.176,continuous_performance_test,2024.2.4,Win32,59.88023952,7220dbcb-0af0-4c1c-bfd6-00400ca65028,5,303.3064,304.8576,space,0,0,23,23,27,1,X,,0.2927,,,,,,,,,,,
,,,,,R_9OSAti36T2tOLoO,001,2025-08-22_10h54.27.176,continuous_performance_test,2024.2.4,Win32,59.88023952,7220dbcb-0af0-4c1c-bfd6-00400ca65028,5,304.8585,306.8108,space,1,0,24,24,12,1,M,space,0.5343,,,,,,,,,,,
,,,,,R_9OSAti36T2tOLoO,001,2025-08-22_10h54.27.176,continuous_performance_test,2024.2.4,Win32,59.88023952,7220dbcb-0af0-4c1c-bfd6-00400ca65028,5,306.8116,308.4633,space,1,0,25,25,6,1,G,space,0.452,,,,,,,,,,,
,,,,,R_9OSAti36T2tOLoO,001,2025-08-22_10h54.27.176,continuous_performance_test,2024.2.4,Win32,59.88023952,7220dbcb-0af0-4c1c-bfd6-00400ca65028,5,308.4644,310.216,space,1,0,26,26,14,1,O,space,0.4542,,,,,,,,,,,
,,,,,R_9OSAti36T2tOLoO,001,2025-08-22_10h54.27.176,continuous_performance_test,2024.2.4,Win32,59.88023952,7220dbcb-0af0-4c1c-bfd6-00400ca65028,5,310.2169,311.7682,space,1,0,27,27,22,1,W,space,0.488,,,,,,,,,,,
,,,,,R_9OSAti36T2tOLoO,001,2025-08-22_10h54.27.176,continuous_performance_test,2024.2.4,Win32,59.88023952,7220dbcb-0af0-4c1c-bfd6-00400ca65028,5,311.7692,313.4709,,1,0,28,28,25,1,X,,,,,,,,,,,,,
,,,,,R_9OSAti36T2tOLoO,001,2025-08-22_10h54.27.176,continuous_performance_test,2024.2.4,Win32,59.88023952,7220dbcb-0af0-4c1c-bfd6-00400ca65028,5,313.4719,315.0736,space,1,0,29,29,21,1,V,space,0.2541,,,,,,,,,,,
,,,,,R_9OSAti36T2tOLoO,001,2025-08-22_10h54.27.176,continuous_performance_test,2024.2.4,Win32,59.88023952,7220dbcb-0af0-4c1c-bfd6-00400ca65028,5,320.0512,321.7003,,0,0,0,0,15,1,P,space,,,315.0744,320.0477,space,4.9542,,,,,,
,,,,,R_9OSAti36T2tOLoO,001,2025-08-22_10h54.27.176,continuous_performance_test,2024.2.4,Win32,59.88023952,7220dbcb-0af0-4c1c-bfd6-00400ca65028,5,321.7012,323.7033,space,1,0,1,1,18,1,S,space,0.2893,,,,,,,,,,,
,,,,,R_9OSAti36T2tOLoO,001,2025-08-22_10h54.27.176,continuous_performance_test,2024.2.4,Win32,59.88023952,7220dbcb-0af0-4c1c-bfd6-00400ca65028,5,323.7044,325.406,space,1,0,2,2,12,1,M,space,0.5431,,,,,,,,,,,
,,,,,R_9OSAti36T2tOLoO,001,2025-08-22_10h54.27.176,continuous_performance_test,2024.2.4,Win32,59.88023952,7220dbcb-0af0-4c1c-bfd6-00400ca65028,5,325.4071,327.0086,space,1,0,3,3,1,1,B,space,0.3409,,,,,,,,,,,
,,,,,R_9OSAti36T2tOLoO,001,2025-08-22_10h54.27.176,continuous_performance_test,2024.2.4,Win32,59.88023952,7220dbcb-0af0-4c1c-bfd6-00400ca65028,5,327.0097,328.6609,space,1,0,4,4,10,1,K,space,0.2765,,,,,,,,,,,
,,,,,R_9OSAti36T2tOLoO,001,2025-08-22_10h54.27.176,continuous_performance_test,2024.2.4,Win32,59.88023952,7220dbcb-0af0-4c1c-bfd6-00400ca65028,5,328.6618,330.4638,space,1,0,5,5,3,1,D,space,0.308,,,,,,,,,,,
,,,,,R_9OSAti36T2tOLoO,001,2025-08-22_10h54.27.176,continuous_performance_test,2024.2.4,Win32,59.88023952,7220dbcb-0af0-4c1c-bfd6-00400ca65028,5,330.4648,332.1164,space,1,0,6,6,5,1,F,space,0.3053,,,,,,,,,,,
,,,,,R_9OSAti36T2tOLoO,001,2025-08-22_10h54.27.176,continuous_performance_test,2024.2.4,Win32,59.88023952,7220dbcb-0af0-4c1c-bfd6-00400ca65028,5,332.1175,334.0194,space,1,0,7,7,9,1,J,space,0.3394,,,,,,,,,,,
,,,,,R_9OSAti36T2tOLoO,001,2025-08-22_10h54.27.176,continuous_performance_test,2024.2.4,Win32,59.88023952,7220dbcb-0af0-4c1c-bfd6-00400ca65028,5,334.0203,335.9722,space,1,0,8,8,14,1,O,space,0.5167,,,,,,,,,,,
,,,,,R_9OSAti36T2tOLoO,001,2025-08-22_10h54.27.176,continuous_performance_test,2024.2.4,Win32,59.88023952,7220dbcb-0af0-4c1c-bfd6-00400ca65028,5,335.9731,337.5748,space,1,0,9,9,16,1,Q,space,0.4586,,,,,,,,,,,
,,,,,R_9OSAti36T2tOLoO,001,2025-08-22_10h54.27.176,continuous_performance_test,2024.2.4,Win32,59.88023952,7220dbcb-0af0-4c1c-bfd6-00400ca65028,5,337.5758,339.3274,space,1,0,10,10,6,1,G,space,0.3371,,,,,,,,,,,
,,,,,R_9OSAti36T2tOLoO,001,2025-08-22_10h54.27.176,continuous_performance_test,2024.2.4,Win32,59.88023952,7220dbcb-0af0-4c1c-bfd6-00400ca65028,5,339.3284,341.2805,space,1,0,11,11,21,1,V,space,0.2951,,,,,,,,,,,
,,,,,R_9OSAti36T2tOLoO,001,2025-08-22_10h54.27.176,continuous_performance_test,2024.2.4,Win32,59.88023952,7220dbcb-0af0-4c1c-bfd6-00400ca65028,5,341.2817,343.2835,space,1,0,12,12,17,1,R,space,0.2933,,,,,,,,,,,
,,,,,R_9OSAti36T2tOLoO,001,2025-08-22_10h54.27.176,continuous_performance_test,2024.2.4,Win32,59.88023952,7220dbcb-0af0-4c1c-bfd6-00400ca65028,5,343.2847,345.1865,space,1,0,13,13,0,1,A,space,0.5499,,,,,,,,,,,
,,,,,R_9OSAti36T2tOLoO,001,2025-08-22_10h54.27.176,continuous_performance_test,2024.2.4,Win32,59.88023952,7220dbcb-0af0-4c1c-bfd6-00400ca65028,5,345.1875,346.889,space,1,0,14,14,7,1,H,space,0.289,,,,,,,,,,,
,,,,,R_9OSAti36T2tOLoO,001,2025-08-22_10h54.27.176,continuous_performance_test,2024.2.4,Win32,59.88023952,7220dbcb-0af0-4c1c-bfd6-00400ca65028,5,346.8899,348.892,space,1,0,15,15,20,1,U,space,0.2722,,,,,,,,,,,
,,,,,R_9OSAti36T2tOLoO,001,2025-08-22_10h54.27.176,continuous_performance_test,2024.2.4,Win32,59.88023952,7220dbcb-0af0-4c1c-bfd6-00400ca65028,5,348.893,350.5447,space,1,0,16,16,11,1,L,space,0.3766,,,,,,,,,,,
,,,,,R_9OSAti36T2tOLoO,001,2025-08-22_10h54.27.176,continuous_performance_test,2024.2.4,Win32,59.88023952,7220dbcb-0af0-4c1c-bfd6-00400ca65028,5,350.5456,352.0971,space,1,0,17,17,19,1,T,space,0.2774,,,,,,,,,,,
,,,,,R_9OSAti36T2tOLoO,001,2025-08-22_10h54.27.176,continuous_performance_test,2024.2.4,Win32,59.88023952,7220dbcb-0af0-4c1c-bfd6-00400ca65028,5,352.0981,353.8498,space,1,0,18,18,4,1,E,space,0.2834,,,,,,,,,,,
,,,,,R_9OSAti36T2tOLoO,001,2025-08-22_10h54.27.176,continuous_performance_test,2024.2.4,Win32,59.88023952,7220dbcb-0af0-4c1c-bfd6-00400ca65028,5,353.8512,355.4038,space,1,0,19,19,8,1,I,space,0.2859,,,,,,,,,,,
,,,,,R_9OSAti36T2tOLoO,001,2025-08-22_10h54.27.176,continuous_performance_test,2024.2.4,Win32,59.88023952,7220dbcb-0af0-4c1c-bfd6-00400ca65028,5,355.4047,357.0547,space,0,0,20,20,26,1,X,,0.2702,,,,,,,,,,,
,,,,,R_9OSAti36T2tOLoO,001,2025-08-22_10h54.27.176,continuous_performance_test,2024.2.4,Win32,59.88023952,7220dbcb-0af0-4c1c-bfd6-00400ca65028,5,357.0556,359.0077,space,0,0,21,21,27,1,X,,0.2816,,,,,,,,,,,
,,,,,R_9OSAti36T2tOLoO,001,2025-08-22_10h54.27.176,continuous_performance_test,2024.2.4,Win32,59.88023952,7220dbcb-0af0-4c1c-bfd6-00400ca65028,5,359.0087,360.7605,space,1,0,22,22,13,1,N,space,0.4515,,,,,,,,,,,
,,,,,R_9OSAti36T2tOLoO,001,2025-08-22_10h54.27.176,continuous_performance_test,2024.2.4,Win32,59.88023952,7220dbcb-0af0-4c1c-bfd6-00400ca65028,5,360.7615,362.6633,space,0,0,23,23,28,1,X,,0.2828,,,,,,,,,,,
,,,,,R_9OSAti36T2tOLoO,001,2025-08-22_10h54.27.176,continuous_performance_test,2024.2.4,Win32,59.88023952,7220dbcb-0af0-4c1c-bfd6-00400ca65028,5,362.6642,364.266,space,1,0,24,24,2,1,C,space,0.3877,,,,,,,,,,,
,,,,,R_9OSAti36T2tOLoO,001,2025-08-22_10h54.27.176,continuous_performance_test,2024.2.4,Win32,59.88023952,7220dbcb-0af0-4c1c-bfd6-00400ca65028,5,364.2672,366.1689,space,1,0,25,25,22,1,W,space,0.2732,,,,,,,,,,,
,,,,,R_9OSAti36T2tOLoO,001,2025-08-22_10h54.27.176,continuous_performance_test,2024.2.4,Win32,59.88023952,7220dbcb-0af0-4c1c-bfd6-00400ca65028,5,366.1701,368.0218,space,1,0,26,26,23,1,Y,space,0.2828,,,,,,,,,,,
,,,,,R_9OSAti36T2tOLoO,001,2025-08-22_10h54.27.176,continuous_performance_test,2024.2.4,Win32,59.88023952,7220dbcb-0af0-4c1c-bfd6-00400ca65028,5,368.0229,369.6241,space,0,0,27,27,25,1,X,,0.2849,,,,,,,,,,,
,,,,,R_9OSAti36T2tOLoO,001,2025-08-22_10h54.27.176,continuous_performance_test,2024.2.4,Win32,59.88023952,7220dbcb-0af0-4c1c-bfd6-00400ca65028,5,369.6249,371.3767,,1,0,28,28,29,1,X,,,,,,,,,,,,,
,,,,,R_9OSAti36T2tOLoO,001,2025-08-22_10h54.27.176,continuous_performance_test,2024.2.4,Win32,59.88023952,7220dbcb-0af0-4c1c-bfd6-00400ca65028,5,371.3778,373.1797,space,1,0,29,29,24,1,Z,space,0.4217,,,,,,,,,,,
,,,,,R_9OSAti36T2tOLoO,001,2025-08-22_10h54.27.176,continuous_performance_test,2024.2.4,Win32,59.88023952,7220dbcb-0af0-4c1c-bfd6-00400ca65028,5,379.1101,381.0584,space,1,0,0,0,5,1,F,space,0.8691,,373.1808,379.1058,space,5.9067,,,,,,
,,,,,R_9OSAti36T2tOLoO,001,2025-08-22_10h54.27.176,continuous_performance_test,2024.2.4,Win32,59.88023952,7220dbcb-0af0-4c1c-bfd6-00400ca65028,5,381.0596,382.6608,,1,0,1,1,26,1,X,,,,,,,,,,,,,
,,,,,R_9OSAti36T2tOLoO,001,2025-08-22_10h54.27.176,continuous_performance_test,2024.2.4,Win32,59.88023952,7220dbcb-0af0-4c1c-bfd6-00400ca65028,5,382.6618,384.4637,space,1,0,2,2,24,1,Z,space,0.3825,,,,,,,,,,,
,,,,,R_9OSAti36T2tOLoO,001,2025-08-22_10h54.27.176,continuous_performance_test,2024.2.4,Win32,59.88023952,7220dbcb-0af0-4c1c-bfd6-00400ca65028,5,384.4647,386.4168,space,1,0,3,3,14,1,O,space,0.46,,,,,,,,,,,
,,,,,R_9OSAti36T2tOLoO,001,2025-08-22_10h54.27.176,continuous_performance_test,2024.2.4,Win32,59.88023952,7220dbcb-0af0-4c1c-bfd6-00400ca65028,5,386.4177,388.0693,space,1,0,4,4,20,1,U,space,0.4657,,,,,,,,,,,
,,,,,R_9OSAti36T2tOLoO,001,2025-08-22_10h54.27.176,continuous_performance_test,2024.2.4,Win32,59.88023952,7220dbcb-0af0-4c1c-bfd6-00400ca65028,5,388.0703,390.0722,space,1,0,5,5,16,1,Q,space,0.4443,,,,,,,,,,,
,,,,,R_9OSAti36T2tOLoO,001,2025-08-22_10h54.27.176,continuous_performance_test,2024.2.4,Win32,59.88023952,7220dbcb-0af0-4c1c-bfd6-00400ca65028,5,390.0733,391.7248,space,1,0,6,6,23,1,Y,space,0.4595,,,,,,,,,,,
,,,,,R_9OSAti36T2tOLoO,001,2025-08-22_10h54.27.176,continuous_performance_test,2024.2.4,Win32,59.88023952,7220dbcb-0af0-4c1c-bfd6-00400ca65028,5,391.7257,393.5276,,1,0,7,7,29,1,X,,,,,,,,,,,,,
,,,,,R_9OSAti36T2tOLoO,001,2025-08-22_10h54.27.176,continuous_performance_test,2024.2.4,Win32,59.88023952,7220dbcb-0af0-4c1c-bfd6-00400ca65028,5,393.5286,395.4307,space,1,0,8,8,13,1,N,space,0.2929,,,,,,,,,,,
,,,,,R_9OSAti36T2tOLoO,001,2025-08-22_10h54.27.176,continuous_performance_test,2024.2.4,Win32,59.88023952,7220dbcb-0af0-4c1c-bfd6-00400ca65028,5,395.4318,397.0329,space,1,0,9,9,4,1,E,space,0.3511,,,,,,,,,,,
,,,,,R_9OSAti36T2tOLoO,001,2025-08-22_10h54.27.176,continuous_performance_test,2024.2.4,Win32,59.88023952,7220dbcb-0af0-4c1c-bfd6-00400ca65028,5,397.0341,398.9862,space,1,0,10,10,15,1,P,space,0.3432,,,,,,,,,,,
,,,,,R_9OSAti36T2tOLoO,001,2025-08-22_10h54.27.176,continuous_performance_test,2024.2.4,Win32,59.88023952,7220dbcb-0af0-4c1c-bfd6-00400ca65028,5,398.9872,400.939,space,1,0,11,11,6,1,G,space,0.2567,,,,,,,,,,,
,,,,,R_9OSAti36T2tOLoO,001,2025-08-22_10h54.27.176,continuous_performance_test,2024.2.4,Win32,59.88023952,7220dbcb-0af0-4c1c-bfd6-00400ca65028,5,400.9399,402.5415,space,1,0,12,12,0,1,A,space,0.3105,,,,,,,,,,,
,,,,,R_9OSAti36T2tOLoO,001,2025-08-22_10h54.27.176,continuous_performance_test,2024.2.4,Win32,59.88023952,7220dbcb-0af0-4c1c-bfd6-00400ca65028,5,402.5425,404.5444,space,1,0,13,13,19,1,T,space,0.45,,,,,,,,,,,
,,,,,R_9OSAti36T2tOLoO,001,2025-08-22_10h54.27.176,continuous_performance_test,2024.2.4,Win32,59.88023952,7220dbcb-0af0-4c1c-bfd6-00400ca65028,5,404.5453,406.2472,space,1,0,14,14,18,1,S,space,0.4017,,,,,,,,,,,
,,,,,R_9OSAti36T2tOLoO,001,2025-08-22_10h54.27.176,continuous_performance_test,2024.2.4,Win32,59.88023952,7220dbcb-0af0-4c1c-bfd6-00400ca65028,5,406.2485,408.2505,space,1,0,15,15,7,1,H,space,0.5173,,,,,,,,,,,
,,,,,R_9OSAti36T2tOLoO,001,2025-08-22_10h54.27.176,continuous_performance_test,2024.2.4,Win32,59.88023952,7220dbcb-0af0-4c1c-bfd6-00400ca65028,5,408.2516,410.1031,space,1,0,16,16,17,1,R,space,0.4406,,,,,,,,,,,
,,,,,R_9OSAti36T2tOLoO,001,2025-08-22_10h54.27.176,continuous_performance_test,2024.2.4,Win32,59.88023952,7220dbcb-0af0-4c1c-bfd6-00400ca65028,5,410.104,411.7056,space,1,0,17,17,12,1,M,space,0.291,,,,,,,,,,,
,,,,,R_9OSAti36T2tOLoO,001,2025-08-22_10h54.27.176,continuous_performance_test,2024.2.4,Win32,59.88023952,7220dbcb-0af0-4c1c-bfd6-00400ca65028,5,411.7065,413.4582,space,1,0,18,18,1,1,B,space,0.2925,,,,,,,,,,,
,,,,,R_9OSAti36T2tOLoO,001,2025-08-22_10h54.27.176,continuous_performance_test,2024.2.4,Win32,59.88023952,7220dbcb-0af0-4c1c-bfd6-00400ca65028,5,413.4591,415.2112,space,0,0,19,19,25,1,X,,0.4867,,,,,,,,,,,
,,,,,R_9OSAti36T2tOLoO,001,2025-08-22_10h54.27.176,continuous_performance_test,2024.2.4,Win32,59.88023952,7220dbcb-0af0-4c1c-bfd6-00400ca65028,5,415.2122,417.0137,space,1,0,20,20,9,1,J,space,0.3931,,,,,,,,,,,
,,,,,R_9OSAti36T2tOLoO,001,2025-08-22_10h54.27.176,continuous_performance_test,2024.2.4,Win32,59.88023952,7220dbcb-0af0-4c1c-bfd6-00400ca65028,5,417.0147,418.5661,space,1,0,21,21,21,1,V,space,0.5049,,,,,,,,,,,
,,,,,R_9OSAti36T2tOLoO,001,2025-08-22_10h54.27.176,continuous_performance_test,2024.2.4,Win32,59.88023952,7220dbcb-0af0-4c1c-bfd6-00400ca65028,5,418.5671,420.2691,,1,0,22,22,28,1,X,,,,,,,,,,,,,
,,,,,R_9OSAti36T2tOLoO,001,2025-08-22_10h54.27.176,continuous_performance_test,2024.2.4,Win32,59.88023952,7220dbcb-0af0-4c1c-bfd6-00400ca65028,5,420.2702,422.1217,space,0,0,23,23,27,1,X,,0.271,,,,,,,,,,,
,,,,,R_9OSAti36T2tOLoO,001,2025-08-22_10h54.27.176,continuous_performance_test,2024.2.4,Win32,59.88023952,7220dbcb-0af0-4c1c-bfd6-00400ca65028,5,422.1228,424.1249,space,1,0,24,24,8,1,I,space,0.4495,,,,,,,,,,,
,,,,,R_9OSAti36T2tOLoO,001,2025-08-22_10h54.27.176,continuous_performance_test,2024.2.4,Win32,59.88023952,7220dbcb-0af0-4c1c-bfd6-00400ca65028,5,424.1257,425.9778,space,1,0,25,25,2,1,C,space,0.3824,,,,,,,,,,,
,,,,,R_9OSAti36T2tOLoO,001,2025-08-22_10h54.27.176,continuous_performance_test,2024.2.4,Win32,59.88023952,7220dbcb-0af0-4c1c-bfd6-00400ca65028,5,425.979,427.5299,space,1,0,26,26,22,1,W,space,0.4237,,,,,,,,,,,
,,,,,R_9OSAti36T2tOLoO,001,2025-08-22_10h54.27.176,continuous_performance_test,2024.2.4,Win32,59.88023952,7220dbcb-0af0-4c1c-bfd6-00400ca65028,5,427.531,429.383,space,1,0,27,27,10,1,K,space,0.2758,,,,,,,,,,,
,,,,,R_9OSAti36T2tOLoO,001,2025-08-22_10h54.27.176,continuous_performance_test,2024.2.4,Win32,59.88023952,7220dbcb-0af0-4c1c-bfd6-00400ca65028,5,429.384,431.2358,space,1,0,28,28,3,1,D,space,0.4524,,,,,,,,,,,
,,,,,R_9OSAti36T2tOLoO,001,2025-08-22_10h54.27.176,continuous_performance_test,2024.2.4,Win32,59.88023952,7220dbcb-0af0-4c1c-bfd6-00400ca65028,5,431.2367,433.1387,space,1,0,29,29,11,1,L,space,0.5003,,,,,,,,,,,
,,,,,R_9OSAti36T2tOLoO,001,2025-08-22_10h54.27.176,continuous_performance_test,2024.2.4,Win32,59.88023952,7220dbcb-0af0-4c1c-bfd6-00400ca65028,5,439.9871,441.9358,space,1,0,0,0,4,1,E,space,0.4523,,433.1395,439.9827,space,6.8254,,,,,,
,,,,,R_9OSAti36T2tOLoO,001,2025-08-22_10h54.27.176,continuous_performance_test,2024.2.4,Win32,59.88023952,7220dbcb-0af0-4c1c-bfd6-00400ca65028,5,441.9371,443.5384,,0,0,1,1,8,1,I,space,,,,,,,,,,,,
,,,,,R_9OSAti36T2tOLoO,001,2025-08-22_10h54.27.176,continuous_performance_test,2024.2.4,Win32,59.88023952,7220dbcb-0af0-4c1c-bfd6-00400ca65028,5,443.5395,445.1406,,0,0,2,2,22,1,W,space,,,,,,,,,,,,
,,,,,R_9OSAti36T2tOLoO,001,2025-08-22_10h54.27.176,continuous_performance_test,2024.2.4,Win32,59.88023952,7220dbcb-0af0-4c1c-bfd6-00400ca65028,5,445.1416,446.8933,,1,0,3,3,29,1,X,,,,,,,,,,,,,
,,,,,R_9OSAti36T2tOLoO,001,2025-08-22_10h54.27.176,continuous_performance_test,2024.2.4,Win32,59.88023952,7220dbcb-0af0-4c1c-bfd6-00400ca65028,5,446.8944,448.7967,space,1,0,4,4,16,1,Q,space,0.3876,,,,,,,,,,,
,,,,,R_9OSAti36T2tOLoO,001,2025-08-22_10h54.27.176,continuous_performance_test,2024.2.4,Win32,59.88023952,7220dbcb-0af0-4c1c-bfd6-00400ca65028,5,448.7974,450.5489,space,1,0,5,5,11,1,L,space,0.4459,,,,,,,,,,,
,,,,,R_9OSAti36T2tOLoO,001,2025-08-22_10h54.27.176,continuous_performance_test,2024.2.4,Win32,59.88023952,7220dbcb-0af0-4c1c-bfd6-00400ca65028,5,450.5498,452.5519,space,1,0,6,6,3,1,D,space,0.3459,,,,,,,,,,,
,,,,,R_9OSAti36T2tOLoO,001,2025-08-22_10h54.27.176,continuous_performance_test,2024.2.4,Win32,59.88023952,7220dbcb-0af0-4c1c-bfd6-00400ca65028,5,452.5529,454.405,space,1,0,7,7,19,1,T,space,0.3267,,,,,,,,,,,
,,,,,R_9OSAti36T2tOLoO,001,2025-08-22_10h54.27.176,continuous_performance_test,2024.2.4,Win32,59.88023952,7220dbcb-0af0-4c1c-bfd6-00400ca65028,5,454.4059,456.0573,space,1,0,8,8,2,1,C,space,0.3004,,,,,,,,,,,
,,,,,R_9OSAti36T2tOLoO,001,2025-08-22_10h54.27.176,continuous_performance_test,2024.2.4,Win32,59.88023952,7220dbcb-0af0-4c1c-bfd6-00400ca65028,5,456.0584,457.7099,space,0,0,9,9,27,1,X,,0.3026,,,,,,,,,,,
,,,,,R_9OSAti36T2tOLoO,001,2025-08-22_10h54.27.176,continuous_performance_test,2024.2.4,Win32,59.88023952,7220dbcb-0af0-4c1c-bfd6-00400ca65028,5,457.7108,459.663,space,1,0,10,10,13,1,N,space,0.2708,,,,,,,,,,,
,,,,,R_9OSAti36T2tOLoO,001,2025-08-22_10h54.27.176,continuous_performance_test,2024.2.4,Win32,59.88023952,7220dbcb-0af0-4c1c-bfd6-00400ca65028,5,459.664,461.6661,space,1,0,11,11,12,1,M,space,0.3026,,,,,,,,,,,
,,,,,R_9OSAti36T2tOLoO,001,2025-08-22_10h54.27.176,continuous_performance_test,2024.2.4,Win32,59.88023952,7220dbcb-0af0-4c1c-bfd6-00400ca65028,5,461.6673,463.2183,space,1,0,12,12,24,1,Z,space,0.3115,,,,,,,,,,,
,,,,,R_9OSAti36T2tOLoO,001,2025-08-22_10h54.27.176,continuous_performance_test,2024.2.4,Win32,59.88023952,7220dbcb-0af0-4c1c-bfd6-00400ca65028,5,463.2193,464.8709,space,1,0,13,13,1,1,B,space,0.2666,,,,,,,,,,,
,,,,,R_9OSAti36T2tOLoO,001,2025-08-22_10h54.27.176,continuous_performance_test,2024.2.4,Win32,59.88023952,7220dbcb-0af0-4c1c-bfd6-00400ca65028,5,464.8719,466.8739,space,1,0,14,14,15,1,P,space,0.2894,,,,,,,,,,,
,,,,,R_9OSAti36T2tOLoO,001,2025-08-22_10h54.27.176,continuous_performance_test,2024.2.4,Win32,59.88023952,7220dbcb-0af0-4c1c-bfd6-00400ca65028,5,466.8748,468.777,space,1,0,15,15,0,1,A,space,0.2692,,,,,,,,,,,
,,,,,R_9OSAti36T2tOLoO,001,2025-08-22_10h54.27.176,continuous_performance_test,2024.2.4,Win32,59.88023952,7220dbcb-0af0-4c1c-bfd6-00400ca65028,5,468.7781,470.4796,space,1,0,16,16,14,1,O,space,0.2946,,,,,,,,,,,
,,,,,R_9OSAti36T2tOLoO,001,2025-08-22_10h54.27.176,continuous_performance_test,2024.2.4,Win32,59.88023952,7220dbcb-0af0-4c1c-bfd6-00400ca65028,5,470.4808,472.0819,space,1,0,17,17,9,1,J,space,0.3818,,,,,,,,,,,
,,,,,R_9OSAti36T2tOLoO,001,2025-08-22_10h54.27.176,continuous_performance_test,2024.2.4,Win32,59.88023952,7220dbcb-0af0-4c1c-bfd6-00400ca65028,5,472.0832,473.8848,space,1,0,18,18,21,1,V,space,0.3,,,,,,,,,,,
,,,,,R_9OSAti36T2tOLoO,001,2025-08-22_10h54.27.176,continuous_performance_test,2024.2.4,Win32,59.88023952,7220dbcb-0af0-4c1c-bfd6-00400ca65028,5,473.8858,475.838,space,1,0,19,19,7,1,H,space,0.2745,,,,,,,,,,,
,,,,,R_9OSAti36T2tOLoO,001,2025-08-22_10h54.27.176,continuous_performance_test,2024.2.4,Win32,59.88023952,7220dbcb-0af0-4c1c-bfd6-00400ca65028,5,475.839,477.4905,space,1,0,20,20,6,1,G,space,0.4658,,,,,,,,,,,
,,,,,R_9OSAti36T2tOLoO,001,2025-08-22_10h54.27.176,continuous_performance_test,2024.2.4,Win32,59.88023952,7220dbcb-0af0-4c1c-bfd6-00400ca65028,5,477.4918,479.4936,space,0,0,21,21,28,1,X,,0.3674,,,,,,,,,,,
,,,,,R_9OSAti36T2tOLoO,001,2025-08-22_10h54.27.176,continuous_performance_test,2024.2.4,Win32,59.88023952,7220dbcb-0af0-4c1c-bfd6-00400ca65028,5,479.4947,481.2463,space,1,0,22,22,5,1,F,space,0.3945,,,,,,,,,,,
,,,,,R_9OSAti36T2tOLoO,001,2025-08-22_10h54.27.176,continuous_performance_test,2024.2.4,Win32,59.88023952,7220dbcb-0af0-4c1c-bfd6-00400ca65028,5,481.2474,482.8485,,1,0,23,23,25,1,X,,,,,,,,,,,,,
,,,,,R_9OSAti36T2tOLoO,001,2025-08-22_10h54.27.176,continuous_performance_test,2024.2.4,Win32,59.88023952,7220dbcb-0af0-4c1c-bfd6-00400ca65028,5,482.8496,484.7014,space,1,0,24,24,18,1,S,space,0.1161,,,,,,,,,,,
,,,,,R_9OSAti36T2tOLoO,001,2025-08-22_10h54.27.176,continuous_performance_test,2024.2.4,Win32,59.88023952,7220dbcb-0af0-4c1c-bfd6-00400ca65028,5,484.7023,486.5043,space,1,0,25,25,20,1,U,space,0.4181,,,,,,,,,,,
,,,,,R_9OSAti36T2tOLoO,001,2025-08-22_10h54.27.176,continuous_performance_test,2024.2.4,Win32,59.88023952,7220dbcb-0af0-4c1c-bfd6-00400ca65028,5,486.5055,488.2569,,1,0,26,26,26,1,X,,,,,,,,,,,,,
,,,,,R_9OSAti36T2tOLoO,001,2025-08-22_10h54.27.176,continuous_performance_test,2024.2.4,Win32,59.88023952,7220dbcb-0af0-4c1c-bfd6-00400ca65028,5,488.2579,489.8593,space,1,0,27,27,23,1,Y,space,0.7538,,,,,,,,,,,
,,,,,R_9OSAti36T2tOLoO,001,2025-08-22_10h54.27.176,continuous_performance_test,2024.2.4,Win32,59.88023952,7220dbcb-0af0-4c1c-bfd6-00400ca65028,5,489.8602,491.7622,space,1,0,28,28,17,1,R,space,0.6885,,,,,,,,,,,
,,,,,R_9OSAti36T2tOLoO,001,2025-08-22_10h54.27.176,continuous_performance_test,2024.2.4,Win32,59.88023952,7220dbcb-0af0-4c1c-bfd6-00400ca65028,5,491.7633,493.3146,space,1,0,29,29,10,1,K,space,0.485,,,,,,,,,,,
,,,,,R_9OSAti36T2tOLoO,001,2025-08-22_10h54.27.176,continuous_performance_test,2024.2.4,Win32,59.88023952,7220dbcb-0af0-4c1c-bfd6-00400ca65028,5,499.094,501.0933,space,1,0,0,0,17,1,R,space,0.6128,,493.3155,499.0908,space,5.7614,,,,,,
,,,,,R_9OSAti36T2tOLoO,001,2025-08-22_10h54.27.176,continuous_performance_test,2024.2.4,Win32,59.88023952,7220dbcb-0af0-4c1c-bfd6-00400ca65028,5,501.0941,502.7961,space,1,0,1,1,23,1,Y,space,0.3027,,,,,,,,,,,
,,,,,R_9OSAti36T2tOLoO,001,2025-08-22_10h54.27.176,continuous_performance_test,2024.2.4,Win32,59.88023952,7220dbcb-0af0-4c1c-bfd6-00400ca65028,5,502.797,504.3986,space,1,0,2,2,8,1,I,space,0.2686,,,,,,,,,,,
,,,,,R_9OSAti36T2tOLoO,001,2025-08-22_10h54.27.176,continuous_performance_test,2024.2.4,Win32,59.88023952,7220dbcb-0af0-4c1c-bfd6-00400ca65028,5,504.3996,506.1014,space,0,0,3,3,26,1,X,,0.2792,,,,,,,,,,,
,,,,,R_9OSAti36T2tOLoO,001,2025-08-22_10h54.27.176,continuous_performance_test,2024.2.4,Win32,59.88023952,7220dbcb-0af0-4c1c-bfd6-00400ca65028,5,506.1023,507.7539,space,1,0,4,4,21,1,V,space,0.5084,,,,,,,,,,,
,,,,,R_9OSAti36T2tOLoO,001,2025-08-22_10h54.27.176,continuous_performance_test,2024.2.4,Win32,59.88023952,7220dbcb-0af0-4c1c-bfd6-00400ca65028,5,507.7547,509.7066,space,1,0,5,5,10,1,K,space,0.3192,,,,,,,,,,,
,,,,,R_9OSAti36T2tOLoO,001,2025-08-22_10h54.27.176,continuous_performance_test,2024.2.4,Win32,59.88023952,7220dbcb-0af0-4c1c-bfd6-00400ca65028,5,509.7079,511.6596,space,1,0,6,6,4,1,E,space,0.2102,,,,,,,,,,,
,,,,,R_9OSAti36T2tOLoO,001,2025-08-22_10h54.27.176,continuous_performance_test,2024.2.4,Win32,59.88023952,7220dbcb-0af0-4c1c-bfd6-00400ca65028,5,511.6605,513.4626,space,0,0,7,7,27,1,X,,0.2509,,,,,,,,,,,
,,,,,R_9OSAti36T2tOLoO,001,2025-08-22_10h54.27.176,continuous_performance_test,2024.2.4,Win32,59.88023952,7220dbcb-0af0-4c1c-bfd6-00400ca65028,5,513.4636,515.4655,space,1,0,8,8,1,1,B,space,0.473,,,,,,,,,,,
,,,,,R_9OSAti36T2tOLoO,001,2025-08-22_10h54.27.176,continuous_performance_test,2024.2.4,Win32,59.88023952,7220dbcb-0af0-4c1c-bfd6-00400ca65028,5,515.4665,517.4187,space,1,0,9,9,22,1,W,space,0.2576,,,,,,,,,,,
,,,,,R_9OSAti36T2tOLoO,001,2025-08-22_10h54.27.176,continuous_performance_test,2024.2.4,Win32,59.88023952,7220dbcb-0af0-4c1c-bfd6-00400ca65028,5,517.4197,519.3716,space,1,0,10,10,7,1,H,space,0.265,,,,,,,,,,,
,,,,,R_9OSAti36T2tOLoO,001,2025-08-22_10h54.27.176,continuous_performance_test,2024.2.4,Win32,59.88023952,7220dbcb-0af0-4c1c-bfd6-00400ca65028,5,519.3726,521.2744,space,1,0,11,11,5,1,F,space,0.472,,,,,,,,,,,
,,,,,R_9OSAti36T2tOLoO,001,2025-08-22_10h54.27.176,continuous_performance_test,2024.2.4,Win32,59.88023952,7220dbcb-0af0-4c1c-bfd6-00400ca65028,5,521.2752,522.927,space,1,0,12,12,13,1,N,space,0.2666,,,,,,,,,,,
,,,,,R_9OSAti36T2tOLoO,001,2025-08-22_10h54.27.176,continuous_performance_test,2024.2.4,Win32,59.88023952,7220dbcb-0af0-4c1c-bfd6-00400ca65028,5,522.9281,524.5295,space,1,0,13,13,24,1,Z,space,0.2996,,,,,,,,,,,
,,,,,R_9OSAti36T2tOLoO,001,2025-08-22_10h54.27.176,continuous_performance_test,2024.2.4,Win32,59.88023952,7220dbcb-0af0-4c1c-bfd6-00400ca65028,5,524.5304,526.3823,space,1,0,14,14,0,1,A,space,0.4745,,,,,,,,,,,
,,,,,R_9OSAti36T2tOLoO,001,2025-08-22_10h54.27.176,continuous_performance_test,2024.2.4,Win32,59.88023952,7220dbcb-0af0-4c1c-bfd6-00400ca65028,5,526.3834,528.1851,,1,0,15,15,28,1,X,,,,,,,,,,,,,
,,,,,R_9OSAti36T2tOLoO,001,2025-08-22_10h54.27.176,continuous_performance_test,2024.2.4,Win32,59.88023952,7220dbcb-0af0-4c1c-bfd6-00400ca65028,5,528.1858,529.9879,space,0,0,16,16,25,1,X,,0.2533,,,,,,,,,,,
,,,,,R_9OSAti36T2tOLoO,001,2025-08-22_10h54.27.176,continuous_performance_test,2024.2.4,Win32,59.88023952,7220dbcb-0af0-4c1c-bfd6-00400ca65028,5,529.9886,531.5905,space,0,0,17,17,29,1,X,,0.4523,,,,,,,,,,,
,,,,,R_9OSAti36T2tOLoO,001,2025-08-22_10h54.27.176,continuous_performance_test,2024.2.4,Win32,59.88023952,7220dbcb-0af0-4c1c-bfd6-00400ca65028,5,531.5916,533.4933,space,1,0,18,18,20,1,U,space,0.4407,,,,,,,,,,,
,,,,,R_9OSAti36T2tOLoO,001,2025-08-22_10h54.27.176,continuous_performance_test,2024.2.4,Win32,59.88023952,7220dbcb-0af0-4c1c-bfd6-00400ca65028,5,533.4942,535.0958,space,1,0,19,19,16,1,Q,space,0.4384,,,,,,,,,,,
,,,,,R_9OSAti36T2tOLoO,001,2025-08-22_10h54.27.176,continuous_performance_test,2024.2.4,Win32,59.88023952,7220dbcb-0af0-4c1c-bfd6-00400ca65028,5,535.0969,536.7985,space,1,0,20,20,2,1,C,space,0.31,,,,,,,,,,,
,,,,,R_9OSAti36T2tOLoO,001,2025-08-22_10h54.27.176,continuous_performance_test,2024.2.4,Win32,59.88023952,7220dbcb-0af0-4c1c-bfd6-00400ca65028,5,536.7995,538.8014,space,1,0,21,21,3,1,D,space,0.4048,,,,,,,,,,,
,,,,,R_9OSAti36T2tOLoO,001,2025-08-22_10h54.27.176,continuous_performance_test,2024.2.4,Win32,59.88023952,7220dbcb-0af0-4c1c-bfd6-00400ca65028,5,538.8023,540.7546,space,1,0,22,22,19,1,T,space,0.6691,,,,,,,,,,,
,,,,,R_9OSAti36T2tOLoO,001,2025-08-22_10h54.27.176,continuous_performance_test,2024.2.4,Win32,59.88023952,7220dbcb-0af0-4c1c-bfd6-00400ca65028,5,540.7555,542.7577,space,1,0,23,23,6,1,G,space,0.3318,,,,,,,,,,,
,,,,,R_9OSAti36T2tOLoO,001,2025-08-22_10h54.27.176,continuous_performance_test,2024.2.4,Win32,59.88023952,7220dbcb-0af0-4c1c-bfd6-00400ca65028,5,542.7587,544.7608,space,1,0,24,24,9,1,J,space,0.2942,,,,,,,,,,,
,,,,,R_9OSAti36T2tOLoO,001,2025-08-22_10h54.27.176,continuous_performance_test,2024.2.4,Win32,59.88023952,7220dbcb-0af0-4c1c-bfd6-00400ca65028,5,544.762,546.6635,space,1,0,25,25,11,1,L,space,0.3002,,,,,,,,,,,
,,,,,R_9OSAti36T2tOLoO,001,2025-08-22_10h54.27.176,continuous_performance_test,2024.2.4,Win32,59.88023952,7220dbcb-0af0-4c1c-bfd6-00400ca65028,5,546.6647,548.216,space,1,0,26,26,14,1,O,space,0.4692,,,,,,,,,,,
,,,,,R_9OSAti36T2tOLoO,001,2025-08-22_10h54.27.176,continuous_performance_test,2024.2.4,Win32,59.88023952,7220dbcb-0af0-4c1c-bfd6-00400ca65028,5,548.2171,550.019,space,1,0,27,27,12,1,M,space,0.8051,,,,,,,,,,,
,,,,,R_9OSAti36T2tOLoO,001,2025-08-22_10h54.27.176,continuous_performance_test,2024.2.4,Win32,59.88023952,7220dbcb-0af0-4c1c-bfd6-00400ca65028,5,550.02,552.0219,space,1,0,28,28,18,1,S,space,0.4306,,,,,,,,,,,
,,,,,R_9OSAti36T2tOLoO,001,2025-08-22_10h54.27.176,continuous_performance_test,2024.2.4,Win32,59.88023952,7220dbcb-0af0-4c1c-bfd6-00400ca65028,5,552.0231,553.6244,space,1,0,29,29,15,1,P,space,0.4372,,,,,,,,,,,
,,,,,R_9OSAti36T2tOLoO,001,2025-08-22_10h54.27.176,continuous_performance_test,2024.2.4,Win32,59.88023952,7220dbcb-0af0-4c1c-bfd6-00400ca65028,5,564.0771,565.9784,space,1,0,0,0,14,1,O,space,0.4274,,553.6255,564.0737,space,10.4297,,,,,,
,,,,,R_9OSAti36T2tOLoO,001,2025-08-22_10h54.27.176,continuous_performance_test,2024.2.4,Win32,59.88023952,7220dbcb-0af0-4c1c-bfd6-00400ca65028,5,565.9796,567.7294,space,1,0,1,1,8,1,I,space,0.4494,,,,,,,,,,,
,,,,,R_9OSAti36T2tOLoO,001,2025-08-22_10h54.27.176,continuous_performance_test,2024.2.4,Win32,59.88023952,7220dbcb-0af0-4c1c-bfd6-00400ca65028,5,567.7303,569.382,space,1,0,2,2,3,1,D,space,0.3109,,,,,,,,,,,
,,,,,R_9OSAti36T2tOLoO,001,2025-08-22_10h54.27.176,continuous_performance_test,2024.2.4,Win32,59.88023952,7220dbcb-0af0-4c1c-bfd6-00400ca65028,5,569.3831,571.385,space,1,0,3,3,24,1,Z,space,0.415,,,,,,,,,,,
,,,,,R_9OSAti36T2tOLoO,001,2025-08-22_10h54.27.176,continuous_performance_test,2024.2.4,Win32,59.88023952,7220dbcb-0af0-4c1c-bfd6-00400ca65028,5,571.386,573.238,space,1,0,4,4,6,1,G,space,0.3961,,,,,,,,,,,
,,,,,R_9OSAti36T2tOLoO,001,2025-08-22_10h54.27.176,continuous_performance_test,2024.2.4,Win32,59.88023952,7220dbcb-0af0-4c1c-bfd6-00400ca65028,5,573.239,574.9405,space,1,0,5,5,11,1,L,space,0.4362,,,,,,,,,,,
,,,,,R_9OSAti36T2tOLoO,001,2025-08-22_10h54.27.176,continuous_performance_test,2024.2.4,Win32,59.88023952,7220dbcb-0af0-4c1c-bfd6-00400ca65028,5,574.9412,576.9436,space,1,0,6,6,18,1,S,space,0.2809,,,,,,,,,,,
,,,,,R_9OSAti36T2tOLoO,001,2025-08-22_10h54.27.176,continuous_performance_test,2024.2.4,Win32,59.88023952,7220dbcb-0af0-4c1c-bfd6-00400ca65028,5,576.9445,578.8966,space,1,0,7,7,7,1,H,space,0.2974,,,,,,,,,,,
,,,,,R_9OSAti36T2tOLoO,001,2025-08-22_10h54.27.176,continuous_performance_test,2024.2.4,Win32,59.88023952,7220dbcb-0af0-4c1c-bfd6-00400ca65028,5,578.8975,580.7497,space,1,0,8,8,21,1,V,space,0.5869,,,,,,,,,,,
,,,,,R_9OSAti36T2tOLoO,001,2025-08-22_10h54.27.176,continuous_performance_test,2024.2.4,Win32,59.88023952,7220dbcb-0af0-4c1c-bfd6-00400ca65028,5,580.7509,582.7028,space,1,0,9,9,0,1,A,space,0.2942,,,,,,,,,,,
,,,,,R_9OSAti36T2tOLoO,001,2025-08-22_10h54.27.176,continuous_performance_test,2024.2.4,Win32,59.88023952,7220dbcb-0af0-4c1c-bfd6-00400ca65028,5,582.7038,584.4553,space,1,0,10,10,23,1,Y,space,0.4824,,,,,,,,,,,
,,,,,R_9OSAti36T2tOLoO,001,2025-08-22_10h54.27.176,continuous_performance_test,2024.2.4,Win32,59.88023952,7220dbcb-0af0-4c1c-bfd6-00400ca65028,5,584.4563,586.1577,space,1,0,11,11,12,1,M,space,0.5395,,,,,,,,,,,
,,,,,R_9OSAti36T2tOLoO,001,2025-08-22_10h54.27.176,continuous_performance_test,2024.2.4,Win32,59.88023952,7220dbcb-0af0-4c1c-bfd6-00400ca65028,5,586.1588,588.0606,space,0,0,12,12,25,1,X,,0.74,,,,,,,,,,,
,,,,,R_9OSAti36T2tOLoO,001,2025-08-22_10h54.27.176,continuous_performance_test,2024.2.4,Win32,59.88023952,7220dbcb-0af0-4c1c-bfd6-00400ca65028,5,588.0617,589.6632,space,1,0,13,13,5,1,F,space,0.3662,,,,,,,,,,,
,,,,,R_9OSAti36T2tOLoO,001,2025-08-22_10h54.27.176,continuous_performance_test,2024.2.4,Win32,59.88023952,7220dbcb-0af0-4c1c-bfd6-00400ca65028,5,589.6644,591.6663,space,1,0,14,14,17,1,R,space,0.344,,,,,,,,,,,
,,,,,R_9OSAti36T2tOLoO,001,2025-08-22_10h54.27.176,continuous_performance_test,2024.2.4,Win32,59.88023952,7220dbcb-0af0-4c1c-bfd6-00400ca65028,5,591.6673,593.6195,space,1,0,15,15,19,1,T,space,0.2842,,,,,,,,,,,
,,,,,R_9OSAti36T2tOLoO,001,2025-08-22_10h54.27.176,continuous_performance_test,2024.2.4,Win32,59.88023952,7220dbcb-0af0-4c1c-bfd6-00400ca65028,5,593.6203,595.4725,space,1,0,16,16,15,1,P,space,0.412,,,,,,,,,,,
,,,,,R_9OSAti36T2tOLoO,001,2025-08-22_10h54.27.176,continuous_performance_test,2024.2.4,Win32,59.88023952,7220dbcb-0af0-4c1c-bfd6-00400ca65028,5,595.4733,597.2753,space,0,0,17,17,29,1,X,,0.3103,,,,,,,,,,,
,,,,,R_9OSAti36T2tOLoO,001,2025-08-22_10h54.27.176,continuous_performance_test,2024.2.4,Win32,59.88023952,7220dbcb-0af0-4c1c-bfd6-00400ca65028,5,597.2763,599.1278,space,1,0,18,18,2,1,C,space,0.6987,,,,,,,,,,,
,,,,,R_9OSAti36T2tOLoO,001,2025-08-22_10h54.27.176,continuous_performance_test,2024.2.4,Win32,59.88023952,7220dbcb-0af0-4c1c-bfd6-00400ca65028,5,599.1287,600.7805,space,1,0,19,19,9,1,J,space,0.3811,,,,,,,,,,,
,,,,,R_9OSAti36T2tOLoO,001,2025-08-22_10h54.27.176,continuous_performance_test,2024.2.4,Win32,59.88023952,7220dbcb-0af0-4c1c-bfd6-00400ca65028,5,600.7818,602.533,space,1,0,20,20,4,1,E,space,0.4622,,,,,,,,,,,
,,,,,R_9OSAti36T2tOLoO,001,2025-08-22_10h54.27.176,continuous_performance_test,2024.2.4,Win32,59.88023952,7220dbcb-0af0-4c1c-bfd6-00400ca65028,5,602.534,604.2861,space,1,0,21,21,13,1,N,space,0.3141,,,,,,,,,,,
,,,,,R_9OSAti36T2tOLoO,001,2025-08-22_10h54.27.176,continuous_performance_test,2024.2.4,Win32,59.88023952,7220dbcb-0af0-4c1c-bfd6-00400ca65028,5,604.2868,606.2389,space,1,0,22,22,10,1,K,space,0.3072,,,,,,,,,,,
,,,,,R_9OSAti36T2tOLoO,001,2025-08-22_10h54.27.176,continuous_performance_test,2024.2.4,Win32,59.88023952,7220dbcb-0af0-4c1c-bfd6-00400ca65028,5,606.24,607.9916,,1,0,23,23,28,1,X,,,,,,,,,,,,,
,,,,,R_9OSAti36T2tOLoO,001,2025-08-22_10h54.27.176,continuous_performance_test,2024.2.4,Win32,59.88023952,7220dbcb-0af0-4c1c-bfd6-00400ca65028,5,607.9924,609.9444,space,0,0,24,24,26,1,X,,0.2841,,,,,,,,,,,
,,,,,R_9OSAti36T2tOLoO,001,2025-08-22_10h54.27.176,continuous_performance_test,2024.2.4,Win32,59.88023952,7220dbcb-0af0-4c1c-bfd6-00400ca65028,5,609.9454,611.6471,space,1,0,25,25,16,1,Q,space,0.5687,,,,,,,,,,,
,,,,,R_9OSAti36T2tOLoO,001,2025-08-22_10h54.27.176,continuous_performance_test,2024.2.4,Win32,59.88023952,7220dbcb-0af0-4c1c-bfd6-00400ca65028,5,611.6481,613.4499,space,1,0,26,26,20,1,U,space,0.2813,,,,,,,,,,,
,,,,,R_9OSAti36T2tOLoO,001,2025-08-22_10h54.27.176,continuous_performance_test,2024.2.4,Win32,59.88023952,7220dbcb-0af0-4c1c-bfd6-00400ca65028,5,613.4509,615.0021,space,1,0,27,27,1,1,B,space,0.4909,,,,,,,,,,,
,,,,,R_9OSAti36T2tOLoO,001,2025-08-22_10h54.27.176,continuous_performance_test,2024.2.4,Win32,59.88023952,7220dbcb-0af0-4c1c-bfd6-00400ca65028,5,615.0031,616.805,space,1,0,28,28,22,1,W,space,0.3043,,,,,,,,,,,
,,,,,R_9OSAti36T2tOLoO,001,2025-08-22_10h54.27.176,continuous_performance_test,2024.2.4,Win32,59.88023952,7220dbcb-0af0-4c1c-bfd6-00400ca65028,5,616.8058,618.7581,,1,0,29,29,27,1,X,,,,,,,,,,,,,
,,,,,R_9OSAti36T2tOLoO,001,2025-08-22_10h54.27.176,continuous_performance_test,2024.2.4,Win32,59.88023952,7220dbcb-0af0-4c1c-bfd6-00400ca65028,5,,,,,,,,,,,,,,618.7591,618.7598,,,,618.7601,642.6789,space,23.9068,
