Instructions.started,Instructions.stopped,key_resp.keys,key_resp.rt,key_resp.duration,participant,session,date,expName,psychopyVersion,OS,frameRate,realeye-tester-id,realeye-tester-quality_grade,Trial_noX.started,Trial_noX.stopped,response.keys,response.corr,response.rt,response.duration,trials_noX.thisRepN,trials_noX.thisTrialN,trials_noX.thisN,trials_noX.thisIndex,trials_noX.ran,letter,corrAns,BlockBreak.started,BlockBreak.stopped,key_instruct.keys,key_instruct.rt,key_instruct.duration,End_NoX.started,End_NoX.stopped,key_resp_end_noX.keys,key_resp_end_noX.rt,key_resp_end_noX.duration
0,12.11,space,12.074,,R_9oqLGyhgfR2gYVj,001,2025-08-24_17h10.37.450,continuous_performance_test,2024.2.4,MacIntel,62.5,7d5726e5-7725-4ce0-b4e1-b7053cb630de,2,,,,,,,,,,,,,,,,,,,,,,,
,,,,,R_9oqLGyhgfR2gYVj,001,2025-08-24_17h10.37.450,continuous_performance_test,2024.2.4,MacIntel,62.5,7d5726e5-7725-4ce0-b4e1-b7053cb630de,2,12.124,14.019,space,1,0.479,,0,0,0,20,1,U,space,,,,,,,,,,
,,,,,R_9oqLGyhgfR2gYVj,001,2025-08-24_17h10.37.450,continuous_performance_test,2024.2.4,MacIntel,62.5,7d5726e5-7725-4ce0-b4e1-b7053cb630de,2,14.02,15.97,space,1,0.429,,0,1,1,17,1,R,space,,,,,,,,,,
,,,,,R_9oqLGyhgfR2gYVj,001,2025-08-24_17h10.37.450,continuous_performance_test,2024.2.4,MacIntel,62.5,7d5726e5-7725-4ce0-b4e1-b7053cb630de,2,15.971,17.721,space,1,0.274,,0,2,2,0,1,A,space,,,,,,,,,,
,,,,,R_9oqLGyhgfR2gYVj,001,2025-08-24_17h10.37.450,continuous_performance_test,2024.2.4,MacIntel,62.5,7d5726e5-7725-4ce0-b4e1-b7053cb630de,2,17.722,19.272,space,1,0.329,,0,3,3,10,1,K,space,,,,,,,,,,
,,,,,R_9oqLGyhgfR2gYVj,001,2025-08-24_17h10.37.450,continuous_performance_test,2024.2.4,MacIntel,62.5,7d5726e5-7725-4ce0-b4e1-b7053cb630de,2,19.274,21.172,space,1,0.389,,0,4,4,24,1,Z,space,,,,,,,,,,
,,,,,R_9oqLGyhgfR2gYVj,001,2025-08-24_17h10.37.450,continuous_performance_test,2024.2.4,MacIntel,62.5,7d5726e5-7725-4ce0-b4e1-b7053cb630de,2,21.174,23.024,space,1,0.316,,0,5,5,22,1,W,space,,,,,,,,,,
,,,,,R_9oqLGyhgfR2gYVj,001,2025-08-24_17h10.37.450,continuous_performance_test,2024.2.4,MacIntel,62.5,7d5726e5-7725-4ce0-b4e1-b7053cb630de,2,23.025,24.675,space,1,0.466,,0,6,6,19,1,T,space,,,,,,,,,,
,,,,,R_9oqLGyhgfR2gYVj,001,2025-08-24_17h10.37.450,continuous_performance_test,2024.2.4,MacIntel,62.5,7d5726e5-7725-4ce0-b4e1-b7053cb630de,2,24.676,26.326,space,1,0.325,,0,7,7,23,1,Y,space,,,,,,,,,,
,,,,,R_9oqLGyhgfR2gYVj,001,2025-08-24_17h10.37.450,continuous_performance_test,2024.2.4,MacIntel,62.5,7d5726e5-7725-4ce0-b4e1-b7053cb630de,2,26.328,28.277,space,1,0.398,,0,8,8,18,1,S,space,,,,,,,,,,
,,,,,R_9oqLGyhgfR2gYVj,001,2025-08-24_17h10.37.450,continuous_performance_test,2024.2.4,MacIntel,62.5,7d5726e5-7725-4ce0-b4e1-b7053cb630de,2,28.278,30.178,space,1,0.314,,0,9,9,7,1,H,space,,,,,,,,,,
,,,,,R_9oqLGyhgfR2gYVj,001,2025-08-24_17h10.37.450,continuous_performance_test,2024.2.4,MacIntel,62.5,7d5726e5-7725-4ce0-b4e1-b7053cb630de,2,30.179,31.779,space,1,0.387,,0,10,10,11,1,L,space,,,,,,,,,,
,,,,,R_9oqLGyhgfR2gYVj,001,2025-08-24_17h10.37.450,continuous_performance_test,2024.2.4,MacIntel,62.5,7d5726e5-7725-4ce0-b4e1-b7053cb630de,2,31.781,33.73,space,1,0.317,,0,11,11,21,1,V,space,,,,,,,,,,
,,,,,R_9oqLGyhgfR2gYVj,001,2025-08-24_17h10.37.450,continuous_performance_test,2024.2.4,MacIntel,62.5,7d5726e5-7725-4ce0-b4e1-b7053cb630de,2,33.732,35.481,space,1,0.379,,0,12,12,15,1,P,space,,,,,,,,,,
,,,,,R_9oqLGyhgfR2gYVj,001,2025-08-24_17h10.37.450,continuous_performance_test,2024.2.4,MacIntel,62.5,7d5726e5-7725-4ce0-b4e1-b7053cb630de,2,35.482,37.132,space,1,0.347,,0,13,13,1,1,B,space,,,,,,,,,,
,,,,,R_9oqLGyhgfR2gYVj,001,2025-08-24_17h10.37.450,continuous_performance_test,2024.2.4,MacIntel,62.5,7d5726e5-7725-4ce0-b4e1-b7053cb630de,2,37.133,38.833,space,1,0.362,,0,14,14,14,1,O,space,,,,,,,,,,
,,,,,R_9oqLGyhgfR2gYVj,001,2025-08-24_17h10.37.450,continuous_performance_test,2024.2.4,MacIntel,62.5,7d5726e5-7725-4ce0-b4e1-b7053cb630de,2,38.834,40.383,,1,,,0,15,15,25,1,X,,,,,,,,,,,
,,,,,R_9oqLGyhgfR2gYVj,001,2025-08-24_17h10.37.450,continuous_performance_test,2024.2.4,MacIntel,62.5,7d5726e5-7725-4ce0-b4e1-b7053cb630de,2,40.386,42.235,space,1,0.314,,0,16,16,5,1,F,space,,,,,,,,,,
,,,,,R_9oqLGyhgfR2gYVj,001,2025-08-24_17h10.37.450,continuous_performance_test,2024.2.4,MacIntel,62.5,7d5726e5-7725-4ce0-b4e1-b7053cb630de,2,42.236,43.986,space,1,0.371,,0,17,17,3,1,D,space,,,,,,,,,,
,,,,,R_9oqLGyhgfR2gYVj,001,2025-08-24_17h10.37.450,continuous_performance_test,2024.2.4,MacIntel,62.5,7d5726e5-7725-4ce0-b4e1-b7053cb630de,2,43.987,45.937,space,1,0.322,,0,18,18,13,1,N,space,,,,,,,,,,
,,,,,R_9oqLGyhgfR2gYVj,001,2025-08-24_17h10.37.450,continuous_performance_test,2024.2.4,MacIntel,62.5,7d5726e5-7725-4ce0-b4e1-b7053cb630de,2,45.939,47.788,space,1,0.282,,0,19,19,6,1,G,space,,,,,,,,,,
,,,,,R_9oqLGyhgfR2gYVj,001,2025-08-24_17h10.37.450,continuous_performance_test,2024.2.4,MacIntel,62.5,7d5726e5-7725-4ce0-b4e1-b7053cb630de,2,47.79,49.339,space,0,0.322,,0,20,20,28,1,X,,,,,,,,,,,
,,,,,R_9oqLGyhgfR2gYVj,001,2025-08-24_17h10.37.450,continuous_performance_test,2024.2.4,MacIntel,62.5,7d5726e5-7725-4ce0-b4e1-b7053cb630de,2,49.34,51.29,space,1,0.364,,0,21,21,12,1,M,space,,,,,,,,,,
,,,,,R_9oqLGyhgfR2gYVj,001,2025-08-24_17h10.37.450,continuous_performance_test,2024.2.4,MacIntel,62.5,7d5726e5-7725-4ce0-b4e1-b7053cb630de,2,51.291,52.991,space,1,0.383,,0,22,22,8,1,I,space,,,,,,,,,,
,,,,,R_9oqLGyhgfR2gYVj,001,2025-08-24_17h10.37.450,continuous_performance_test,2024.2.4,MacIntel,62.5,7d5726e5-7725-4ce0-b4e1-b7053cb630de,2,52.992,54.542,space,1,0.388,,0,23,23,16,1,Q,space,,,,,,,,,,
,,,,,R_9oqLGyhgfR2gYVj,001,2025-08-24_17h10.37.450,continuous_performance_test,2024.2.4,MacIntel,62.5,7d5726e5-7725-4ce0-b4e1-b7053cb630de,2,54.543,56.243,space,1,0.447,,0,24,24,2,1,C,space,,,,,,,,,,
,,,,,R_9oqLGyhgfR2gYVj,001,2025-08-24_17h10.37.450,continuous_performance_test,2024.2.4,MacIntel,62.5,7d5726e5-7725-4ce0-b4e1-b7053cb630de,2,56.244,58.244,,1,,,0,25,25,26,1,X,,,,,,,,,,,
,,,,,R_9oqLGyhgfR2gYVj,001,2025-08-24_17h10.37.450,continuous_performance_test,2024.2.4,MacIntel,62.5,7d5726e5-7725-4ce0-b4e1-b7053cb630de,2,58.246,60.045,space,1,0.407,,0,26,26,9,1,J,space,,,,,,,,,,
,,,,,R_9oqLGyhgfR2gYVj,001,2025-08-24_17h10.37.450,continuous_performance_test,2024.2.4,MacIntel,62.5,7d5726e5-7725-4ce0-b4e1-b7053cb630de,2,60.047,61.996,,1,,,0,27,27,29,1,X,,,,,,,,,,,
,,,,,R_9oqLGyhgfR2gYVj,001,2025-08-24_17h10.37.450,continuous_performance_test,2024.2.4,MacIntel,62.5,7d5726e5-7725-4ce0-b4e1-b7053cb630de,2,61.997,63.897,,1,,,0,28,28,27,1,X,,,,,,,,,,,
,,,,,R_9oqLGyhgfR2gYVj,001,2025-08-24_17h10.37.450,continuous_performance_test,2024.2.4,MacIntel,62.5,7d5726e5-7725-4ce0-b4e1-b7053cb630de,2,63.898,65.698,space,1,0.402,,0,29,29,4,1,E,space,,,,,,,,,,
,,,,,R_9oqLGyhgfR2gYVj,001,2025-08-24_17h10.37.450,continuous_performance_test,2024.2.4,MacIntel,62.5,7d5726e5-7725-4ce0-b4e1-b7053cb630de,2,69.94,71.585,space,1,0.772,,0,0,0,18,1,S,space,65.706,69.935,space,4.202,,,,,,
,,,,,R_9oqLGyhgfR2gYVj,001,2025-08-24_17h10.37.450,continuous_performance_test,2024.2.4,MacIntel,62.5,7d5726e5-7725-4ce0-b4e1-b7053cb630de,2,71.587,73.336,space,1,0.349,,0,1,1,2,1,C,space,,,,,,,,,,
,,,,,R_9oqLGyhgfR2gYVj,001,2025-08-24_17h10.37.450,continuous_performance_test,2024.2.4,MacIntel,62.5,7d5726e5-7725-4ce0-b4e1-b7053cb630de,2,73.337,75.037,space,1,0.371,,0,2,2,1,1,B,space,,,,,,,,,,
,,,,,R_9oqLGyhgfR2gYVj,001,2025-08-24_17h10.37.450,continuous_performance_test,2024.2.4,MacIntel,62.5,7d5726e5-7725-4ce0-b4e1-b7053cb630de,2,75.039,76.588,,1,,,0,3,3,26,1,X,,,,,,,,,,,
,,,,,R_9oqLGyhgfR2gYVj,001,2025-08-24_17h10.37.450,continuous_performance_test,2024.2.4,MacIntel,62.5,7d5726e5-7725-4ce0-b4e1-b7053cb630de,2,76.589,78.589,space,1,0.372,,0,4,4,14,1,O,space,,,,,,,,,,
,,,,,R_9oqLGyhgfR2gYVj,001,2025-08-24_17h10.37.450,continuous_performance_test,2024.2.4,MacIntel,62.5,7d5726e5-7725-4ce0-b4e1-b7053cb630de,2,78.59,80.39,space,1,0.373,,0,5,5,15,1,P,space,,,,,,,,,,
,,,,,R_9oqLGyhgfR2gYVj,001,2025-08-24_17h10.37.450,continuous_performance_test,2024.2.4,MacIntel,62.5,7d5726e5-7725-4ce0-b4e1-b7053cb630de,2,80.391,81.991,space,1,0.381,,0,6,6,8,1,I,space,,,,,,,,,,
,,,,,R_9oqLGyhgfR2gYVj,001,2025-08-24_17h10.37.450,continuous_performance_test,2024.2.4,MacIntel,62.5,7d5726e5-7725-4ce0-b4e1-b7053cb630de,2,81.992,83.942,space,1,0.389,,0,7,7,13,1,N,space,,,,,,,,,,
,,,,,R_9oqLGyhgfR2gYVj,001,2025-08-24_17h10.37.450,continuous_performance_test,2024.2.4,MacIntel,62.5,7d5726e5-7725-4ce0-b4e1-b7053cb630de,2,83.943,85.693,space,1,0.332,,0,8,8,20,1,U,space,,,,,,,,,,
,,,,,R_9oqLGyhgfR2gYVj,001,2025-08-24_17h10.37.450,continuous_performance_test,2024.2.4,MacIntel,62.5,7d5726e5-7725-4ce0-b4e1-b7053cb630de,2,85.694,87.494,space,1,0.347,,0,9,9,21,1,V,space,,,,,,,,,,
,,,,,R_9oqLGyhgfR2gYVj,001,2025-08-24_17h10.37.450,continuous_performance_test,2024.2.4,MacIntel,62.5,7d5726e5-7725-4ce0-b4e1-b7053cb630de,2,87.496,89.445,space,1,0.355,,0,10,10,0,1,A,space,,,,,,,,,,
,,,,,R_9oqLGyhgfR2gYVj,001,2025-08-24_17h10.37.450,continuous_performance_test,2024.2.4,MacIntel,62.5,7d5726e5-7725-4ce0-b4e1-b7053cb630de,2,89.447,91.096,space,1,0.325,,0,11,11,4,1,E,space,,,,,,,,,,
,,,,,R_9oqLGyhgfR2gYVj,001,2025-08-24_17h10.37.450,continuous_performance_test,2024.2.4,MacIntel,62.5,7d5726e5-7725-4ce0-b4e1-b7053cb630de,2,91.098,92.697,space,1,0.357,,0,12,12,12,1,M,space,,,,,,,,,,
,,,,,R_9oqLGyhgfR2gYVj,001,2025-08-24_17h10.37.450,continuous_performance_test,2024.2.4,MacIntel,62.5,7d5726e5-7725-4ce0-b4e1-b7053cb630de,2,92.698,94.248,space,1,0.315,,0,13,13,24,1,Z,space,,,,,,,,,,
,,,,,R_9oqLGyhgfR2gYVj,001,2025-08-24_17h10.37.450,continuous_performance_test,2024.2.4,MacIntel,62.5,7d5726e5-7725-4ce0-b4e1-b7053cb630de,2,94.249,95.949,space,1,0.548,,0,14,14,10,1,K,space,,,,,,,,,,
,,,,,R_9oqLGyhgfR2gYVj,001,2025-08-24_17h10.37.450,continuous_performance_test,2024.2.4,MacIntel,62.5,7d5726e5-7725-4ce0-b4e1-b7053cb630de,2,95.95,97.6,space,1,0.431,,0,15,15,11,1,L,space,,,,,,,,,,
,,,,,R_9oqLGyhgfR2gYVj,001,2025-08-24_17h10.37.450,continuous_performance_test,2024.2.4,MacIntel,62.5,7d5726e5-7725-4ce0-b4e1-b7053cb630de,2,97.601,99.601,,1,,,0,16,16,29,1,X,,,,,,,,,,,
,,,,,R_9oqLGyhgfR2gYVj,001,2025-08-24_17h10.37.450,continuous_performance_test,2024.2.4,MacIntel,62.5,7d5726e5-7725-4ce0-b4e1-b7053cb630de,2,99.603,101.452,,1,,,0,17,17,27,1,X,,,,,,,,,,,
,,,,,R_9oqLGyhgfR2gYVj,001,2025-08-24_17h10.37.450,continuous_performance_test,2024.2.4,MacIntel,62.5,7d5726e5-7725-4ce0-b4e1-b7053cb630de,2,101.453,103.253,,1,,,0,18,18,28,1,X,,,,,,,,,,,
,,,,,R_9oqLGyhgfR2gYVj,001,2025-08-24_17h10.37.450,continuous_performance_test,2024.2.4,MacIntel,62.5,7d5726e5-7725-4ce0-b4e1-b7053cb630de,2,103.255,104.954,space,1,0.43,,0,19,19,3,1,D,space,,,,,,,,,,
,,,,,R_9oqLGyhgfR2gYVj,001,2025-08-24_17h10.37.450,continuous_performance_test,2024.2.4,MacIntel,62.5,7d5726e5-7725-4ce0-b4e1-b7053cb630de,2,104.955,106.905,space,1,0.422,,0,20,20,16,1,Q,space,,,,,,,,,,
,,,,,R_9oqLGyhgfR2gYVj,001,2025-08-24_17h10.37.450,continuous_performance_test,2024.2.4,MacIntel,62.5,7d5726e5-7725-4ce0-b4e1-b7053cb630de,2,106.906,108.656,space,1,0.417,,0,21,21,9,1,J,space,,,,,,,,,,
,,,,,R_9oqLGyhgfR2gYVj,001,2025-08-24_17h10.37.450,continuous_performance_test,2024.2.4,MacIntel,62.5,7d5726e5-7725-4ce0-b4e1-b7053cb630de,2,108.657,110.608,space,1,0.416,,0,22,22,22,1,W,space,,,,,,,,,,
,,,,,R_9oqLGyhgfR2gYVj,001,2025-08-24_17h10.37.450,continuous_performance_test,2024.2.4,MacIntel,62.5,7d5726e5-7725-4ce0-b4e1-b7053cb630de,2,110.61,112.258,space,1,0.391,,0,23,23,17,1,R,space,,,,,,,,,,
,,,,,R_9oqLGyhgfR2gYVj,001,2025-08-24_17h10.37.450,continuous_performance_test,2024.2.4,MacIntel,62.5,7d5726e5-7725-4ce0-b4e1-b7053cb630de,2,112.26,114.059,space,1,0.4,,0,24,24,19,1,T,space,,,,,,,,,,
,,,,,R_9oqLGyhgfR2gYVj,001,2025-08-24_17h10.37.450,continuous_performance_test,2024.2.4,MacIntel,62.5,7d5726e5-7725-4ce0-b4e1-b7053cb630de,2,114.06,115.96,space,1,0.415,,0,25,25,7,1,H,space,,,,,,,,,,
,,,,,R_9oqLGyhgfR2gYVj,001,2025-08-24_17h10.37.450,continuous_performance_test,2024.2.4,MacIntel,62.5,7d5726e5-7725-4ce0-b4e1-b7053cb630de,2,115.962,117.611,space,0,0.355,,0,26,26,25,1,X,,,,,,,,,,,
,,,,,R_9oqLGyhgfR2gYVj,001,2025-08-24_17h10.37.450,continuous_performance_test,2024.2.4,MacIntel,62.5,7d5726e5-7725-4ce0-b4e1-b7053cb630de,2,117.612,119.363,space,1,0.432,,0,27,27,23,1,Y,space,,,,,,,,,,
,,,,,R_9oqLGyhgfR2gYVj,001,2025-08-24_17h10.37.450,continuous_performance_test,2024.2.4,MacIntel,62.5,7d5726e5-7725-4ce0-b4e1-b7053cb630de,2,119.364,120.913,space,1,0.41,,0,28,28,6,1,G,space,,,,,,,,,,
,,,,,R_9oqLGyhgfR2gYVj,001,2025-08-24_17h10.37.450,continuous_performance_test,2024.2.4,MacIntel,62.5,7d5726e5-7725-4ce0-b4e1-b7053cb630de,2,120.914,122.464,space,1,0.381,,0,29,29,5,1,F,space,,,,,,,,,,
,,,,,R_9oqLGyhgfR2gYVj,001,2025-08-24_17h10.37.450,continuous_performance_test,2024.2.4,MacIntel,62.5,7d5726e5-7725-4ce0-b4e1-b7053cb630de,2,137.466,139.108,space,1,0.49,,0,0,0,8,1,I,space,122.467,137.456,,,,,,,,
,,,,,R_9oqLGyhgfR2gYVj,001,2025-08-24_17h10.37.450,continuous_performance_test,2024.2.4,MacIntel,62.5,7d5726e5-7725-4ce0-b4e1-b7053cb630de,2,139.11,140.858,space,1,0.331,,0,1,1,22,1,W,space,,,,,,,,,,
,,,,,R_9oqLGyhgfR2gYVj,001,2025-08-24_17h10.37.450,continuous_performance_test,2024.2.4,MacIntel,62.5,7d5726e5-7725-4ce0-b4e1-b7053cb630de,2,140.86,142.559,,1,,,0,2,2,28,1,X,,,,,,,,,,,
,,,,,R_9oqLGyhgfR2gYVj,001,2025-08-24_17h10.37.450,continuous_performance_test,2024.2.4,MacIntel,62.5,7d5726e5-7725-4ce0-b4e1-b7053cb630de,2,142.56,144.31,space,1,0.358,,0,3,3,23,1,Y,space,,,,,,,,,,
,,,,,R_9oqLGyhgfR2gYVj,001,2025-08-24_17h10.37.450,continuous_performance_test,2024.2.4,MacIntel,62.5,7d5726e5-7725-4ce0-b4e1-b7053cb630de,2,144.311,146.311,space,1,0.323,,0,4,4,1,1,B,space,,,,,,,,,,
,,,,,R_9oqLGyhgfR2gYVj,001,2025-08-24_17h10.37.450,continuous_performance_test,2024.2.4,MacIntel,62.5,7d5726e5-7725-4ce0-b4e1-b7053cb630de,2,146.313,148.062,space,1,0.364,,0,5,5,11,1,L,space,,,,,,,,,,
,,,,,R_9oqLGyhgfR2gYVj,001,2025-08-24_17h10.37.450,continuous_performance_test,2024.2.4,MacIntel,62.5,7d5726e5-7725-4ce0-b4e1-b7053cb630de,2,148.063,149.763,space,1,0.35,,0,6,6,13,1,N,space,,,,,,,,,,
,,,,,R_9oqLGyhgfR2gYVj,001,2025-08-24_17h10.37.450,continuous_performance_test,2024.2.4,MacIntel,62.5,7d5726e5-7725-4ce0-b4e1-b7053cb630de,2,149.764,151.464,space,1,0.314,,0,7,7,7,1,H,space,,,,,,,,,,
,,,,,R_9oqLGyhgfR2gYVj,001,2025-08-24_17h10.37.450,continuous_performance_test,2024.2.4,MacIntel,62.5,7d5726e5-7725-4ce0-b4e1-b7053cb630de,2,151.465,153.215,space,1,0.348,,0,8,8,3,1,D,space,,,,,,,,,,
,,,,,R_9oqLGyhgfR2gYVj,001,2025-08-24_17h10.37.450,continuous_performance_test,2024.2.4,MacIntel,62.5,7d5726e5-7725-4ce0-b4e1-b7053cb630de,2,153.216,154.866,space,1,0.388,,0,9,9,17,1,R,space,,,,,,,,,,
,,,,,R_9oqLGyhgfR2gYVj,001,2025-08-24_17h10.37.450,continuous_performance_test,2024.2.4,MacIntel,62.5,7d5726e5-7725-4ce0-b4e1-b7053cb630de,2,154.867,156.817,space,1,0.356,,0,10,10,16,1,Q,space,,,,,,,,,,
,,,,,R_9oqLGyhgfR2gYVj,001,2025-08-24_17h10.37.450,continuous_performance_test,2024.2.4,MacIntel,62.5,7d5726e5-7725-4ce0-b4e1-b7053cb630de,2,156.818,158.818,space,1,0.332,,0,11,11,0,1,A,space,,,,,,,,,,
,,,,,R_9oqLGyhgfR2gYVj,001,2025-08-24_17h10.37.450,continuous_performance_test,2024.2.4,MacIntel,62.5,7d5726e5-7725-4ce0-b4e1-b7053cb630de,2,158.82,160.62,space,1,0.458,,0,12,12,10,1,K,space,,,,,,,,,,
,,,,,R_9oqLGyhgfR2gYVj,001,2025-08-24_17h10.37.450,continuous_performance_test,2024.2.4,MacIntel,62.5,7d5726e5-7725-4ce0-b4e1-b7053cb630de,2,160.622,162.205,space,1,0.355,,0,13,13,15,1,P,space,,,,,,,,,,
,,,,,R_9oqLGyhgfR2gYVj,001,2025-08-24_17h10.37.450,continuous_performance_test,2024.2.4,MacIntel,62.5,7d5726e5-7725-4ce0-b4e1-b7053cb630de,2,162.206,163.955,space,1,0.364,,0,14,14,2,1,C,space,,,,,,,,,,
,,,,,R_9oqLGyhgfR2gYVj,001,2025-08-24_17h10.37.450,continuous_performance_test,2024.2.4,MacIntel,62.5,7d5726e5-7725-4ce0-b4e1-b7053cb630de,2,163.957,165.556,,1,,,0,15,15,29,1,X,,,,,,,,,,,
,,,,,R_9oqLGyhgfR2gYVj,001,2025-08-24_17h10.37.450,continuous_performance_test,2024.2.4,MacIntel,62.5,7d5726e5-7725-4ce0-b4e1-b7053cb630de,2,165.557,167.507,space,1,0.549,,0,16,16,12,1,M,space,,,,,,,,,,
,,,,,R_9oqLGyhgfR2gYVj,001,2025-08-24_17h10.37.450,continuous_performance_test,2024.2.4,MacIntel,62.5,7d5726e5-7725-4ce0-b4e1-b7053cb630de,2,167.508,169.158,space,1,0.358,,0,17,17,4,1,E,space,,,,,,,,,,
,,,,,R_9oqLGyhgfR2gYVj,001,2025-08-24_17h10.37.450,continuous_performance_test,2024.2.4,MacIntel,62.5,7d5726e5-7725-4ce0-b4e1-b7053cb630de,2,169.16,170.909,space,1,0.365,,0,18,18,5,1,F,space,,,,,,,,,,
,,,,,R_9oqLGyhgfR2gYVj,001,2025-08-24_17h10.37.450,continuous_performance_test,2024.2.4,MacIntel,62.5,7d5726e5-7725-4ce0-b4e1-b7053cb630de,2,170.91,172.71,,1,,,0,19,19,27,1,X,,,,,,,,,,,
,,,,,R_9oqLGyhgfR2gYVj,001,2025-08-24_17h10.37.450,continuous_performance_test,2024.2.4,MacIntel,62.5,7d5726e5-7725-4ce0-b4e1-b7053cb630de,2,172.711,174.661,space,0,0.353,,0,20,20,26,1,X,,,,,,,,,,,
,,,,,R_9oqLGyhgfR2gYVj,001,2025-08-24_17h10.37.450,continuous_performance_test,2024.2.4,MacIntel,62.5,7d5726e5-7725-4ce0-b4e1-b7053cb630de,2,174.662,176.262,space,1,0.389,,0,21,21,9,1,J,space,,,,,,,,,,
,,,,,R_9oqLGyhgfR2gYVj,001,2025-08-24_17h10.37.450,continuous_performance_test,2024.2.4,MacIntel,62.5,7d5726e5-7725-4ce0-b4e1-b7053cb630de,2,176.264,178.263,space,1,0.356,,0,22,22,18,1,S,space,,,,,,,,,,
,,,,,R_9oqLGyhgfR2gYVj,001,2025-08-24_17h10.37.450,continuous_performance_test,2024.2.4,MacIntel,62.5,7d5726e5-7725-4ce0-b4e1-b7053cb630de,2,178.264,179.814,space,1,0.447,,0,23,23,20,1,U,space,,,,,,,,,,
,,,,,R_9oqLGyhgfR2gYVj,001,2025-08-24_17h10.37.450,continuous_performance_test,2024.2.4,MacIntel,62.5,7d5726e5-7725-4ce0-b4e1-b7053cb630de,2,179.816,181.465,,1,,,0,24,24,25,1,X,,,,,,,,,,,
,,,,,R_9oqLGyhgfR2gYVj,001,2025-08-24_17h10.37.450,continuous_performance_test,2024.2.4,MacIntel,62.5,7d5726e5-7725-4ce0-b4e1-b7053cb630de,2,181.467,183.216,space,1,0.429,,0,25,25,6,1,G,space,,,,,,,,,,
,,,,,R_9oqLGyhgfR2gYVj,001,2025-08-24_17h10.37.450,continuous_performance_test,2024.2.4,MacIntel,62.5,7d5726e5-7725-4ce0-b4e1-b7053cb630de,2,183.218,185.167,space,1,0.398,,0,26,26,14,1,O,space,,,,,,,,,,
,,,,,R_9oqLGyhgfR2gYVj,001,2025-08-24_17h10.37.450,continuous_performance_test,2024.2.4,MacIntel,62.5,7d5726e5-7725-4ce0-b4e1-b7053cb630de,2,185.168,187.068,space,1,0.431,,0,27,27,24,1,Z,space,,,,,,,,,,
,,,,,R_9oqLGyhgfR2gYVj,001,2025-08-24_17h10.37.450,continuous_performance_test,2024.2.4,MacIntel,62.5,7d5726e5-7725-4ce0-b4e1-b7053cb630de,2,187.07,189.069,space,1,0.348,,0,28,28,19,1,T,space,,,,,,,,,,
,,,,,R_9oqLGyhgfR2gYVj,001,2025-08-24_17h10.37.450,continuous_performance_test,2024.2.4,MacIntel,62.5,7d5726e5-7725-4ce0-b4e1-b7053cb630de,2,189.07,190.671,space,1,0.39,,0,29,29,21,1,V,space,,,,,,,,,,
,,,,,R_9oqLGyhgfR2gYVj,001,2025-08-24_17h10.37.450,continuous_performance_test,2024.2.4,MacIntel,62.5,7d5726e5-7725-4ce0-b4e1-b7053cb630de,2,192.636,194.239,space,1,0.417,,0,0,0,10,1,K,space,190.672,192.628,space,1.935,,,,,,
,,,,,R_9oqLGyhgfR2gYVj,001,2025-08-24_17h10.37.450,continuous_performance_test,2024.2.4,MacIntel,62.5,7d5726e5-7725-4ce0-b4e1-b7053cb630de,2,194.24,195.99,space,0,0.358,,0,1,1,26,1,X,,,,,,,,,,,
,,,,,R_9oqLGyhgfR2gYVj,001,2025-08-24_17h10.37.450,continuous_performance_test,2024.2.4,MacIntel,62.5,7d5726e5-7725-4ce0-b4e1-b7053cb630de,2,195.991,197.541,space,1,0.348,,0,2,2,15,1,P,space,,,,,,,,,,
,,,,,R_9oqLGyhgfR2gYVj,001,2025-08-24_17h10.37.450,continuous_performance_test,2024.2.4,MacIntel,62.5,7d5726e5-7725-4ce0-b4e1-b7053cb630de,2,197.542,199.242,,1,,,0,3,3,25,1,X,,,,,,,,,,,
,,,,,R_9oqLGyhgfR2gYVj,001,2025-08-24_17h10.37.450,continuous_performance_test,2024.2.4,MacIntel,62.5,7d5726e5-7725-4ce0-b4e1-b7053cb630de,2,199.243,201.043,,1,,,0,4,4,29,1,X,,,,,,,,,,,
,,,,,R_9oqLGyhgfR2gYVj,001,2025-08-24_17h10.37.450,continuous_performance_test,2024.2.4,MacIntel,62.5,7d5726e5-7725-4ce0-b4e1-b7053cb630de,2,201.046,202.644,space,1,0.55,,0,5,5,21,1,V,space,,,,,,,,,,
,,,,,R_9oqLGyhgfR2gYVj,001,2025-08-24_17h10.37.450,continuous_performance_test,2024.2.4,MacIntel,62.5,7d5726e5-7725-4ce0-b4e1-b7053cb630de,2,202.645,204.545,space,1,0.447,,0,6,6,4,1,E,space,,,,,,,,,,
,,,,,R_9oqLGyhgfR2gYVj,001,2025-08-24_17h10.37.450,continuous_performance_test,2024.2.4,MacIntel,62.5,7d5726e5-7725-4ce0-b4e1-b7053cb630de,2,204.546,206.196,space,1,0.439,,0,7,7,24,1,Z,space,,,,,,,,,,
,,,,,R_9oqLGyhgfR2gYVj,001,2025-08-24_17h10.37.450,continuous_performance_test,2024.2.4,MacIntel,62.5,7d5726e5-7725-4ce0-b4e1-b7053cb630de,2,206.197,208.047,space,1,0.391,,0,8,8,1,1,B,space,,,,,,,,,,
,,,,,R_9oqLGyhgfR2gYVj,001,2025-08-24_17h10.37.450,continuous_performance_test,2024.2.4,MacIntel,62.5,7d5726e5-7725-4ce0-b4e1-b7053cb630de,2,208.049,209.648,space,1,0.463,,0,9,9,14,1,O,space,,,,,,,,,,
,,,,,R_9oqLGyhgfR2gYVj,001,2025-08-24_17h10.37.450,continuous_performance_test,2024.2.4,MacIntel,62.5,7d5726e5-7725-4ce0-b4e1-b7053cb630de,2,209.649,211.649,space,1,0.357,,0,10,10,3,1,D,space,,,,,,,,,,
,,,,,R_9oqLGyhgfR2gYVj,001,2025-08-24_17h10.37.450,continuous_performance_test,2024.2.4,MacIntel,62.5,7d5726e5-7725-4ce0-b4e1-b7053cb630de,2,211.651,213.5,space,1,0.483,,0,11,11,22,1,W,space,,,,,,,,,,
,,,,,R_9oqLGyhgfR2gYVj,001,2025-08-24_17h10.37.450,continuous_performance_test,2024.2.4,MacIntel,62.5,7d5726e5-7725-4ce0-b4e1-b7053cb630de,2,213.502,215.401,space,1,0.36,,0,12,12,19,1,T,space,,,,,,,,,,
,,,,,R_9oqLGyhgfR2gYVj,001,2025-08-24_17h10.37.450,continuous_performance_test,2024.2.4,MacIntel,62.5,7d5726e5-7725-4ce0-b4e1-b7053cb630de,2,215.403,216.952,space,0,0.383,,0,13,13,28,1,X,,,,,,,,,,,
,,,,,R_9oqLGyhgfR2gYVj,001,2025-08-24_17h10.37.450,continuous_performance_test,2024.2.4,MacIntel,62.5,7d5726e5-7725-4ce0-b4e1-b7053cb630de,2,216.954,218.853,space,1,0.342,,0,14,14,8,1,I,space,,,,,,,,,,
,,,,,R_9oqLGyhgfR2gYVj,001,2025-08-24_17h10.37.450,continuous_performance_test,2024.2.4,MacIntel,62.5,7d5726e5-7725-4ce0-b4e1-b7053cb630de,2,218.854,220.755,space,1,0.375,,0,15,15,6,1,G,space,,,,,,,,,,
,,,,,R_9oqLGyhgfR2gYVj,001,2025-08-24_17h10.37.450,continuous_performance_test,2024.2.4,MacIntel,62.5,7d5726e5-7725-4ce0-b4e1-b7053cb630de,2,220.757,222.655,,1,,,0,16,16,27,1,X,,,,,,,,,,,
,,,,,R_9oqLGyhgfR2gYVj,001,2025-08-24_17h10.37.450,continuous_performance_test,2024.2.4,MacIntel,62.5,7d5726e5-7725-4ce0-b4e1-b7053cb630de,2,222.656,224.607,space,1,0.389,,0,17,17,20,1,U,space,,,,,,,,,,
,,,,,R_9oqLGyhgfR2gYVj,001,2025-08-24_17h10.37.450,continuous_performance_test,2024.2.4,MacIntel,62.5,7d5726e5-7725-4ce0-b4e1-b7053cb630de,2,224.608,226.357,space,1,0.447,,0,18,18,7,1,H,space,,,,,,,,,,
,,,,,R_9oqLGyhgfR2gYVj,001,2025-08-24_17h10.37.450,continuous_performance_test,2024.2.4,MacIntel,62.5,7d5726e5-7725-4ce0-b4e1-b7053cb630de,2,226.359,228.108,space,1,0.373,,0,19,19,0,1,A,space,,,,,,,,,,
,,,,,R_9oqLGyhgfR2gYVj,001,2025-08-24_17h10.37.450,continuous_performance_test,2024.2.4,MacIntel,62.5,7d5726e5-7725-4ce0-b4e1-b7053cb630de,2,228.109,230.11,space,1,0.374,,0,20,20,5,1,F,space,,,,,,,,,,
,,,,,R_9oqLGyhgfR2gYVj,001,2025-08-24_17h10.37.450,continuous_performance_test,2024.2.4,MacIntel,62.5,7d5726e5-7725-4ce0-b4e1-b7053cb630de,2,230.111,231.811,space,1,0.38,,0,21,21,12,1,M,space,,,,,,,,,,
,,,,,R_9oqLGyhgfR2gYVj,001,2025-08-24_17h10.37.450,continuous_performance_test,2024.2.4,MacIntel,62.5,7d5726e5-7725-4ce0-b4e1-b7053cb630de,2,231.811,233.812,space,1,0.432,,0,22,22,23,1,Y,space,,,,,,,,,,
,,,,,R_9oqLGyhgfR2gYVj,001,2025-08-24_17h10.37.450,continuous_performance_test,2024.2.4,MacIntel,62.5,7d5726e5-7725-4ce0-b4e1-b7053cb630de,2,233.813,235.663,space,1,0.397,,0,23,23,13,1,N,space,,,,,,,,,,
,,,,,R_9oqLGyhgfR2gYVj,001,2025-08-24_17h10.37.450,continuous_performance_test,2024.2.4,MacIntel,62.5,7d5726e5-7725-4ce0-b4e1-b7053cb630de,2,235.665,237.314,space,1,0.406,,0,24,24,11,1,L,space,,,,,,,,,,
,,,,,R_9oqLGyhgfR2gYVj,001,2025-08-24_17h10.37.450,continuous_performance_test,2024.2.4,MacIntel,62.5,7d5726e5-7725-4ce0-b4e1-b7053cb630de,2,237.315,239.115,space,1,0.507,,0,25,25,16,1,Q,space,,,,,,,,,,
,,,,,R_9oqLGyhgfR2gYVj,001,2025-08-24_17h10.37.450,continuous_performance_test,2024.2.4,MacIntel,62.5,7d5726e5-7725-4ce0-b4e1-b7053cb630de,2,239.117,240.916,space,1,0.316,,0,26,26,2,1,C,space,,,,,,,,,,
,,,,,R_9oqLGyhgfR2gYVj,001,2025-08-24_17h10.37.450,continuous_performance_test,2024.2.4,MacIntel,62.5,7d5726e5-7725-4ce0-b4e1-b7053cb630de,2,240.917,242.817,space,1,0.416,,0,27,27,17,1,R,space,,,,,,,,,,
,,,,,R_9oqLGyhgfR2gYVj,001,2025-08-24_17h10.37.450,continuous_performance_test,2024.2.4,MacIntel,62.5,7d5726e5-7725-4ce0-b4e1-b7053cb630de,2,242.819,244.468,space,1,0.357,,0,28,28,18,1,S,space,,,,,,,,,,
,,,,,R_9oqLGyhgfR2gYVj,001,2025-08-24_17h10.37.450,continuous_performance_test,2024.2.4,MacIntel,62.5,7d5726e5-7725-4ce0-b4e1-b7053cb630de,2,244.469,246.269,space,1,0.348,,0,29,29,9,1,J,space,,,,,,,,,,
,,,,,R_9oqLGyhgfR2gYVj,001,2025-08-24_17h10.37.450,continuous_performance_test,2024.2.4,MacIntel,62.5,7d5726e5-7725-4ce0-b4e1-b7053cb630de,2,247.618,249.271,space,1,0.365,,0,0,0,7,1,H,space,246.27,247.612,space,1.319,,,,,,
,,,,,R_9oqLGyhgfR2gYVj,001,2025-08-24_17h10.37.450,continuous_performance_test,2024.2.4,MacIntel,62.5,7d5726e5-7725-4ce0-b4e1-b7053cb630de,2,249.275,250.822,,1,,,0,1,1,25,1,X,,,,,,,,,,,
,,,,,R_9oqLGyhgfR2gYVj,001,2025-08-24_17h10.37.450,continuous_performance_test,2024.2.4,MacIntel,62.5,7d5726e5-7725-4ce0-b4e1-b7053cb630de,2,250.823,252.823,space,1,0.375,,0,2,2,5,1,F,space,,,,,,,,,,
,,,,,R_9oqLGyhgfR2gYVj,001,2025-08-24_17h10.37.450,continuous_performance_test,2024.2.4,MacIntel,62.5,7d5726e5-7725-4ce0-b4e1-b7053cb630de,2,252.824,254.374,space,1,0.368,,0,3,3,20,1,U,space,,,,,,,,,,
,,,,,R_9oqLGyhgfR2gYVj,001,2025-08-24_17h10.37.450,continuous_performance_test,2024.2.4,MacIntel,62.5,7d5726e5-7725-4ce0-b4e1-b7053cb630de,2,254.375,256.125,space,1,0.392,,0,4,4,21,1,V,space,,,,,,,,,,
,,,,,R_9oqLGyhgfR2gYVj,001,2025-08-24_17h10.37.450,continuous_performance_test,2024.2.4,MacIntel,62.5,7d5726e5-7725-4ce0-b4e1-b7053cb630de,2,256.127,257.776,space,1,0.374,,0,5,5,16,1,Q,space,,,,,,,,,,
,,,,,R_9oqLGyhgfR2gYVj,001,2025-08-24_17h10.37.450,continuous_performance_test,2024.2.4,MacIntel,62.5,7d5726e5-7725-4ce0-b4e1-b7053cb630de,2,257.777,259.427,space,1,0.38,,0,6,6,9,1,J,space,,,,,,,,,,
,,,,,R_9oqLGyhgfR2gYVj,001,2025-08-24_17h10.37.450,continuous_performance_test,2024.2.4,MacIntel,62.5,7d5726e5-7725-4ce0-b4e1-b7053cb630de,2,259.427,261.278,space,1,0.699,,0,7,7,24,1,Z,space,,,,,,,,,,
,,,,,R_9oqLGyhgfR2gYVj,001,2025-08-24_17h10.37.450,continuous_performance_test,2024.2.4,MacIntel,62.5,7d5726e5-7725-4ce0-b4e1-b7053cb630de,2,261.28,263.279,space,0,0.313,,0,8,8,26,1,X,,,,,,,,,,,
,,,,,R_9oqLGyhgfR2gYVj,001,2025-08-24_17h10.37.450,continuous_performance_test,2024.2.4,MacIntel,62.5,7d5726e5-7725-4ce0-b4e1-b7053cb630de,2,263.28,264.88,space,1,0.4,,0,9,9,17,1,R,space,,,,,,,,,,
,,,,,R_9oqLGyhgfR2gYVj,001,2025-08-24_17h10.37.450,continuous_performance_test,2024.2.4,MacIntel,62.5,7d5726e5-7725-4ce0-b4e1-b7053cb630de,2,264.882,266.781,space,1,0.381,,0,10,10,12,1,M,space,,,,,,,,,,
,,,,,R_9oqLGyhgfR2gYVj,001,2025-08-24_17h10.37.450,continuous_performance_test,2024.2.4,MacIntel,62.5,7d5726e5-7725-4ce0-b4e1-b7053cb630de,2,266.782,268.682,space,1,0.347,,0,11,11,4,1,E,space,,,,,,,,,,
,,,,,R_9oqLGyhgfR2gYVj,001,2025-08-24_17h10.37.450,continuous_performance_test,2024.2.4,MacIntel,62.5,7d5726e5-7725-4ce0-b4e1-b7053cb630de,2,268.687,270.383,space,1,0.342,,0,12,12,10,1,K,space,,,,,,,,,,
,,,,,R_9oqLGyhgfR2gYVj,001,2025-08-24_17h10.37.450,continuous_performance_test,2024.2.4,MacIntel,62.5,7d5726e5-7725-4ce0-b4e1-b7053cb630de,2,270.384,272.034,space,1,0.373,,0,13,13,8,1,I,space,,,,,,,,,,
,,,,,R_9oqLGyhgfR2gYVj,001,2025-08-24_17h10.37.450,continuous_performance_test,2024.2.4,MacIntel,62.5,7d5726e5-7725-4ce0-b4e1-b7053cb630de,2,272.035,273.685,space,1,0.342,,0,14,14,15,1,P,space,,,,,,,,,,
,,,,,R_9oqLGyhgfR2gYVj,001,2025-08-24_17h10.37.450,continuous_performance_test,2024.2.4,MacIntel,62.5,7d5726e5-7725-4ce0-b4e1-b7053cb630de,2,273.686,275.236,space,1,0.363,,0,15,15,0,1,A,space,,,,,,,,,,
,,,,,R_9oqLGyhgfR2gYVj,001,2025-08-24_17h10.37.450,continuous_performance_test,2024.2.4,MacIntel,62.5,7d5726e5-7725-4ce0-b4e1-b7053cb630de,2,275.237,276.887,space,1,0.348,,0,16,16,6,1,G,space,,,,,,,,,,
,,,,,R_9oqLGyhgfR2gYVj,001,2025-08-24_17h10.37.450,continuous_performance_test,2024.2.4,MacIntel,62.5,7d5726e5-7725-4ce0-b4e1-b7053cb630de,2,276.888,278.888,space,1,0.422,,0,17,17,3,1,D,space,,,,,,,,,,
,,,,,R_9oqLGyhgfR2gYVj,001,2025-08-24_17h10.37.450,continuous_performance_test,2024.2.4,MacIntel,62.5,7d5726e5-7725-4ce0-b4e1-b7053cb630de,2,278.889,280.789,space,1,0.422,,0,18,18,13,1,N,space,,,,,,,,,,
,,,,,R_9oqLGyhgfR2gYVj,001,2025-08-24_17h10.37.450,continuous_performance_test,2024.2.4,MacIntel,62.5,7d5726e5-7725-4ce0-b4e1-b7053cb630de,2,280.791,282.69,,1,,,0,19,19,29,1,X,,,,,,,,,,,
,,,,,R_9oqLGyhgfR2gYVj,001,2025-08-24_17h10.37.450,continuous_performance_test,2024.2.4,MacIntel,62.5,7d5726e5-7725-4ce0-b4e1-b7053cb630de,2,282.692,284.491,space,1,0.334,,0,20,20,18,1,S,space,,,,,,,,,,
,,,,,R_9oqLGyhgfR2gYVj,001,2025-08-24_17h10.37.450,continuous_performance_test,2024.2.4,MacIntel,62.5,7d5726e5-7725-4ce0-b4e1-b7053cb630de,2,284.492,286.092,space,1,0.383,,0,21,21,11,1,L,space,,,,,,,,,,
,,,,,R_9oqLGyhgfR2gYVj,001,2025-08-24_17h10.37.450,continuous_performance_test,2024.2.4,MacIntel,62.5,7d5726e5-7725-4ce0-b4e1-b7053cb630de,2,286.093,287.793,space,1,0.373,,0,22,22,1,1,B,space,,,,,,,,,,
,,,,,R_9oqLGyhgfR2gYVj,001,2025-08-24_17h10.37.450,continuous_performance_test,2024.2.4,MacIntel,62.5,7d5726e5-7725-4ce0-b4e1-b7053cb630de,2,287.794,289.494,space,1,0.624,,0,23,23,23,1,Y,space,,,,,,,,,,
,,,,,R_9oqLGyhgfR2gYVj,001,2025-08-24_17h10.37.450,continuous_performance_test,2024.2.4,MacIntel,62.5,7d5726e5-7725-4ce0-b4e1-b7053cb630de,2,289.495,291.095,space,1,0.357,,0,24,24,14,1,O,space,,,,,,,,,,
,,,,,R_9oqLGyhgfR2gYVj,001,2025-08-24_17h10.37.450,continuous_performance_test,2024.2.4,MacIntel,62.5,7d5726e5-7725-4ce0-b4e1-b7053cb630de,2,291.096,293.046,space,1,0.424,,0,25,25,22,1,W,space,,,,,,,,,,
,,,,,R_9oqLGyhgfR2gYVj,001,2025-08-24_17h10.37.450,continuous_performance_test,2024.2.4,MacIntel,62.5,7d5726e5-7725-4ce0-b4e1-b7053cb630de,2,293.049,294.847,space,0,0.355,,0,26,26,27,1,X,,,,,,,,,,,
,,,,,R_9oqLGyhgfR2gYVj,001,2025-08-24_17h10.37.450,continuous_performance_test,2024.2.4,MacIntel,62.5,7d5726e5-7725-4ce0-b4e1-b7053cb630de,2,294.848,296.748,space,1,0.398,,0,27,27,19,1,T,space,,,,,,,,,,
,,,,,R_9oqLGyhgfR2gYVj,001,2025-08-24_17h10.37.450,continuous_performance_test,2024.2.4,MacIntel,62.5,7d5726e5-7725-4ce0-b4e1-b7053cb630de,2,296.749,298.699,space,1,0.346,,0,28,28,2,1,C,space,,,,,,,,,,
,,,,,R_9oqLGyhgfR2gYVj,001,2025-08-24_17h10.37.450,continuous_performance_test,2024.2.4,MacIntel,62.5,7d5726e5-7725-4ce0-b4e1-b7053cb630de,2,298.7,300.35,,1,,,0,29,29,28,1,X,,,,,,,,,,,
,,,,,R_9oqLGyhgfR2gYVj,001,2025-08-24_17h10.37.450,continuous_performance_test,2024.2.4,MacIntel,62.5,7d5726e5-7725-4ce0-b4e1-b7053cb630de,2,301.493,303.235,space,1,0.447,,0,0,0,8,1,I,space,300.351,301.486,space,1.111,,,,,,
,,,,,R_9oqLGyhgfR2gYVj,001,2025-08-24_17h10.37.450,continuous_performance_test,2024.2.4,MacIntel,62.5,7d5726e5-7725-4ce0-b4e1-b7053cb630de,2,303.236,305.087,space,1,0.39,,0,1,1,22,1,W,space,,,,,,,,,,
,,,,,R_9oqLGyhgfR2gYVj,001,2025-08-24_17h10.37.450,continuous_performance_test,2024.2.4,MacIntel,62.5,7d5726e5-7725-4ce0-b4e1-b7053cb630de,2,305.088,307.038,space,1,0.44,,0,2,2,7,1,H,space,,,,,,,,,,
,,,,,R_9oqLGyhgfR2gYVj,001,2025-08-24_17h10.37.450,continuous_performance_test,2024.2.4,MacIntel,62.5,7d5726e5-7725-4ce0-b4e1-b7053cb630de,2,307.04,308.588,space,1,0.381,,0,3,3,21,1,V,space,,,,,,,,,,
,,,,,R_9oqLGyhgfR2gYVj,001,2025-08-24_17h10.37.450,continuous_performance_test,2024.2.4,MacIntel,62.5,7d5726e5-7725-4ce0-b4e1-b7053cb630de,2,308.59,310.59,space,1,0.441,,0,4,4,9,1,J,space,,,,,,,,,,
,,,,,R_9oqLGyhgfR2gYVj,001,2025-08-24_17h10.37.450,continuous_performance_test,2024.2.4,MacIntel,62.5,7d5726e5-7725-4ce0-b4e1-b7053cb630de,2,310.591,312.541,,1,,,0,5,5,27,1,X,,,,,,,,,,,
,,,,,R_9oqLGyhgfR2gYVj,001,2025-08-24_17h10.37.450,continuous_performance_test,2024.2.4,MacIntel,62.5,7d5726e5-7725-4ce0-b4e1-b7053cb630de,2,312.542,314.442,,1,,,0,6,6,29,1,X,,,,,,,,,,,
,,,,,R_9oqLGyhgfR2gYVj,001,2025-08-24_17h10.37.450,continuous_performance_test,2024.2.4,MacIntel,62.5,7d5726e5-7725-4ce0-b4e1-b7053cb630de,2,314.444,316.193,space,1,0.507,,0,7,7,23,1,Y,space,,,,,,,,,,
,,,,,R_9oqLGyhgfR2gYVj,001,2025-08-24_17h10.37.450,continuous_performance_test,2024.2.4,MacIntel,62.5,7d5726e5-7725-4ce0-b4e1-b7053cb630de,2,316.195,317.794,space,1,0.396,,0,8,8,19,1,T,space,,,,,,,,,,
,,,,,R_9oqLGyhgfR2gYVj,001,2025-08-24_17h10.37.450,continuous_performance_test,2024.2.4,MacIntel,62.5,7d5726e5-7725-4ce0-b4e1-b7053cb630de,2,317.795,319.745,space,1,0.497,,0,9,9,24,1,Z,space,,,,,,,,,,
,,,,,R_9oqLGyhgfR2gYVj,001,2025-08-24_17h10.37.450,continuous_performance_test,2024.2.4,MacIntel,62.5,7d5726e5-7725-4ce0-b4e1-b7053cb630de,2,319.746,321.396,space,1,0.389,,0,10,10,3,1,D,space,,,,,,,,,,
,,,,,R_9oqLGyhgfR2gYVj,001,2025-08-24_17h10.37.450,continuous_performance_test,2024.2.4,MacIntel,62.5,7d5726e5-7725-4ce0-b4e1-b7053cb630de,2,321.397,323.247,space,1,0.424,,0,11,11,6,1,G,space,,,,,,,,,,
,,,,,R_9oqLGyhgfR2gYVj,001,2025-08-24_17h10.37.450,continuous_performance_test,2024.2.4,MacIntel,62.5,7d5726e5-7725-4ce0-b4e1-b7053cb630de,2,323.249,325.198,space,1,0.397,,0,12,12,18,1,S,space,,,,,,,,,,
,,,,,R_9oqLGyhgfR2gYVj,001,2025-08-24_17h10.37.450,continuous_performance_test,2024.2.4,MacIntel,62.5,7d5726e5-7725-4ce0-b4e1-b7053cb630de,2,325.199,327.049,space,1,0.416,,0,13,13,5,1,F,space,,,,,,,,,,
,,,,,R_9oqLGyhgfR2gYVj,001,2025-08-24_17h10.37.450,continuous_performance_test,2024.2.4,MacIntel,62.5,7d5726e5-7725-4ce0-b4e1-b7053cb630de,2,327.051,328.65,space,1,0.464,,0,14,14,12,1,M,space,,,,,,,,,,
,,,,,R_9oqLGyhgfR2gYVj,001,2025-08-24_17h10.37.450,continuous_performance_test,2024.2.4,MacIntel,62.5,7d5726e5-7725-4ce0-b4e1-b7053cb630de,2,328.651,330.351,space,1,0.464,,0,15,15,2,1,C,space,,,,,,,,,,
,,,,,R_9oqLGyhgfR2gYVj,001,2025-08-24_17h10.37.450,continuous_performance_test,2024.2.4,MacIntel,62.5,7d5726e5-7725-4ce0-b4e1-b7053cb630de,2,330.352,332.302,space,1,0.406,,0,16,16,15,1,P,space,,,,,,,,,,
,,,,,R_9oqLGyhgfR2gYVj,001,2025-08-24_17h10.37.450,continuous_performance_test,2024.2.4,MacIntel,62.5,7d5726e5-7725-4ce0-b4e1-b7053cb630de,2,332.304,334.103,,1,,,0,17,17,25,1,X,,,,,,,,,,,
,,,,,R_9oqLGyhgfR2gYVj,001,2025-08-24_17h10.37.450,continuous_performance_test,2024.2.4,MacIntel,62.5,7d5726e5-7725-4ce0-b4e1-b7053cb630de,2,334.104,336.004,space,1,0.331,,0,18,18,4,1,E,space,,,,,,,,,,
,,,,,R_9oqLGyhgfR2gYVj,001,2025-08-24_17h10.37.450,continuous_performance_test,2024.2.4,MacIntel,62.5,7d5726e5-7725-4ce0-b4e1-b7053cb630de,2,336.006,337.955,space,1,0.375,,0,19,19,13,1,N,space,,,,,,,,,,
,,,,,R_9oqLGyhgfR2gYVj,001,2025-08-24_17h10.37.450,continuous_performance_test,2024.2.4,MacIntel,62.5,7d5726e5-7725-4ce0-b4e1-b7053cb630de,2,337.956,339.707,space,1,0.392,,0,20,20,10,1,K,space,,,,,,,,,,
,,,,,R_9oqLGyhgfR2gYVj,001,2025-08-24_17h10.37.450,continuous_performance_test,2024.2.4,MacIntel,62.5,7d5726e5-7725-4ce0-b4e1-b7053cb630de,2,339.708,341.507,space,1,0.367,,0,21,21,20,1,U,space,,,,,,,,,,
,,,,,R_9oqLGyhgfR2gYVj,001,2025-08-24_17h10.37.450,continuous_performance_test,2024.2.4,MacIntel,62.5,7d5726e5-7725-4ce0-b4e1-b7053cb630de,2,341.509,343.508,space,1,0.365,,0,22,22,16,1,Q,space,,,,,,,,,,
,,,,,R_9oqLGyhgfR2gYVj,001,2025-08-24_17h10.37.450,continuous_performance_test,2024.2.4,MacIntel,62.5,7d5726e5-7725-4ce0-b4e1-b7053cb630de,2,343.51,345.159,space,1,0.485,,0,23,23,1,1,B,space,,,,,,,,,,
,,,,,R_9oqLGyhgfR2gYVj,001,2025-08-24_17h10.37.450,continuous_performance_test,2024.2.4,MacIntel,62.5,7d5726e5-7725-4ce0-b4e1-b7053cb630de,2,345.161,347.06,space,1,0.39,,0,24,24,17,1,R,space,,,,,,,,,,
,,,,,R_9oqLGyhgfR2gYVj,001,2025-08-24_17h10.37.450,continuous_performance_test,2024.2.4,MacIntel,62.5,7d5726e5-7725-4ce0-b4e1-b7053cb630de,2,347.061,348.912,space,1,0.391,,0,25,25,0,1,A,space,,,,,,,,,,
,,,,,R_9oqLGyhgfR2gYVj,001,2025-08-24_17h10.37.450,continuous_performance_test,2024.2.4,MacIntel,62.5,7d5726e5-7725-4ce0-b4e1-b7053cb630de,2,348.915,350.913,,1,,,0,26,26,28,1,X,,,,,,,,,,,
,,,,,R_9oqLGyhgfR2gYVj,001,2025-08-24_17h10.37.450,continuous_performance_test,2024.2.4,MacIntel,62.5,7d5726e5-7725-4ce0-b4e1-b7053cb630de,2,350.916,352.914,space,1,0.399,,0,27,27,14,1,O,space,,,,,,,,,,
,,,,,R_9oqLGyhgfR2gYVj,001,2025-08-24_17h10.37.450,continuous_performance_test,2024.2.4,MacIntel,62.5,7d5726e5-7725-4ce0-b4e1-b7053cb630de,2,352.915,354.515,space,1,0.373,,0,28,28,11,1,L,space,,,,,,,,,,
,,,,,R_9oqLGyhgfR2gYVj,001,2025-08-24_17h10.37.450,continuous_performance_test,2024.2.4,MacIntel,62.5,7d5726e5-7725-4ce0-b4e1-b7053cb630de,2,354.517,356.216,,1,,,0,29,29,26,1,X,,,,,,,,,,,
,,,,,R_9oqLGyhgfR2gYVj,001,2025-08-24_17h10.37.450,continuous_performance_test,2024.2.4,MacIntel,62.5,7d5726e5-7725-4ce0-b4e1-b7053cb630de,2,357.007,358.901,space,1,0.601,,0,0,0,17,1,R,space,356.218,357.001,space,0.761,,,,,,
,,,,,R_9oqLGyhgfR2gYVj,001,2025-08-24_17h10.37.450,continuous_performance_test,2024.2.4,MacIntel,62.5,7d5726e5-7725-4ce0-b4e1-b7053cb630de,2,358.902,360.652,space,1,0.357,,0,1,1,8,1,I,space,,,,,,,,,,
,,,,,R_9oqLGyhgfR2gYVj,001,2025-08-24_17h10.37.450,continuous_performance_test,2024.2.4,MacIntel,62.5,7d5726e5-7725-4ce0-b4e1-b7053cb630de,2,360.653,362.203,space,1,0.447,,0,2,2,20,1,U,space,,,,,,,,,,
,,,,,R_9oqLGyhgfR2gYVj,001,2025-08-24_17h10.37.450,continuous_performance_test,2024.2.4,MacIntel,62.5,7d5726e5-7725-4ce0-b4e1-b7053cb630de,2,362.204,363.804,space,1,0.389,,0,3,3,16,1,Q,space,,,,,,,,,,
,,,,,R_9oqLGyhgfR2gYVj,001,2025-08-24_17h10.37.450,continuous_performance_test,2024.2.4,MacIntel,62.5,7d5726e5-7725-4ce0-b4e1-b7053cb630de,2,363.806,365.604,space,1,0.381,,0,4,4,11,1,L,space,,,,,,,,,,
,,,,,R_9oqLGyhgfR2gYVj,001,2025-08-24_17h10.37.450,continuous_performance_test,2024.2.4,MacIntel,62.5,7d5726e5-7725-4ce0-b4e1-b7053cb630de,2,365.606,367.306,space,1,0.34,,0,5,5,18,1,S,space,,,,,,,,,,
,,,,,R_9oqLGyhgfR2gYVj,001,2025-08-24_17h10.37.450,continuous_performance_test,2024.2.4,MacIntel,62.5,7d5726e5-7725-4ce0-b4e1-b7053cb630de,2,367.307,369.057,space,1,0.348,,0,6,6,13,1,N,space,,,,,,,,,,
,,,,,R_9oqLGyhgfR2gYVj,001,2025-08-24_17h10.37.450,continuous_performance_test,2024.2.4,MacIntel,62.5,7d5726e5-7725-4ce0-b4e1-b7053cb630de,2,369.057,370.608,space,1,0.358,,0,7,7,22,1,W,space,,,,,,,,,,
,,,,,R_9oqLGyhgfR2gYVj,001,2025-08-24_17h10.37.450,continuous_performance_test,2024.2.4,MacIntel,62.5,7d5726e5-7725-4ce0-b4e1-b7053cb630de,2,370.61,372.459,space,1,0.407,,0,8,8,19,1,T,space,,,,,,,,,,
,,,,,R_9oqLGyhgfR2gYVj,001,2025-08-24_17h10.37.450,continuous_performance_test,2024.2.4,MacIntel,62.5,7d5726e5-7725-4ce0-b4e1-b7053cb630de,2,372.461,374.46,space,1,0.363,,0,9,9,24,1,Z,space,,,,,,,,,,
,,,,,R_9oqLGyhgfR2gYVj,001,2025-08-24_17h10.37.450,continuous_performance_test,2024.2.4,MacIntel,62.5,7d5726e5-7725-4ce0-b4e1-b7053cb630de,2,374.461,376.461,space,1,0.498,,0,10,10,10,1,K,space,,,,,,,,,,
,,,,,R_9oqLGyhgfR2gYVj,001,2025-08-24_17h10.37.450,continuous_performance_test,2024.2.4,MacIntel,62.5,7d5726e5-7725-4ce0-b4e1-b7053cb630de,2,376.463,378.462,space,1,0.381,,0,11,11,12,1,M,space,,,,,,,,,,
,,,,,R_9oqLGyhgfR2gYVj,001,2025-08-24_17h10.37.450,continuous_performance_test,2024.2.4,MacIntel,62.5,7d5726e5-7725-4ce0-b4e1-b7053cb630de,2,378.463,380.063,space,1,0.406,,0,12,12,3,1,D,space,,,,,,,,,,
,,,,,R_9oqLGyhgfR2gYVj,001,2025-08-24_17h10.37.450,continuous_performance_test,2024.2.4,MacIntel,62.5,7d5726e5-7725-4ce0-b4e1-b7053cb630de,2,380.065,382.064,space,1,0.389,,0,13,13,9,1,J,space,,,,,,,,,,
,,,,,R_9oqLGyhgfR2gYVj,001,2025-08-24_17h10.37.450,continuous_performance_test,2024.2.4,MacIntel,62.5,7d5726e5-7725-4ce0-b4e1-b7053cb630de,2,382.066,383.765,,1,,,0,14,14,25,1,X,,,,,,,,,,,
,,,,,R_9oqLGyhgfR2gYVj,001,2025-08-24_17h10.37.450,continuous_performance_test,2024.2.4,MacIntel,62.5,7d5726e5-7725-4ce0-b4e1-b7053cb630de,2,383.766,385.666,space,1,0.416,,0,15,15,5,1,F,space,,,,,,,,,,
,,,,,R_9oqLGyhgfR2gYVj,001,2025-08-24_17h10.37.450,continuous_performance_test,2024.2.4,MacIntel,62.5,7d5726e5-7725-4ce0-b4e1-b7053cb630de,2,385.668,387.517,space,1,0.371,,0,16,16,2,1,C,space,,,,,,,,,,
,,,,,R_9oqLGyhgfR2gYVj,001,2025-08-24_17h10.37.450,continuous_performance_test,2024.2.4,MacIntel,62.5,7d5726e5-7725-4ce0-b4e1-b7053cb630de,2,387.519,389.468,space,1,0.357,,0,17,17,15,1,P,space,,,,,,,,,,
,,,,,R_9oqLGyhgfR2gYVj,001,2025-08-24_17h10.37.450,continuous_performance_test,2024.2.4,MacIntel,62.5,7d5726e5-7725-4ce0-b4e1-b7053cb630de,2,389.469,391.32,space,1,0.282,,0,18,18,4,1,E,space,,,,,,,,,,
,,,,,R_9oqLGyhgfR2gYVj,001,2025-08-24_17h10.37.450,continuous_performance_test,2024.2.4,MacIntel,62.5,7d5726e5-7725-4ce0-b4e1-b7053cb630de,2,391.321,393.321,space,1,0.331,,0,19,19,6,1,G,space,,,,,,,,,,
,,,,,R_9oqLGyhgfR2gYVj,001,2025-08-24_17h10.37.450,continuous_performance_test,2024.2.4,MacIntel,62.5,7d5726e5-7725-4ce0-b4e1-b7053cb630de,2,393.323,394.872,space,1,0.308,,0,20,20,14,1,O,space,,,,,,,,,,
,,,,,R_9oqLGyhgfR2gYVj,001,2025-08-24_17h10.37.450,continuous_performance_test,2024.2.4,MacIntel,62.5,7d5726e5-7725-4ce0-b4e1-b7053cb630de,2,394.874,396.573,,1,,,0,21,21,27,1,X,,,,,,,,,,,
,,,,,R_9oqLGyhgfR2gYVj,001,2025-08-24_17h10.37.450,continuous_performance_test,2024.2.4,MacIntel,62.5,7d5726e5-7725-4ce0-b4e1-b7053cb630de,2,396.574,398.123,,1,,,0,22,22,28,1,X,,,,,,,,,,,
,,,,,R_9oqLGyhgfR2gYVj,001,2025-08-24_17h10.37.450,continuous_performance_test,2024.2.4,MacIntel,62.5,7d5726e5-7725-4ce0-b4e1-b7053cb630de,2,398.124,400.125,,1,,,0,23,23,29,1,X,,,,,,,,,,,
,,,,,R_9oqLGyhgfR2gYVj,001,2025-08-24_17h10.37.450,continuous_performance_test,2024.2.4,MacIntel,62.5,7d5726e5-7725-4ce0-b4e1-b7053cb630de,2,400.126,401.976,space,1,0.491,,0,24,24,21,1,V,space,,,,,,,,,,
,,,,,R_9oqLGyhgfR2gYVj,001,2025-08-24_17h10.37.450,continuous_performance_test,2024.2.4,MacIntel,62.5,7d5726e5-7725-4ce0-b4e1-b7053cb630de,2,401.977,403.727,space,1,0.366,,0,25,25,1,1,B,space,,,,,,,,,,
,,,,,R_9oqLGyhgfR2gYVj,001,2025-08-24_17h10.37.450,continuous_performance_test,2024.2.4,MacIntel,62.5,7d5726e5-7725-4ce0-b4e1-b7053cb630de,2,403.728,405.377,,1,,,0,26,26,26,1,X,,,,,,,,,,,
,,,,,R_9oqLGyhgfR2gYVj,001,2025-08-24_17h10.37.450,continuous_performance_test,2024.2.4,MacIntel,62.5,7d5726e5-7725-4ce0-b4e1-b7053cb630de,2,405.378,407.228,space,1,0.382,,0,27,27,0,1,A,space,,,,,,,,,,
,,,,,R_9oqLGyhgfR2gYVj,001,2025-08-24_17h10.37.450,continuous_performance_test,2024.2.4,MacIntel,62.5,7d5726e5-7725-4ce0-b4e1-b7053cb630de,2,407.23,409.08,space,1,0.517,,0,28,28,23,1,Y,space,,,,,,,,,,
,,,,,R_9oqLGyhgfR2gYVj,001,2025-08-24_17h10.37.450,continuous_performance_test,2024.2.4,MacIntel,62.5,7d5726e5-7725-4ce0-b4e1-b7053cb630de,2,409.081,410.781,space,1,0.399,,0,29,29,7,1,H,space,,,,,,,,,,
,,,,,R_9oqLGyhgfR2gYVj,001,2025-08-24_17h10.37.450,continuous_performance_test,2024.2.4,MacIntel,62.5,7d5726e5-7725-4ce0-b4e1-b7053cb630de,2,411.829,413.683,space,1,0.466,,0,0,0,13,1,N,space,410.782,411.822,space,1.018,,,,,,
,,,,,R_9oqLGyhgfR2gYVj,001,2025-08-24_17h10.37.450,continuous_performance_test,2024.2.4,MacIntel,62.5,7d5726e5-7725-4ce0-b4e1-b7053cb630de,2,413.684,415.484,space,1,0.349,,0,1,1,5,1,F,space,,,,,,,,,,
,,,,,R_9oqLGyhgfR2gYVj,001,2025-08-24_17h10.37.450,continuous_performance_test,2024.2.4,MacIntel,62.5,7d5726e5-7725-4ce0-b4e1-b7053cb630de,2,415.486,417.135,space,1,0.374,,0,2,2,10,1,K,space,,,,,,,,,,
,,,,,R_9oqLGyhgfR2gYVj,001,2025-08-24_17h10.37.450,continuous_performance_test,2024.2.4,MacIntel,62.5,7d5726e5-7725-4ce0-b4e1-b7053cb630de,2,417.136,419.135,space,1,0.426,,0,3,3,8,1,I,space,,,,,,,,,,
,,,,,R_9oqLGyhgfR2gYVj,001,2025-08-24_17h10.37.450,continuous_performance_test,2024.2.4,MacIntel,62.5,7d5726e5-7725-4ce0-b4e1-b7053cb630de,2,419.136,421.137,space,1,0.456,,0,4,4,12,1,M,space,,,,,,,,,,
,,,,,R_9oqLGyhgfR2gYVj,001,2025-08-24_17h10.37.450,continuous_performance_test,2024.2.4,MacIntel,62.5,7d5726e5-7725-4ce0-b4e1-b7053cb630de,2,421.139,422.738,space,1,0.397,,0,5,5,23,1,Y,space,,,,,,,,,,
,,,,,R_9oqLGyhgfR2gYVj,001,2025-08-24_17h10.37.450,continuous_performance_test,2024.2.4,MacIntel,62.5,7d5726e5-7725-4ce0-b4e1-b7053cb630de,2,422.74,424.539,space,1,0.391,,0,6,6,16,1,Q,space,,,,,,,,,,
,,,,,R_9oqLGyhgfR2gYVj,001,2025-08-24_17h10.37.450,continuous_performance_test,2024.2.4,MacIntel,62.5,7d5726e5-7725-4ce0-b4e1-b7053cb630de,2,424.541,426.49,space,1,0.374,,0,7,7,19,1,T,space,,,,,,,,,,
,,,,,R_9oqLGyhgfR2gYVj,001,2025-08-24_17h10.37.450,continuous_performance_test,2024.2.4,MacIntel,62.5,7d5726e5-7725-4ce0-b4e1-b7053cb630de,2,426.491,428.341,,1,,,0,8,8,25,1,X,,,,,,,,,,,
,,,,,R_9oqLGyhgfR2gYVj,001,2025-08-24_17h10.37.450,continuous_performance_test,2024.2.4,MacIntel,62.5,7d5726e5-7725-4ce0-b4e1-b7053cb630de,2,428.343,430.192,space,0,0.319,,0,9,9,26,1,X,,,,,,,,,,,
,,,,,R_9oqLGyhgfR2gYVj,001,2025-08-24_17h10.37.450,continuous_performance_test,2024.2.4,MacIntel,62.5,7d5726e5-7725-4ce0-b4e1-b7053cb630de,2,430.194,431.843,space,1,0.389,,0,10,10,22,1,W,space,,,,,,,,,,
,,,,,R_9oqLGyhgfR2gYVj,001,2025-08-24_17h10.37.450,continuous_performance_test,2024.2.4,MacIntel,62.5,7d5726e5-7725-4ce0-b4e1-b7053cb630de,2,431.844,433.794,space,1,0.383,,0,11,11,9,1,J,space,,,,,,,,,,
,,,,,R_9oqLGyhgfR2gYVj,001,2025-08-24_17h10.37.450,continuous_performance_test,2024.2.4,MacIntel,62.5,7d5726e5-7725-4ce0-b4e1-b7053cb630de,2,433.795,435.695,space,1,0.381,,0,12,12,15,1,P,space,,,,,,,,,,
,,,,,R_9oqLGyhgfR2gYVj,001,2025-08-24_17h10.37.450,continuous_performance_test,2024.2.4,MacIntel,62.5,7d5726e5-7725-4ce0-b4e1-b7053cb630de,2,435.697,437.346,,1,,,0,13,13,27,1,X,,,,,,,,,,,
,,,,,R_9oqLGyhgfR2gYVj,001,2025-08-24_17h10.37.450,continuous_performance_test,2024.2.4,MacIntel,62.5,7d5726e5-7725-4ce0-b4e1-b7053cb630de,2,437.348,439.197,space,1,0.375,,0,14,14,7,1,H,space,,,,,,,,,,
,,,,,R_9oqLGyhgfR2gYVj,001,2025-08-24_17h10.37.450,continuous_performance_test,2024.2.4,MacIntel,62.5,7d5726e5-7725-4ce0-b4e1-b7053cb630de,2,439.199,440.798,space,1,0.363,,0,15,15,20,1,U,space,,,,,,,,,,
,,,,,R_9oqLGyhgfR2gYVj,001,2025-08-24_17h10.37.450,continuous_performance_test,2024.2.4,MacIntel,62.5,7d5726e5-7725-4ce0-b4e1-b7053cb630de,2,440.799,442.349,space,1,0.406,,0,16,16,14,1,O,space,,,,,,,,,,
,,,,,R_9oqLGyhgfR2gYVj,001,2025-08-24_17h10.37.450,continuous_performance_test,2024.2.4,MacIntel,62.5,7d5726e5-7725-4ce0-b4e1-b7053cb630de,2,442.35,443.9,space,1,0.387,,0,17,17,6,1,G,space,,,,,,,,,,
,,,,,R_9oqLGyhgfR2gYVj,001,2025-08-24_17h10.37.450,continuous_performance_test,2024.2.4,MacIntel,62.5,7d5726e5-7725-4ce0-b4e1-b7053cb630de,2,443.901,445.751,,1,,,0,18,18,29,1,X,,,,,,,,,,,
,,,,,R_9oqLGyhgfR2gYVj,001,2025-08-24_17h10.37.450,continuous_performance_test,2024.2.4,MacIntel,62.5,7d5726e5-7725-4ce0-b4e1-b7053cb630de,2,445.752,447.352,space,1,0.413,,0,19,19,4,1,E,space,,,,,,,,,,
,,,,,R_9oqLGyhgfR2gYVj,001,2025-08-24_17h10.37.450,continuous_performance_test,2024.2.4,MacIntel,62.5,7d5726e5-7725-4ce0-b4e1-b7053cb630de,2,447.353,449.253,space,1,0.385,,0,20,20,11,1,L,space,,,,,,,,,,
,,,,,R_9oqLGyhgfR2gYVj,001,2025-08-24_17h10.37.450,continuous_performance_test,2024.2.4,MacIntel,62.5,7d5726e5-7725-4ce0-b4e1-b7053cb630de,2,449.255,451.254,space,1,0.43,,0,21,21,1,1,B,space,,,,,,,,,,
,,,,,R_9oqLGyhgfR2gYVj,001,2025-08-24_17h10.37.450,continuous_performance_test,2024.2.4,MacIntel,62.5,7d5726e5-7725-4ce0-b4e1-b7053cb630de,2,451.255,453.155,space,1,0.34,,0,22,22,3,1,D,space,,,,,,,,,,
,,,,,R_9oqLGyhgfR2gYVj,001,2025-08-24_17h10.37.450,continuous_performance_test,2024.2.4,MacIntel,62.5,7d5726e5-7725-4ce0-b4e1-b7053cb630de,2,453.156,454.706,space,1,0.346,,0,23,23,18,1,S,space,,,,,,,,,,
,,,,,R_9oqLGyhgfR2gYVj,001,2025-08-24_17h10.37.450,continuous_performance_test,2024.2.4,MacIntel,62.5,7d5726e5-7725-4ce0-b4e1-b7053cb630de,2,454.707,456.507,,1,,,0,24,24,28,1,X,,,,,,,,,,,
,,,,,R_9oqLGyhgfR2gYVj,001,2025-08-24_17h10.37.450,continuous_performance_test,2024.2.4,MacIntel,62.5,7d5726e5-7725-4ce0-b4e1-b7053cb630de,2,456.509,458.508,space,1,0.525,,0,25,25,0,1,A,space,,,,,,,,,,
,,,,,R_9oqLGyhgfR2gYVj,001,2025-08-24_17h10.37.450,continuous_performance_test,2024.2.4,MacIntel,62.5,7d5726e5-7725-4ce0-b4e1-b7053cb630de,2,458.509,460.31,space,1,0.507,,0,26,26,21,1,V,space,,,,,,,,,,
,,,,,R_9oqLGyhgfR2gYVj,001,2025-08-24_17h10.37.450,continuous_performance_test,2024.2.4,MacIntel,62.5,7d5726e5-7725-4ce0-b4e1-b7053cb630de,2,460.311,462.11,space,1,0.368,,0,27,27,2,1,C,space,,,,,,,,,,
,,,,,R_9oqLGyhgfR2gYVj,001,2025-08-24_17h10.37.450,continuous_performance_test,2024.2.4,MacIntel,62.5,7d5726e5-7725-4ce0-b4e1-b7053cb630de,2,462.111,463.761,space,1,0.355,,0,28,28,24,1,Z,space,,,,,,,,,,
,,,,,R_9oqLGyhgfR2gYVj,001,2025-08-24_17h10.37.450,continuous_performance_test,2024.2.4,MacIntel,62.5,7d5726e5-7725-4ce0-b4e1-b7053cb630de,2,463.762,465.362,space,1,0.399,,0,29,29,17,1,R,space,,,,,,,,,,
,,,,,R_9oqLGyhgfR2gYVj,001,2025-08-24_17h10.37.450,continuous_performance_test,2024.2.4,MacIntel,62.5,7d5726e5-7725-4ce0-b4e1-b7053cb630de,2,466.103,467.998,,1,,,0,0,0,29,1,X,,465.364,466.096,space,0.709,,,,,,
,,,,,R_9oqLGyhgfR2gYVj,001,2025-08-24_17h10.37.450,continuous_performance_test,2024.2.4,MacIntel,62.5,7d5726e5-7725-4ce0-b4e1-b7053cb630de,2,467.999,469.548,space,1,0.446,,0,1,1,24,1,Z,space,,,,,,,,,,
,,,,,R_9oqLGyhgfR2gYVj,001,2025-08-24_17h10.37.450,continuous_performance_test,2024.2.4,MacIntel,62.5,7d5726e5-7725-4ce0-b4e1-b7053cb630de,2,469.549,471.299,space,1,0.405,,0,2,2,0,1,A,space,,,,,,,,,,
,,,,,R_9oqLGyhgfR2gYVj,001,2025-08-24_17h10.37.450,continuous_performance_test,2024.2.4,MacIntel,62.5,7d5726e5-7725-4ce0-b4e1-b7053cb630de,2,471.301,472.95,space,1,0.35,,0,3,3,10,1,K,space,,,,,,,,,,
,,,,,R_9oqLGyhgfR2gYVj,001,2025-08-24_17h10.37.450,continuous_performance_test,2024.2.4,MacIntel,62.5,7d5726e5-7725-4ce0-b4e1-b7053cb630de,2,472.951,474.701,space,1,0.429,,0,4,4,19,1,T,space,,,,,,,,,,
,,,,,R_9oqLGyhgfR2gYVj,001,2025-08-24_17h10.37.450,continuous_performance_test,2024.2.4,MacIntel,62.5,7d5726e5-7725-4ce0-b4e1-b7053cb630de,2,474.702,476.252,,1,,,0,5,5,25,1,X,,,,,,,,,,,
,,,,,R_9oqLGyhgfR2gYVj,001,2025-08-24_17h10.37.450,continuous_performance_test,2024.2.4,MacIntel,62.5,7d5726e5-7725-4ce0-b4e1-b7053cb630de,2,476.253,478.203,space,1,0.331,,0,6,6,18,1,S,space,,,,,,,,,,
,,,,,R_9oqLGyhgfR2gYVj,001,2025-08-24_17h10.37.450,continuous_performance_test,2024.2.4,MacIntel,62.5,7d5726e5-7725-4ce0-b4e1-b7053cb630de,2,478.204,479.854,space,1,0.358,,0,7,7,9,1,J,space,,,,,,,,,,
,,,,,R_9oqLGyhgfR2gYVj,001,2025-08-24_17h10.37.450,continuous_performance_test,2024.2.4,MacIntel,62.5,7d5726e5-7725-4ce0-b4e1-b7053cb630de,2,479.856,481.805,space,1,0.405,,0,8,8,6,1,G,space,,,,,,,,,,
,,,,,R_9oqLGyhgfR2gYVj,001,2025-08-24_17h10.37.450,continuous_performance_test,2024.2.4,MacIntel,62.5,7d5726e5-7725-4ce0-b4e1-b7053cb630de,2,481.806,483.456,space,1,0.389,,0,9,9,17,1,R,space,,,,,,,,,,
,,,,,R_9oqLGyhgfR2gYVj,001,2025-08-24_17h10.37.450,continuous_performance_test,2024.2.4,MacIntel,62.5,7d5726e5-7725-4ce0-b4e1-b7053cb630de,2,483.458,485.007,space,1,0.601,,0,10,10,12,1,M,space,,,,,,,,,,
,,,,,R_9oqLGyhgfR2gYVj,001,2025-08-24_17h10.37.450,continuous_performance_test,2024.2.4,MacIntel,62.5,7d5726e5-7725-4ce0-b4e1-b7053cb630de,2,485.008,486.958,space,1,0.374,,0,11,11,14,1,O,space,,,,,,,,,,
,,,,,R_9oqLGyhgfR2gYVj,001,2025-08-24_17h10.37.450,continuous_performance_test,2024.2.4,MacIntel,62.5,7d5726e5-7725-4ce0-b4e1-b7053cb630de,2,486.959,488.959,space,1,0.366,,0,12,12,21,1,V,space,,,,,,,,,,
,,,,,R_9oqLGyhgfR2gYVj,001,2025-08-24_17h10.37.450,continuous_performance_test,2024.2.4,MacIntel,62.5,7d5726e5-7725-4ce0-b4e1-b7053cb630de,2,488.96,490.911,space,1,0.331,,0,13,13,1,1,B,space,,,,,,,,,,
,,,,,R_9oqLGyhgfR2gYVj,001,2025-08-24_17h10.37.450,continuous_performance_test,2024.2.4,MacIntel,62.5,7d5726e5-7725-4ce0-b4e1-b7053cb630de,2,490.912,492.811,space,1,0.551,,0,14,14,13,1,N,space,,,,,,,,,,
,,,,,R_9oqLGyhgfR2gYVj,001,2025-08-24_17h10.37.450,continuous_performance_test,2024.2.4,MacIntel,62.5,7d5726e5-7725-4ce0-b4e1-b7053cb630de,2,492.812,494.513,space,1,0.374,,0,15,15,5,1,F,space,,,,,,,,,,
,,,,,R_9oqLGyhgfR2gYVj,001,2025-08-24_17h10.37.450,continuous_performance_test,2024.2.4,MacIntel,62.5,7d5726e5-7725-4ce0-b4e1-b7053cb630de,2,494.514,496.314,space,1,0.38,,0,16,16,20,1,U,space,,,,,,,,,,
,,,,,R_9oqLGyhgfR2gYVj,001,2025-08-24_17h10.37.450,continuous_performance_test,2024.2.4,MacIntel,62.5,7d5726e5-7725-4ce0-b4e1-b7053cb630de,2,496.316,498.064,space,1,0.305,,0,17,17,8,1,I,space,,,,,,,,,,
,,,,,R_9oqLGyhgfR2gYVj,001,2025-08-24_17h10.37.450,continuous_performance_test,2024.2.4,MacIntel,62.5,7d5726e5-7725-4ce0-b4e1-b7053cb630de,2,498.066,499.665,space,1,0.365,,0,18,18,7,1,H,space,,,,,,,,,,
,,,,,R_9oqLGyhgfR2gYVj,001,2025-08-24_17h10.37.450,continuous_performance_test,2024.2.4,MacIntel,62.5,7d5726e5-7725-4ce0-b4e1-b7053cb630de,2,499.667,501.616,space,1,0.348,,0,19,19,15,1,P,space,,,,,,,,,,
,,,,,R_9oqLGyhgfR2gYVj,001,2025-08-24_17h10.37.450,continuous_performance_test,2024.2.4,MacIntel,62.5,7d5726e5-7725-4ce0-b4e1-b7053cb630de,2,501.617,503.568,space,1,0.346,,0,20,20,23,1,Y,space,,,,,,,,,,
,,,,,R_9oqLGyhgfR2gYVj,001,2025-08-24_17h10.37.450,continuous_performance_test,2024.2.4,MacIntel,62.5,7d5726e5-7725-4ce0-b4e1-b7053cb630de,2,503.57,505.569,space,1,0.322,,0,21,21,22,1,W,space,,,,,,,,,,
,,,,,R_9oqLGyhgfR2gYVj,001,2025-08-24_17h10.37.450,continuous_performance_test,2024.2.4,MacIntel,62.5,7d5726e5-7725-4ce0-b4e1-b7053cb630de,2,505.57,507.27,space,0,0.298,,0,22,22,27,1,X,,,,,,,,,,,
,,,,,R_9oqLGyhgfR2gYVj,001,2025-08-24_17h10.37.450,continuous_performance_test,2024.2.4,MacIntel,62.5,7d5726e5-7725-4ce0-b4e1-b7053cb630de,2,507.271,508.971,space,1,0.358,,0,23,23,16,1,Q,space,,,,,,,,,,
,,,,,R_9oqLGyhgfR2gYVj,001,2025-08-24_17h10.37.450,continuous_performance_test,2024.2.4,MacIntel,62.5,7d5726e5-7725-4ce0-b4e1-b7053cb630de,2,508.972,510.772,space,1,0.322,,0,24,24,3,1,D,space,,,,,,,,,,
,,,,,R_9oqLGyhgfR2gYVj,001,2025-08-24_17h10.37.450,continuous_performance_test,2024.2.4,MacIntel,62.5,7d5726e5-7725-4ce0-b4e1-b7053cb630de,2,510.773,512.773,,1,,,0,25,25,28,1,X,,,,,,,,,,,
,,,,,R_9oqLGyhgfR2gYVj,001,2025-08-24_17h10.37.450,continuous_performance_test,2024.2.4,MacIntel,62.5,7d5726e5-7725-4ce0-b4e1-b7053cb630de,2,512.774,514.324,,1,,,0,26,26,26,1,X,,,,,,,,,,,
,,,,,R_9oqLGyhgfR2gYVj,001,2025-08-24_17h10.37.450,continuous_performance_test,2024.2.4,MacIntel,62.5,7d5726e5-7725-4ce0-b4e1-b7053cb630de,2,514.325,516.125,space,1,0.407,,0,27,27,4,1,E,space,,,,,,,,,,
,,,,,R_9oqLGyhgfR2gYVj,001,2025-08-24_17h10.37.450,continuous_performance_test,2024.2.4,MacIntel,62.5,7d5726e5-7725-4ce0-b4e1-b7053cb630de,2,516.126,517.776,space,1,0.364,,0,28,28,2,1,C,space,,,,,,,,,,
,,,,,R_9oqLGyhgfR2gYVj,001,2025-08-24_17h10.37.450,continuous_performance_test,2024.2.4,MacIntel,62.5,7d5726e5-7725-4ce0-b4e1-b7053cb630de,2,517.778,519.327,space,1,0.356,,0,29,29,11,1,L,space,,,,,,,,,,
,,,,,R_9oqLGyhgfR2gYVj,001,2025-08-24_17h10.37.450,continuous_performance_test,2024.2.4,MacIntel,62.5,7d5726e5-7725-4ce0-b4e1-b7053cb630de,2,520.277,521.929,space,1,0.38,,0,0,0,16,1,Q,space,519.328,520.271,space,0.922,,,,,,
,,,,,R_9oqLGyhgfR2gYVj,001,2025-08-24_17h10.37.450,continuous_performance_test,2024.2.4,MacIntel,62.5,7d5726e5-7725-4ce0-b4e1-b7053cb630de,2,521.93,523.879,space,1,0.366,,0,1,1,18,1,S,space,,,,,,,,,,
,,,,,R_9oqLGyhgfR2gYVj,001,2025-08-24_17h10.37.450,continuous_performance_test,2024.2.4,MacIntel,62.5,7d5726e5-7725-4ce0-b4e1-b7053cb630de,2,523.88,525.88,space,1,0.34,,0,2,2,15,1,P,space,,,,,,,,,,
,,,,,R_9oqLGyhgfR2gYVj,001,2025-08-24_17h10.37.450,continuous_performance_test,2024.2.4,MacIntel,62.5,7d5726e5-7725-4ce0-b4e1-b7053cb630de,2,525.881,527.532,space,1,0.348,,0,3,3,17,1,R,space,,,,,,,,,,
,,,,,R_9oqLGyhgfR2gYVj,001,2025-08-24_17h10.37.450,continuous_performance_test,2024.2.4,MacIntel,62.5,7d5726e5-7725-4ce0-b4e1-b7053cb630de,2,527.533,529.432,,1,,,0,4,4,29,1,X,,,,,,,,,,,
,,,,,R_9oqLGyhgfR2gYVj,001,2025-08-24_17h10.37.450,continuous_performance_test,2024.2.4,MacIntel,62.5,7d5726e5-7725-4ce0-b4e1-b7053cb630de,2,529.434,531.434,space,1,0.424,,0,5,5,22,1,W,space,,,,,,,,,,
,,,,,R_9oqLGyhgfR2gYVj,001,2025-08-24_17h10.37.450,continuous_performance_test,2024.2.4,MacIntel,62.5,7d5726e5-7725-4ce0-b4e1-b7053cb630de,2,531.435,533.385,space,1,0.408,,0,6,6,9,1,J,space,,,,,,,,,,
,,,,,R_9oqLGyhgfR2gYVj,001,2025-08-24_17h10.37.450,continuous_performance_test,2024.2.4,MacIntel,62.5,7d5726e5-7725-4ce0-b4e1-b7053cb630de,2,533.387,535.386,,1,,,0,7,7,25,1,X,,,,,,,,,,,
,,,,,R_9oqLGyhgfR2gYVj,001,2025-08-24_17h10.37.450,continuous_performance_test,2024.2.4,MacIntel,62.5,7d5726e5-7725-4ce0-b4e1-b7053cb630de,2,535.387,536.937,,1,,,0,8,8,27,1,X,,,,,,,,,,,
,,,,,R_9oqLGyhgfR2gYVj,001,2025-08-24_17h10.37.450,continuous_performance_test,2024.2.4,MacIntel,62.5,7d5726e5-7725-4ce0-b4e1-b7053cb630de,2,536.938,538.938,space,1,0.506,,0,9,9,13,1,N,space,,,,,,,,,,
,,,,,R_9oqLGyhgfR2gYVj,001,2025-08-24_17h10.37.450,continuous_performance_test,2024.2.4,MacIntel,62.5,7d5726e5-7725-4ce0-b4e1-b7053cb630de,2,538.94,540.689,space,1,0.375,,0,10,10,12,1,M,space,,,,,,,,,,
,,,,,R_9oqLGyhgfR2gYVj,001,2025-08-24_17h10.37.450,continuous_performance_test,2024.2.4,MacIntel,62.5,7d5726e5-7725-4ce0-b4e1-b7053cb630de,2,540.69,542.691,space,1,0.447,,0,11,11,21,1,V,space,,,,,,,,,,
,,,,,R_9oqLGyhgfR2gYVj,001,2025-08-24_17h10.37.450,continuous_performance_test,2024.2.4,MacIntel,62.5,7d5726e5-7725-4ce0-b4e1-b7053cb630de,2,542.692,544.492,space,1,0.326,,0,12,12,1,1,B,space,,,,,,,,,,
,,,,,R_9oqLGyhgfR2gYVj,001,2025-08-24_17h10.37.450,continuous_performance_test,2024.2.4,MacIntel,62.5,7d5726e5-7725-4ce0-b4e1-b7053cb630de,2,544.493,546.293,space,1,0.337,,0,13,13,11,1,L,space,,,,,,,,,,
,,,,,R_9oqLGyhgfR2gYVj,001,2025-08-24_17h10.37.450,continuous_performance_test,2024.2.4,MacIntel,62.5,7d5726e5-7725-4ce0-b4e1-b7053cb630de,2,546.295,548.243,space,1,0.313,,0,14,14,19,1,T,space,,,,,,,,,,
,,,,,R_9oqLGyhgfR2gYVj,001,2025-08-24_17h10.37.450,continuous_performance_test,2024.2.4,MacIntel,62.5,7d5726e5-7725-4ce0-b4e1-b7053cb630de,2,548.245,549.844,,1,,,0,15,15,28,1,X,,,,,,,,,,,
,,,,,R_9oqLGyhgfR2gYVj,001,2025-08-24_17h10.37.450,continuous_performance_test,2024.2.4,MacIntel,62.5,7d5726e5-7725-4ce0-b4e1-b7053cb630de,2,549.846,551.745,space,1,0.308,,0,16,16,10,1,K,space,,,,,,,,,,
,,,,,R_9oqLGyhgfR2gYVj,001,2025-08-24_17h10.37.450,continuous_performance_test,2024.2.4,MacIntel,62.5,7d5726e5-7725-4ce0-b4e1-b7053cb630de,2,551.746,553.446,space,1,0.347,,0,17,17,5,1,F,space,,,,,,,,,,
,,,,,R_9oqLGyhgfR2gYVj,001,2025-08-24_17h10.37.450,continuous_performance_test,2024.2.4,MacIntel,62.5,7d5726e5-7725-4ce0-b4e1-b7053cb630de,2,553.447,555.348,space,1,0.383,,0,18,18,8,1,I,space,,,,,,,,,,
,,,,,R_9oqLGyhgfR2gYVj,001,2025-08-24_17h10.37.450,continuous_performance_test,2024.2.4,MacIntel,62.5,7d5726e5-7725-4ce0-b4e1-b7053cb630de,2,555.35,557.099,space,1,0.539,,0,19,19,23,1,Y,space,,,,,,,,,,
,,,,,R_9oqLGyhgfR2gYVj,001,2025-08-24_17h10.37.450,continuous_performance_test,2024.2.4,MacIntel,62.5,7d5726e5-7725-4ce0-b4e1-b7053cb630de,2,557.1,559.099,space,1,0.358,,0,20,20,7,1,H,space,,,,,,,,,,
,,,,,R_9oqLGyhgfR2gYVj,001,2025-08-24_17h10.37.450,continuous_performance_test,2024.2.4,MacIntel,62.5,7d5726e5-7725-4ce0-b4e1-b7053cb630de,2,559.1,560.801,space,1,0.383,,0,21,21,3,1,D,space,,,,,,,,,,
,,,,,R_9oqLGyhgfR2gYVj,001,2025-08-24_17h10.37.450,continuous_performance_test,2024.2.4,MacIntel,62.5,7d5726e5-7725-4ce0-b4e1-b7053cb630de,2,560.803,562.502,space,1,0.647,,0,22,22,24,1,Z,space,,,,,,,,,,
,,,,,R_9oqLGyhgfR2gYVj,001,2025-08-24_17h10.37.450,continuous_performance_test,2024.2.4,MacIntel,62.5,7d5726e5-7725-4ce0-b4e1-b7053cb630de,2,562.503,564.052,space,1,0.41,,0,23,23,6,1,G,space,,,,,,,,,,
,,,,,R_9oqLGyhgfR2gYVj,001,2025-08-24_17h10.37.450,continuous_performance_test,2024.2.4,MacIntel,62.5,7d5726e5-7725-4ce0-b4e1-b7053cb630de,2,564.053,565.754,space,1,0.43,,0,24,24,14,1,O,space,,,,,,,,,,
,,,,,R_9oqLGyhgfR2gYVj,001,2025-08-24_17h10.37.450,continuous_performance_test,2024.2.4,MacIntel,62.5,7d5726e5-7725-4ce0-b4e1-b7053cb630de,2,565.755,567.555,space,1,0.372,,0,25,25,2,1,C,space,,,,,,,,,,
,,,,,R_9oqLGyhgfR2gYVj,001,2025-08-24_17h10.37.450,continuous_performance_test,2024.2.4,MacIntel,62.5,7d5726e5-7725-4ce0-b4e1-b7053cb630de,2,567.556,569.355,space,0,0.331,,0,26,26,26,1,X,,,,,,,,,,,
,,,,,R_9oqLGyhgfR2gYVj,001,2025-08-24_17h10.37.450,continuous_performance_test,2024.2.4,MacIntel,62.5,7d5726e5-7725-4ce0-b4e1-b7053cb630de,2,569.356,571.307,space,1,0.358,,0,27,27,20,1,U,space,,,,,,,,,,
,,,,,R_9oqLGyhgfR2gYVj,001,2025-08-24_17h10.37.450,continuous_performance_test,2024.2.4,MacIntel,62.5,7d5726e5-7725-4ce0-b4e1-b7053cb630de,2,571.309,572.908,space,1,0.426,,0,28,28,4,1,E,space,,,,,,,,,,
,,,,,R_9oqLGyhgfR2gYVj,001,2025-08-24_17h10.37.450,continuous_performance_test,2024.2.4,MacIntel,62.5,7d5726e5-7725-4ce0-b4e1-b7053cb630de,2,572.909,574.609,space,1,0.347,,0,29,29,0,1,A,space,,,,,,,,,,
,,,,,R_9oqLGyhgfR2gYVj,001,2025-08-24_17h10.37.450,continuous_performance_test,2024.2.4,MacIntel,62.5,7d5726e5-7725-4ce0-b4e1-b7053cb630de,2,,,,,,,,,,,,,,574.61,574.612,,,,574.612,580.781,space,6.149,
