Instructions.started,Instructions.stopped,key_resp.keys,key_resp.rt,key_resp.duration,participant,session,date,expName,psychopyVersion,OS,frameRate,realeye-tester-id,realeye-tester-quality_grade,Trial_noX.started,Trial_noX.stopped,response.keys,response.corr,trials_noX.thisRepN,trials_noX.thisTrialN,trials_noX.thisN,trials_noX.thisIndex,trials_noX.ran,letter,corrAns,response.rt,response.duration,BlockBreak.started,BlockBreak.stopped,key_instruct.keys,key_instruct.rt,key_instruct.duration,End_NoX.started,End_NoX.stopped,key_resp_end_noX.keys,key_resp_end_noX.rt,key_resp_end_noX.duration
0.0002,103.7569,space,103.7363,,R_9PNQyT6FJgCU4ml,001,2025-08-05_20h50.10.493,continuous_performance_test,2024.2.4,MacIntel,63.69426752,75eead4b-7ccf-496c-8d0b-710dd07a7e27,5,,,,,,,,,,,,,,,,,,,,,,,
,,,,,R_9PNQyT6FJgCU4ml,001,2025-08-05_20h50.10.493,continuous_performance_test,2024.2.4,MacIntel,63.69426752,75eead4b-7ccf-496c-8d0b-710dd07a7e27,5,103.7653,105.5074,,0,0,0,0,9,1,J,space,,,,,,,,,,,,
,,,,,R_9PNQyT6FJgCU4ml,001,2025-08-05_20h50.10.493,continuous_performance_test,2024.2.4,MacIntel,63.69426752,75eead4b-7ccf-496c-8d0b-710dd07a7e27,5,105.5092,107.4071,space,1,0,1,1,15,1,P,space,0.3444,,,,,,,,,,,
,,,,,R_9PNQyT6FJgCU4ml,001,2025-08-05_20h50.10.493,continuous_performance_test,2024.2.4,MacIntel,63.69426752,75eead4b-7ccf-496c-8d0b-710dd07a7e27,5,107.4086,109.4071,space,0,0,2,2,26,1,X,,0.3385,,,,,,,,,,,
,,,,,R_9PNQyT6FJgCU4ml,001,2025-08-05_20h50.10.493,continuous_performance_test,2024.2.4,MacIntel,63.69426752,75eead4b-7ccf-496c-8d0b-710dd07a7e27,5,109.4087,111.3072,space,1,0,3,3,4,1,E,space,0.3325,,,,,,,,,,,
,,,,,R_9PNQyT6FJgCU4ml,001,2025-08-05_20h50.10.493,continuous_performance_test,2024.2.4,MacIntel,63.69426752,75eead4b-7ccf-496c-8d0b-710dd07a7e27,5,111.3087,113.0571,space,1,0,4,4,21,1,V,space,0.4474,,,,,,,,,,,
,,,,,R_9PNQyT6FJgCU4ml,001,2025-08-05_20h50.10.493,continuous_performance_test,2024.2.4,MacIntel,63.69426752,75eead4b-7ccf-496c-8d0b-710dd07a7e27,5,113.0589,114.707,space,1,0,5,5,6,1,G,space,0.3195,,,,,,,,,,,
,,,,,R_9PNQyT6FJgCU4ml,001,2025-08-05_20h50.10.493,continuous_performance_test,2024.2.4,MacIntel,63.69426752,75eead4b-7ccf-496c-8d0b-710dd07a7e27,5,114.7088,116.507,space,1,0,6,6,11,1,L,space,0.3779,,,,,,,,,,,
,,,,,R_9PNQyT6FJgCU4ml,001,2025-08-05_20h50.10.493,continuous_performance_test,2024.2.4,MacIntel,63.69426752,75eead4b-7ccf-496c-8d0b-710dd07a7e27,5,116.5085,118.1572,space,1,0,7,7,16,1,Q,space,0.3652,,,,,,,,,,,
,,,,,R_9PNQyT6FJgCU4ml,001,2025-08-05_20h50.10.493,continuous_performance_test,2024.2.4,MacIntel,63.69426752,75eead4b-7ccf-496c-8d0b-710dd07a7e27,5,118.1588,119.9571,space,0,0,8,8,27,1,X,,0.3477,,,,,,,,,,,
,,,,,R_9PNQyT6FJgCU4ml,001,2025-08-05_20h50.10.493,continuous_performance_test,2024.2.4,MacIntel,63.69426752,75eead4b-7ccf-496c-8d0b-710dd07a7e27,5,119.9583,121.7574,space,0,0,9,9,28,1,X,,0.336,,,,,,,,,,,
,,,,,R_9PNQyT6FJgCU4ml,001,2025-08-05_20h50.10.493,continuous_performance_test,2024.2.4,MacIntel,63.69426752,75eead4b-7ccf-496c-8d0b-710dd07a7e27,5,121.759,123.4066,,1,0,10,10,25,1,X,,,,,,,,,,,,,
,,,,,R_9PNQyT6FJgCU4ml,001,2025-08-05_20h50.10.493,continuous_performance_test,2024.2.4,MacIntel,63.69426752,75eead4b-7ccf-496c-8d0b-710dd07a7e27,5,123.408,125.207,space,1,0,11,11,19,1,T,space,0.2949,,,,,,,,,,,
,,,,,R_9PNQyT6FJgCU4ml,001,2025-08-05_20h50.10.493,continuous_performance_test,2024.2.4,MacIntel,63.69426752,75eead4b-7ccf-496c-8d0b-710dd07a7e27,5,125.2081,127.0071,space,1,0,12,12,0,1,A,space,0.3617,,,,,,,,,,,
,,,,,R_9PNQyT6FJgCU4ml,001,2025-08-05_20h50.10.493,continuous_performance_test,2024.2.4,MacIntel,63.69426752,75eead4b-7ccf-496c-8d0b-710dd07a7e27,5,127.0084,129.007,space,1,0,13,13,10,1,K,space,0.3375,,,,,,,,,,,
,,,,,R_9PNQyT6FJgCU4ml,001,2025-08-05_20h50.10.493,continuous_performance_test,2024.2.4,MacIntel,63.69426752,75eead4b-7ccf-496c-8d0b-710dd07a7e27,5,129.0083,130.5571,space,1,0,14,14,12,1,M,space,0.3722,,,,,,,,,,,
,,,,,R_9PNQyT6FJgCU4ml,001,2025-08-05_20h50.10.493,continuous_performance_test,2024.2.4,MacIntel,63.69426752,75eead4b-7ccf-496c-8d0b-710dd07a7e27,5,130.5584,132.2571,space,1,0,15,15,22,1,W,space,0.4691,,,,,,,,,,,
,,,,,R_9PNQyT6FJgCU4ml,001,2025-08-05_20h50.10.493,continuous_performance_test,2024.2.4,MacIntel,63.69426752,75eead4b-7ccf-496c-8d0b-710dd07a7e27,5,132.2587,134.2072,space,1,0,16,16,5,1,F,space,0.3299,,,,,,,,,,,
,,,,,R_9PNQyT6FJgCU4ml,001,2025-08-05_20h50.10.493,continuous_performance_test,2024.2.4,MacIntel,63.69426752,75eead4b-7ccf-496c-8d0b-710dd07a7e27,5,134.2086,136.1072,space,1,0,17,17,17,1,R,space,0.2956,,,,,,,,,,,
,,,,,R_9PNQyT6FJgCU4ml,001,2025-08-05_20h50.10.493,continuous_performance_test,2024.2.4,MacIntel,63.69426752,75eead4b-7ccf-496c-8d0b-710dd07a7e27,5,136.1088,137.8071,space,1,0,18,18,24,1,Z,space,0.3604,,,,,,,,,,,
,,,,,R_9PNQyT6FJgCU4ml,001,2025-08-05_20h50.10.493,continuous_performance_test,2024.2.4,MacIntel,63.69426752,75eead4b-7ccf-496c-8d0b-710dd07a7e27,5,137.8084,139.7072,space,1,0,19,19,8,1,I,space,0.3173,,,,,,,,,,,
,,,,,R_9PNQyT6FJgCU4ml,001,2025-08-05_20h50.10.493,continuous_performance_test,2024.2.4,MacIntel,63.69426752,75eead4b-7ccf-496c-8d0b-710dd07a7e27,5,139.7085,141.3071,space,1,0,20,20,14,1,O,space,0.3918,,,,,,,,,,,
,,,,,R_9PNQyT6FJgCU4ml,001,2025-08-05_20h50.10.493,continuous_performance_test,2024.2.4,MacIntel,63.69426752,75eead4b-7ccf-496c-8d0b-710dd07a7e27,5,141.3089,143.2071,space,1,0,21,21,1,1,B,space,0.4042,,,,,,,,,,,
,,,,,R_9PNQyT6FJgCU4ml,001,2025-08-05_20h50.10.493,continuous_performance_test,2024.2.4,MacIntel,63.69426752,75eead4b-7ccf-496c-8d0b-710dd07a7e27,5,143.2084,145.1062,space,1,0,22,22,23,1,Y,space,0.2784,,,,,,,,,,,
,,,,,R_9PNQyT6FJgCU4ml,001,2025-08-05_20h50.10.493,continuous_performance_test,2024.2.4,MacIntel,63.69426752,75eead4b-7ccf-496c-8d0b-710dd07a7e27,5,145.1074,147.0565,space,1,0,23,23,13,1,N,space,0.3112,,,,,,,,,,,
,,,,,R_9PNQyT6FJgCU4ml,001,2025-08-05_20h50.10.493,continuous_performance_test,2024.2.4,MacIntel,63.69426752,75eead4b-7ccf-496c-8d0b-710dd07a7e27,5,147.0578,148.7564,space,1,0,24,24,20,1,U,space,0.2769,,,,,,,,,,,
,,,,,R_9PNQyT6FJgCU4ml,001,2025-08-05_20h50.10.493,continuous_performance_test,2024.2.4,MacIntel,63.69426752,75eead4b-7ccf-496c-8d0b-710dd07a7e27,5,148.7577,150.5073,space,1,0,25,25,2,1,C,space,0.2795,,,,,,,,,,,
,,,,,R_9PNQyT6FJgCU4ml,001,2025-08-05_20h50.10.493,continuous_performance_test,2024.2.4,MacIntel,63.69426752,75eead4b-7ccf-496c-8d0b-710dd07a7e27,5,150.5089,152.3064,space,1,0,26,26,3,1,D,space,0.4783,,,,,,,,,,,
,,,,,R_9PNQyT6FJgCU4ml,001,2025-08-05_20h50.10.493,continuous_performance_test,2024.2.4,MacIntel,63.69426752,75eead4b-7ccf-496c-8d0b-710dd07a7e27,5,152.3074,154.1072,space,1,0,27,27,18,1,S,space,0.2365,,,,,,,,,,,
,,,,,R_9PNQyT6FJgCU4ml,001,2025-08-05_20h50.10.493,continuous_performance_test,2024.2.4,MacIntel,63.69426752,75eead4b-7ccf-496c-8d0b-710dd07a7e27,5,154.1086,155.9066,space,1,0,28,28,7,1,H,space,0.2461,,,,,,,,,,,
,,,,,R_9PNQyT6FJgCU4ml,001,2025-08-05_20h50.10.493,continuous_performance_test,2024.2.4,MacIntel,63.69426752,75eead4b-7ccf-496c-8d0b-710dd07a7e27,5,155.9079,157.5072,space,0,0,29,29,29,1,X,,0.2334,,,,,,,,,,,
,,,,,R_9PNQyT6FJgCU4ml,001,2025-08-05_20h50.10.493,continuous_performance_test,2024.2.4,MacIntel,63.69426752,75eead4b-7ccf-496c-8d0b-710dd07a7e27,5,171.4825,173.3739,space,1,0,0,0,12,1,M,space,0.2621,,157.5077,171.4746,space,13.9516,,,,,,
,,,,,R_9PNQyT6FJgCU4ml,001,2025-08-05_20h50.10.493,continuous_performance_test,2024.2.4,MacIntel,63.69426752,75eead4b-7ccf-496c-8d0b-710dd07a7e27,5,173.375,175.1244,space,1,0,1,1,10,1,K,space,0.3147,,,,,,,,,,,
,,,,,R_9PNQyT6FJgCU4ml,001,2025-08-05_20h50.10.493,continuous_performance_test,2024.2.4,MacIntel,63.69426752,75eead4b-7ccf-496c-8d0b-710dd07a7e27,5,175.1261,176.8739,space,1,0,2,2,14,1,O,space,0.2481,,,,,,,,,,,
,,,,,R_9PNQyT6FJgCU4ml,001,2025-08-05_20h50.10.493,continuous_performance_test,2024.2.4,MacIntel,63.69426752,75eead4b-7ccf-496c-8d0b-710dd07a7e27,5,176.8752,178.8741,space,0,0,3,3,29,1,X,,0.0254,,,,,,,,,,,
,,,,,R_9PNQyT6FJgCU4ml,001,2025-08-05_20h50.10.493,continuous_performance_test,2024.2.4,MacIntel,63.69426752,75eead4b-7ccf-496c-8d0b-710dd07a7e27,5,178.8751,180.774,space,0,0,4,4,26,1,X,,0.2408,,,,,,,,,,,
,,,,,R_9PNQyT6FJgCU4ml,001,2025-08-05_20h50.10.493,continuous_performance_test,2024.2.4,MacIntel,63.69426752,75eead4b-7ccf-496c-8d0b-710dd07a7e27,5,180.7757,182.6239,space,1,0,5,5,15,1,P,space,0.2145,,,,,,,,,,,
,,,,,R_9PNQyT6FJgCU4ml,001,2025-08-05_20h50.10.493,continuous_performance_test,2024.2.4,MacIntel,63.69426752,75eead4b-7ccf-496c-8d0b-710dd07a7e27,5,182.6251,184.524,space,1,0,6,6,7,1,H,space,0.3631,,,,,,,,,,,
,,,,,R_9PNQyT6FJgCU4ml,001,2025-08-05_20h50.10.493,continuous_performance_test,2024.2.4,MacIntel,63.69426752,75eead4b-7ccf-496c-8d0b-710dd07a7e27,5,184.5252,186.4733,space,1,0,7,7,3,1,D,space,0.2314,,,,,,,,,,,
,,,,,R_9PNQyT6FJgCU4ml,001,2025-08-05_20h50.10.493,continuous_performance_test,2024.2.4,MacIntel,63.69426752,75eead4b-7ccf-496c-8d0b-710dd07a7e27,5,186.4746,188.0742,space,0,0,8,8,27,1,X,,0.348,,,,,,,,,,,
,,,,,R_9PNQyT6FJgCU4ml,001,2025-08-05_20h50.10.493,continuous_performance_test,2024.2.4,MacIntel,63.69426752,75eead4b-7ccf-496c-8d0b-710dd07a7e27,5,188.0756,189.8241,space,1,0,9,9,21,1,V,space,0.1964,,,,,,,,,,,
,,,,,R_9PNQyT6FJgCU4ml,001,2025-08-05_20h50.10.493,continuous_performance_test,2024.2.4,MacIntel,63.69426752,75eead4b-7ccf-496c-8d0b-710dd07a7e27,5,189.8256,191.724,,1,0,10,10,25,1,X,,,,,,,,,,,,,
,,,,,R_9PNQyT6FJgCU4ml,001,2025-08-05_20h50.10.493,continuous_performance_test,2024.2.4,MacIntel,63.69426752,75eead4b-7ccf-496c-8d0b-710dd07a7e27,5,191.7257,193.5741,space,1,0,11,11,20,1,U,space,0.3015,,,,,,,,,,,
,,,,,R_9PNQyT6FJgCU4ml,001,2025-08-05_20h50.10.493,continuous_performance_test,2024.2.4,MacIntel,63.69426752,75eead4b-7ccf-496c-8d0b-710dd07a7e27,5,193.5753,195.1741,space,1,0,12,12,6,1,G,space,0.3591,,,,,,,,,,,
,,,,,R_9PNQyT6FJgCU4ml,001,2025-08-05_20h50.10.493,continuous_performance_test,2024.2.4,MacIntel,63.69426752,75eead4b-7ccf-496c-8d0b-710dd07a7e27,5,195.1752,196.7241,space,1,0,13,13,16,1,Q,space,0.365,,,,,,,,,,,
,,,,,R_9PNQyT6FJgCU4ml,001,2025-08-05_20h50.10.493,continuous_performance_test,2024.2.4,MacIntel,63.69426752,75eead4b-7ccf-496c-8d0b-710dd07a7e27,5,196.7253,198.7243,space,1,0,14,14,13,1,N,space,0.4787,,,,,,,,,,,
,,,,,R_9PNQyT6FJgCU4ml,001,2025-08-05_20h50.10.493,continuous_performance_test,2024.2.4,MacIntel,63.69426752,75eead4b-7ccf-496c-8d0b-710dd07a7e27,5,198.726,200.3239,space,1,0,15,15,22,1,W,space,0.3156,,,,,,,,,,,
,,,,,R_9PNQyT6FJgCU4ml,001,2025-08-05_20h50.10.493,continuous_performance_test,2024.2.4,MacIntel,63.69426752,75eead4b-7ccf-496c-8d0b-710dd07a7e27,5,200.3251,201.8739,space,0,0,16,16,28,1,X,,0.2987,,,,,,,,,,,
,,,,,R_9PNQyT6FJgCU4ml,001,2025-08-05_20h50.10.493,continuous_performance_test,2024.2.4,MacIntel,63.69426752,75eead4b-7ccf-496c-8d0b-710dd07a7e27,5,201.875,203.7238,space,1,0,17,17,2,1,C,space,0.2316,,,,,,,,,,,
,,,,,R_9PNQyT6FJgCU4ml,001,2025-08-05_20h50.10.493,continuous_performance_test,2024.2.4,MacIntel,63.69426752,75eead4b-7ccf-496c-8d0b-710dd07a7e27,5,203.725,205.6731,space,1,0,18,18,19,1,T,space,0.4426,,,,,,,,,,,
,,,,,R_9PNQyT6FJgCU4ml,001,2025-08-05_20h50.10.493,continuous_performance_test,2024.2.4,MacIntel,63.69426752,75eead4b-7ccf-496c-8d0b-710dd07a7e27,5,205.6743,207.6731,space,1,0,19,19,23,1,Y,space,0.2988,,,,,,,,,,,
,,,,,R_9PNQyT6FJgCU4ml,001,2025-08-05_20h50.10.493,continuous_performance_test,2024.2.4,MacIntel,63.69426752,75eead4b-7ccf-496c-8d0b-710dd07a7e27,5,207.6743,209.3741,space,1,0,20,20,5,1,F,space,0.315,,,,,,,,,,,
,,,,,R_9PNQyT6FJgCU4ml,001,2025-08-05_20h50.10.493,continuous_performance_test,2024.2.4,MacIntel,63.69426752,75eead4b-7ccf-496c-8d0b-710dd07a7e27,5,209.3755,211.1241,space,1,0,21,21,11,1,L,space,0.248,,,,,,,,,,,
,,,,,R_9PNQyT6FJgCU4ml,001,2025-08-05_20h50.10.493,continuous_performance_test,2024.2.4,MacIntel,63.69426752,75eead4b-7ccf-496c-8d0b-710dd07a7e27,5,211.1253,212.7241,space,1,0,22,22,1,1,B,space,0.3335,,,,,,,,,,,
,,,,,R_9PNQyT6FJgCU4ml,001,2025-08-05_20h50.10.493,continuous_performance_test,2024.2.4,MacIntel,63.69426752,75eead4b-7ccf-496c-8d0b-710dd07a7e27,5,212.7253,214.4742,space,1,0,23,23,4,1,E,space,0.3257,,,,,,,,,,,
,,,,,R_9PNQyT6FJgCU4ml,001,2025-08-05_20h50.10.493,continuous_performance_test,2024.2.4,MacIntel,63.69426752,75eead4b-7ccf-496c-8d0b-710dd07a7e27,5,214.4757,216.3741,space,1,0,24,24,17,1,R,space,0.3257,,,,,,,,,,,
,,,,,R_9PNQyT6FJgCU4ml,001,2025-08-05_20h50.10.493,continuous_performance_test,2024.2.4,MacIntel,63.69426752,75eead4b-7ccf-496c-8d0b-710dd07a7e27,5,216.3754,218.3742,space,1,0,25,25,0,1,A,space,0.3089,,,,,,,,,,,
,,,,,R_9PNQyT6FJgCU4ml,001,2025-08-05_20h50.10.493,continuous_performance_test,2024.2.4,MacIntel,63.69426752,75eead4b-7ccf-496c-8d0b-710dd07a7e27,5,218.3755,220.1239,space,1,0,26,26,18,1,S,space,0.2924,,,,,,,,,,,
,,,,,R_9PNQyT6FJgCU4ml,001,2025-08-05_20h50.10.493,continuous_performance_test,2024.2.4,MacIntel,63.69426752,75eead4b-7ccf-496c-8d0b-710dd07a7e27,5,220.1252,221.6733,space,1,0,27,27,24,1,Z,space,0.3045,,,,,,,,,,,
,,,,,R_9PNQyT6FJgCU4ml,001,2025-08-05_20h50.10.493,continuous_performance_test,2024.2.4,MacIntel,63.69426752,75eead4b-7ccf-496c-8d0b-710dd07a7e27,5,221.675,223.2242,space,1,0,28,28,8,1,I,space,0.2762,,,,,,,,,,,
,,,,,R_9PNQyT6FJgCU4ml,001,2025-08-05_20h50.10.493,continuous_performance_test,2024.2.4,MacIntel,63.69426752,75eead4b-7ccf-496c-8d0b-710dd07a7e27,5,223.2255,225.2243,space,1,0,29,29,9,1,J,space,0.2532,,,,,,,,,,,
,,,,,R_9PNQyT6FJgCU4ml,001,2025-08-05_20h50.10.493,continuous_performance_test,2024.2.4,MacIntel,63.69426752,75eead4b-7ccf-496c-8d0b-710dd07a7e27,5,235.7826,237.6234,space,1,0,0,0,11,1,L,space,0.2518,,225.2258,235.7744,space,10.5323,,,,,,
,,,,,R_9PNQyT6FJgCU4ml,001,2025-08-05_20h50.10.493,continuous_performance_test,2024.2.4,MacIntel,63.69426752,75eead4b-7ccf-496c-8d0b-710dd07a7e27,5,237.6246,239.2744,space,0,0,1,1,25,1,X,,0.28,,,,,,,,,,,
,,,,,R_9PNQyT6FJgCU4ml,001,2025-08-05_20h50.10.493,continuous_performance_test,2024.2.4,MacIntel,63.69426752,75eead4b-7ccf-496c-8d0b-710dd07a7e27,5,239.2757,240.8733,space,1,0,2,2,22,1,W,space,0.284,,,,,,,,,,,
,,,,,R_9PNQyT6FJgCU4ml,001,2025-08-05_20h50.10.493,continuous_performance_test,2024.2.4,MacIntel,63.69426752,75eead4b-7ccf-496c-8d0b-710dd07a7e27,5,240.8747,242.7232,space,1,0,3,3,2,1,C,space,0.3832,,,,,,,,,,,
,,,,,R_9PNQyT6FJgCU4ml,001,2025-08-05_20h50.10.493,continuous_performance_test,2024.2.4,MacIntel,63.69426752,75eead4b-7ccf-496c-8d0b-710dd07a7e27,5,242.7243,244.4242,space,1,0,4,4,24,1,Z,space,0.2427,,,,,,,,,,,
,,,,,R_9PNQyT6FJgCU4ml,001,2025-08-05_20h50.10.493,continuous_performance_test,2024.2.4,MacIntel,63.69426752,75eead4b-7ccf-496c-8d0b-710dd07a7e27,5,244.4256,246.3743,space,1,0,5,5,20,1,U,space,0.0144,,,,,,,,,,,
,,,,,R_9PNQyT6FJgCU4ml,001,2025-08-05_20h50.10.493,continuous_performance_test,2024.2.4,MacIntel,63.69426752,75eead4b-7ccf-496c-8d0b-710dd07a7e27,5,246.3755,248.0234,space,1,0,6,6,0,1,A,space,0.2304,,,,,,,,,,,
,,,,,R_9PNQyT6FJgCU4ml,001,2025-08-05_20h50.10.493,continuous_performance_test,2024.2.4,MacIntel,63.69426752,75eead4b-7ccf-496c-8d0b-710dd07a7e27,5,248.0249,249.5732,space,1,0,7,7,10,1,K,space,0.3473,,,,,,,,,,,
,,,,,R_9PNQyT6FJgCU4ml,001,2025-08-05_20h50.10.493,continuous_performance_test,2024.2.4,MacIntel,63.69426752,75eead4b-7ccf-496c-8d0b-710dd07a7e27,5,249.5743,251.3742,space,1,0,8,8,13,1,N,space,0.246,,,,,,,,,,,
,,,,,R_9PNQyT6FJgCU4ml,001,2025-08-05_20h50.10.493,continuous_performance_test,2024.2.4,MacIntel,63.69426752,75eead4b-7ccf-496c-8d0b-710dd07a7e27,5,251.3753,253.0245,space,1,0,9,9,23,1,Y,space,0.3597,,,,,,,,,,,
,,,,,R_9PNQyT6FJgCU4ml,001,2025-08-05_20h50.10.493,continuous_performance_test,2024.2.4,MacIntel,63.69426752,75eead4b-7ccf-496c-8d0b-710dd07a7e27,5,253.0262,254.8738,space,1,0,10,10,14,1,O,space,0.2804,,,,,,,,,,,
,,,,,R_9PNQyT6FJgCU4ml,001,2025-08-05_20h50.10.493,continuous_performance_test,2024.2.4,MacIntel,63.69426752,75eead4b-7ccf-496c-8d0b-710dd07a7e27,5,254.8748,256.5235,space,0,0,11,11,26,1,X,,0.246,,,,,,,,,,,
,,,,,R_9PNQyT6FJgCU4ml,001,2025-08-05_20h50.10.493,continuous_performance_test,2024.2.4,MacIntel,63.69426752,75eead4b-7ccf-496c-8d0b-710dd07a7e27,5,256.5245,258.1243,space,0,0,12,12,28,1,X,,0.1282,,,,,,,,,,,
,,,,,R_9PNQyT6FJgCU4ml,001,2025-08-05_20h50.10.493,continuous_performance_test,2024.2.4,MacIntel,63.69426752,75eead4b-7ccf-496c-8d0b-710dd07a7e27,5,258.1255,260.0743,,0,0,13,13,17,1,R,space,,,,,,,,,,,,
,,,,,R_9PNQyT6FJgCU4ml,001,2025-08-05_20h50.10.493,continuous_performance_test,2024.2.4,MacIntel,63.69426752,75eead4b-7ccf-496c-8d0b-710dd07a7e27,5,260.0755,261.7234,space,1,0,14,14,8,1,I,space,0.2295,,,,,,,,,,,
,,,,,R_9PNQyT6FJgCU4ml,001,2025-08-05_20h50.10.493,continuous_performance_test,2024.2.4,MacIntel,63.69426752,75eead4b-7ccf-496c-8d0b-710dd07a7e27,5,261.7247,263.3743,space,0,0,15,15,27,1,X,,0.2457,,,,,,,,,,,
,,,,,R_9PNQyT6FJgCU4ml,001,2025-08-05_20h50.10.493,continuous_performance_test,2024.2.4,MacIntel,63.69426752,75eead4b-7ccf-496c-8d0b-710dd07a7e27,5,263.3755,265.3733,space,1,0,16,16,19,1,T,space,0.2165,,,,,,,,,,,
,,,,,R_9PNQyT6FJgCU4ml,001,2025-08-05_20h50.10.493,continuous_performance_test,2024.2.4,MacIntel,63.69426752,75eead4b-7ccf-496c-8d0b-710dd07a7e27,5,265.3746,267.1243,space,1,0,17,17,3,1,D,space,0.2638,,,,,,,,,,,
,,,,,R_9PNQyT6FJgCU4ml,001,2025-08-05_20h50.10.493,continuous_performance_test,2024.2.4,MacIntel,63.69426752,75eead4b-7ccf-496c-8d0b-710dd07a7e27,5,267.1255,268.9245,space,1,0,18,18,5,1,F,space,0.2636,,,,,,,,,,,
,,,,,R_9PNQyT6FJgCU4ml,001,2025-08-05_20h50.10.493,continuous_performance_test,2024.2.4,MacIntel,63.69426752,75eead4b-7ccf-496c-8d0b-710dd07a7e27,5,268.9257,270.6243,space,1,0,19,19,16,1,Q,space,0.2136,,,,,,,,,,,
,,,,,R_9PNQyT6FJgCU4ml,001,2025-08-05_20h50.10.493,continuous_performance_test,2024.2.4,MacIntel,63.69426752,75eead4b-7ccf-496c-8d0b-710dd07a7e27,5,270.6256,272.4741,space,1,0,20,20,4,1,E,space,0.2433,,,,,,,,,,,
,,,,,R_9PNQyT6FJgCU4ml,001,2025-08-05_20h50.10.493,continuous_performance_test,2024.2.4,MacIntel,63.69426752,75eead4b-7ccf-496c-8d0b-710dd07a7e27,5,272.4752,274.4235,space,1,0,21,21,1,1,B,space,0.2285,,,,,,,,,,,
,,,,,R_9PNQyT6FJgCU4ml,001,2025-08-05_20h50.10.493,continuous_performance_test,2024.2.4,MacIntel,63.69426752,75eead4b-7ccf-496c-8d0b-710dd07a7e27,5,274.4242,276.2238,space,1,0,22,22,12,1,M,space,0.2471,,,,,,,,,,,
,,,,,R_9PNQyT6FJgCU4ml,001,2025-08-05_20h50.10.493,continuous_performance_test,2024.2.4,MacIntel,63.69426752,75eead4b-7ccf-496c-8d0b-710dd07a7e27,5,276.2251,277.9743,space,1,0,23,23,15,1,P,space,0.2435,,,,,,,,,,,
,,,,,R_9PNQyT6FJgCU4ml,001,2025-08-05_20h50.10.493,continuous_performance_test,2024.2.4,MacIntel,63.69426752,75eead4b-7ccf-496c-8d0b-710dd07a7e27,5,277.9755,279.5243,space,0,0,24,24,29,1,X,,0.2753,,,,,,,,,,,
,,,,,R_9PNQyT6FJgCU4ml,001,2025-08-05_20h50.10.493,continuous_performance_test,2024.2.4,MacIntel,63.69426752,75eead4b-7ccf-496c-8d0b-710dd07a7e27,5,279.5253,281.1744,space,1,0,25,25,6,1,G,space,0.0805,,,,,,,,,,,
,,,,,R_9PNQyT6FJgCU4ml,001,2025-08-05_20h50.10.493,continuous_performance_test,2024.2.4,MacIntel,63.69426752,75eead4b-7ccf-496c-8d0b-710dd07a7e27,5,281.1757,282.9244,space,1,0,26,26,9,1,J,space,0.1948,,,,,,,,,,,
,,,,,R_9PNQyT6FJgCU4ml,001,2025-08-05_20h50.10.493,continuous_performance_test,2024.2.4,MacIntel,63.69426752,75eead4b-7ccf-496c-8d0b-710dd07a7e27,5,282.9257,284.6246,space,1,0,27,27,18,1,S,space,0.1149,,,,,,,,,,,
,,,,,R_9PNQyT6FJgCU4ml,001,2025-08-05_20h50.10.493,continuous_performance_test,2024.2.4,MacIntel,63.69426752,75eead4b-7ccf-496c-8d0b-710dd07a7e27,5,284.6257,286.5745,,0,0,28,28,7,1,H,space,,,,,,,,,,,,
,,,,,R_9PNQyT6FJgCU4ml,001,2025-08-05_20h50.10.493,continuous_performance_test,2024.2.4,MacIntel,63.69426752,75eead4b-7ccf-496c-8d0b-710dd07a7e27,5,286.5758,288.5234,,0,0,29,29,21,1,V,space,,,,,,,,,,,,
,,,,,R_9PNQyT6FJgCU4ml,001,2025-08-05_20h50.10.493,continuous_performance_test,2024.2.4,MacIntel,63.69426752,75eead4b-7ccf-496c-8d0b-710dd07a7e27,5,296.6631,298.3079,space,0,0,0,0,28,1,X,,0.3914,,288.5244,296.657,space,8.1245,,,,,,
,,,,,R_9PNQyT6FJgCU4ml,001,2025-08-05_20h50.10.493,continuous_performance_test,2024.2.4,MacIntel,63.69426752,75eead4b-7ccf-496c-8d0b-710dd07a7e27,5,298.3091,299.9569,space,1,0,1,1,21,1,V,space,0.2306,,,,,,,,,,,
,,,,,R_9PNQyT6FJgCU4ml,001,2025-08-05_20h50.10.493,continuous_performance_test,2024.2.4,MacIntel,63.69426752,75eead4b-7ccf-496c-8d0b-710dd07a7e27,5,299.9581,301.6578,space,1,0,2,2,16,1,Q,space,0.3141,,,,,,,,,,,
,,,,,R_9PNQyT6FJgCU4ml,001,2025-08-05_20h50.10.493,continuous_performance_test,2024.2.4,MacIntel,63.69426752,75eead4b-7ccf-496c-8d0b-710dd07a7e27,5,301.659,303.2578,space,1,0,3,3,10,1,K,space,0.2314,,,,,,,,,,,
,,,,,R_9PNQyT6FJgCU4ml,001,2025-08-05_20h50.10.493,continuous_performance_test,2024.2.4,MacIntel,63.69426752,75eead4b-7ccf-496c-8d0b-710dd07a7e27,5,303.2595,304.8578,space,1,0,4,4,2,1,C,space,0.2762,,,,,,,,,,,
,,,,,R_9PNQyT6FJgCU4ml,001,2025-08-05_20h50.10.493,continuous_performance_test,2024.2.4,MacIntel,63.69426752,75eead4b-7ccf-496c-8d0b-710dd07a7e27,5,304.8595,306.4572,space,1,0,5,5,12,1,M,space,0.2637,,,,,,,,,,,
,,,,,R_9PNQyT6FJgCU4ml,001,2025-08-05_20h50.10.493,continuous_performance_test,2024.2.4,MacIntel,63.69426752,75eead4b-7ccf-496c-8d0b-710dd07a7e27,5,306.4585,308.1072,space,1,0,6,6,13,1,N,space,0.2421,,,,,,,,,,,
,,,,,R_9PNQyT6FJgCU4ml,001,2025-08-05_20h50.10.493,continuous_performance_test,2024.2.4,MacIntel,63.69426752,75eead4b-7ccf-496c-8d0b-710dd07a7e27,5,308.1083,309.8077,space,1,0,7,7,6,1,G,space,0.2852,,,,,,,,,,,
,,,,,R_9PNQyT6FJgCU4ml,001,2025-08-05_20h50.10.493,continuous_performance_test,2024.2.4,MacIntel,63.69426752,75eead4b-7ccf-496c-8d0b-710dd07a7e27,5,309.8087,311.7069,space,1,0,8,8,23,1,Y,space,0.2966,,,,,,,,,,,
,,,,,R_9PNQyT6FJgCU4ml,001,2025-08-05_20h50.10.493,continuous_performance_test,2024.2.4,MacIntel,63.69426752,75eead4b-7ccf-496c-8d0b-710dd07a7e27,5,311.7079,313.6578,space,1,0,9,9,8,1,I,space,0.2643,,,,,,,,,,,
,,,,,R_9PNQyT6FJgCU4ml,001,2025-08-05_20h50.10.493,continuous_performance_test,2024.2.4,MacIntel,63.69426752,75eead4b-7ccf-496c-8d0b-710dd07a7e27,5,313.659,315.407,space,1,0,10,10,15,1,P,space,0.2476,,,,,,,,,,,
,,,,,R_9PNQyT6FJgCU4ml,001,2025-08-05_20h50.10.493,continuous_performance_test,2024.2.4,MacIntel,63.69426752,75eead4b-7ccf-496c-8d0b-710dd07a7e27,5,315.4084,317.4079,,0,0,11,11,17,1,R,space,,,,,,,,,,,,
,,,,,R_9PNQyT6FJgCU4ml,001,2025-08-05_20h50.10.493,continuous_performance_test,2024.2.4,MacIntel,63.69426752,75eead4b-7ccf-496c-8d0b-710dd07a7e27,5,317.4092,318.9578,space,1,0,12,12,0,1,A,space,0.2434,,,,,,,,,,,
,,,,,R_9PNQyT6FJgCU4ml,001,2025-08-05_20h50.10.493,continuous_performance_test,2024.2.4,MacIntel,63.69426752,75eead4b-7ccf-496c-8d0b-710dd07a7e27,5,318.9589,320.6578,space,1,0,13,13,24,1,Z,space,0.1984,,,,,,,,,,,
,,,,,R_9PNQyT6FJgCU4ml,001,2025-08-05_20h50.10.493,continuous_performance_test,2024.2.4,MacIntel,63.69426752,75eead4b-7ccf-496c-8d0b-710dd07a7e27,5,320.6589,322.5578,space,1,0,14,14,19,1,T,space,0.0153,,,,,,,,,,,
,,,,,R_9PNQyT6FJgCU4ml,001,2025-08-05_20h50.10.493,continuous_performance_test,2024.2.4,MacIntel,63.69426752,75eead4b-7ccf-496c-8d0b-710dd07a7e27,5,322.5592,324.3579,space,1,0,15,15,4,1,E,space,0.2347,,,,,,,,,,,
,,,,,R_9PNQyT6FJgCU4ml,001,2025-08-05_20h50.10.493,continuous_performance_test,2024.2.4,MacIntel,63.69426752,75eead4b-7ccf-496c-8d0b-710dd07a7e27,5,324.3592,326.0071,space,0,0,16,16,29,1,X,,0.2806,,,,,,,,,,,
,,,,,R_9PNQyT6FJgCU4ml,001,2025-08-05_20h50.10.493,continuous_performance_test,2024.2.4,MacIntel,63.69426752,75eead4b-7ccf-496c-8d0b-710dd07a7e27,5,326.0081,328.0079,space,1,0,17,17,18,1,S,space,0.086,,,,,,,,,,,
,,,,,R_9PNQyT6FJgCU4ml,001,2025-08-05_20h50.10.493,continuous_performance_test,2024.2.4,MacIntel,63.69426752,75eead4b-7ccf-496c-8d0b-710dd07a7e27,5,328.009,329.9078,,1,0,18,18,25,1,X,,,,,,,,,,,,,
,,,,,R_9PNQyT6FJgCU4ml,001,2025-08-05_20h50.10.493,continuous_performance_test,2024.2.4,MacIntel,63.69426752,75eead4b-7ccf-496c-8d0b-710dd07a7e27,5,329.9089,331.9078,space,1,0,19,19,20,1,U,space,0.1171,,,,,,,,,,,
,,,,,R_9PNQyT6FJgCU4ml,001,2025-08-05_20h50.10.493,continuous_performance_test,2024.2.4,MacIntel,63.69426752,75eead4b-7ccf-496c-8d0b-710dd07a7e27,5,331.9089,333.7079,space,1,0,20,20,22,1,W,space,0.1303,,,,,,,,,,,
,,,,,R_9PNQyT6FJgCU4ml,001,2025-08-05_20h50.10.493,continuous_performance_test,2024.2.4,MacIntel,63.69426752,75eead4b-7ccf-496c-8d0b-710dd07a7e27,5,333.7091,335.4079,space,1,0,21,21,14,1,O,space,0.292,,,,,,,,,,,
,,,,,R_9PNQyT6FJgCU4ml,001,2025-08-05_20h50.10.493,continuous_performance_test,2024.2.4,MacIntel,63.69426752,75eead4b-7ccf-496c-8d0b-710dd07a7e27,5,335.4089,337.2077,space,1,0,22,22,5,1,F,space,0.1309,,,,,,,,,,,
,,,,,R_9PNQyT6FJgCU4ml,001,2025-08-05_20h50.10.493,continuous_performance_test,2024.2.4,MacIntel,63.69426752,75eead4b-7ccf-496c-8d0b-710dd07a7e27,5,337.2087,339.158,space,1,0,23,23,11,1,L,space,0.1768,,,,,,,,,,,
,,,,,R_9PNQyT6FJgCU4ml,001,2025-08-05_20h50.10.493,continuous_performance_test,2024.2.4,MacIntel,63.69426752,75eead4b-7ccf-496c-8d0b-710dd07a7e27,5,339.159,341.108,,0,0,24,24,1,1,B,space,,,,,,,,,,,,
,,,,,R_9PNQyT6FJgCU4ml,001,2025-08-05_20h50.10.493,continuous_performance_test,2024.2.4,MacIntel,63.69426752,75eead4b-7ccf-496c-8d0b-710dd07a7e27,5,341.1094,343.0075,space,0,0,25,25,26,1,X,,0.1591,,,,,,,,,,,
,,,,,R_9PNQyT6FJgCU4ml,001,2025-08-05_20h50.10.493,continuous_performance_test,2024.2.4,MacIntel,63.69426752,75eead4b-7ccf-496c-8d0b-710dd07a7e27,5,343.0079,344.8071,space,1,0,26,26,3,1,D,space,0.2339,,,,,,,,,,,
,,,,,R_9PNQyT6FJgCU4ml,001,2025-08-05_20h50.10.493,continuous_performance_test,2024.2.4,MacIntel,63.69426752,75eead4b-7ccf-496c-8d0b-710dd07a7e27,5,344.8083,346.4575,space,0,0,27,27,27,1,X,,0.2309,,,,,,,,,,,
,,,,,R_9PNQyT6FJgCU4ml,001,2025-08-05_20h50.10.493,continuous_performance_test,2024.2.4,MacIntel,63.69426752,75eead4b-7ccf-496c-8d0b-710dd07a7e27,5,346.4586,348.158,space,1,0,28,28,7,1,H,space,0.2345,,,,,,,,,,,
,,,,,R_9PNQyT6FJgCU4ml,001,2025-08-05_20h50.10.493,continuous_performance_test,2024.2.4,MacIntel,63.69426752,75eead4b-7ccf-496c-8d0b-710dd07a7e27,5,348.1594,350.0579,space,1,0,29,29,9,1,J,space,0.23,,,,,,,,,,,
,,,,,R_9PNQyT6FJgCU4ml,001,2025-08-05_20h50.10.493,continuous_performance_test,2024.2.4,MacIntel,63.69426752,75eead4b-7ccf-496c-8d0b-710dd07a7e27,5,365.0656,366.858,space,1,0,0,0,12,1,M,space,0.2584,,350.0591,365.0582,,,,,,,,
,,,,,R_9PNQyT6FJgCU4ml,001,2025-08-05_20h50.10.493,continuous_performance_test,2024.2.4,MacIntel,63.69426752,75eead4b-7ccf-496c-8d0b-710dd07a7e27,5,366.8593,368.4081,space,1,0,1,1,3,1,D,space,0.2856,,,,,,,,,,,
,,,,,R_9PNQyT6FJgCU4ml,001,2025-08-05_20h50.10.493,continuous_performance_test,2024.2.4,MacIntel,63.69426752,75eead4b-7ccf-496c-8d0b-710dd07a7e27,5,368.4097,370.208,,0,0,2,2,0,1,A,space,,,,,,,,,,,,
,,,,,R_9PNQyT6FJgCU4ml,001,2025-08-05_20h50.10.493,continuous_performance_test,2024.2.4,MacIntel,63.69426752,75eead4b-7ccf-496c-8d0b-710dd07a7e27,5,370.2093,371.8079,space,1,0,3,3,21,1,V,space,0.2809,,,,,,,,,,,
,,,,,R_9PNQyT6FJgCU4ml,001,2025-08-05_20h50.10.493,continuous_performance_test,2024.2.4,MacIntel,63.69426752,75eead4b-7ccf-496c-8d0b-710dd07a7e27,5,371.8093,373.758,space,1,0,4,4,7,1,H,space,0.2477,,,,,,,,,,,
,,,,,R_9PNQyT6FJgCU4ml,001,2025-08-05_20h50.10.493,continuous_performance_test,2024.2.4,MacIntel,63.69426752,75eead4b-7ccf-496c-8d0b-710dd07a7e27,5,373.7591,375.458,space,1,0,5,5,13,1,N,space,0.2745,,,,,,,,,,,
,,,,,R_9PNQyT6FJgCU4ml,001,2025-08-05_20h50.10.493,continuous_performance_test,2024.2.4,MacIntel,63.69426752,75eead4b-7ccf-496c-8d0b-710dd07a7e27,5,375.4594,377.408,space,1,0,6,6,1,1,B,space,0.2018,,,,,,,,,,,
,,,,,R_9PNQyT6FJgCU4ml,001,2025-08-05_20h50.10.493,continuous_performance_test,2024.2.4,MacIntel,63.69426752,75eead4b-7ccf-496c-8d0b-710dd07a7e27,5,377.409,379.0076,space,1,0,7,7,2,1,C,space,0.2967,,,,,,,,,,,
,,,,,R_9PNQyT6FJgCU4ml,001,2025-08-05_20h50.10.493,continuous_performance_test,2024.2.4,MacIntel,63.69426752,75eead4b-7ccf-496c-8d0b-710dd07a7e27,5,379.0087,380.708,space,1,0,8,8,19,1,T,space,0.1645,,,,,,,,,,,
,,,,,R_9PNQyT6FJgCU4ml,001,2025-08-05_20h50.10.493,continuous_performance_test,2024.2.4,MacIntel,63.69426752,75eead4b-7ccf-496c-8d0b-710dd07a7e27,5,380.7092,382.358,space,1,0,9,9,14,1,O,space,0.2466,,,,,,,,,,,
,,,,,R_9PNQyT6FJgCU4ml,001,2025-08-05_20h50.10.493,continuous_performance_test,2024.2.4,MacIntel,63.69426752,75eead4b-7ccf-496c-8d0b-710dd07a7e27,5,382.359,384.1582,space,1,0,10,10,16,1,Q,space,0.0253,,,,,,,,,,,
,,,,,R_9PNQyT6FJgCU4ml,001,2025-08-05_20h50.10.493,continuous_performance_test,2024.2.4,MacIntel,63.69426752,75eead4b-7ccf-496c-8d0b-710dd07a7e27,5,384.1594,385.9072,space,1,0,11,11,9,1,J,space,0.2754,,,,,,,,,,,
,,,,,R_9PNQyT6FJgCU4ml,001,2025-08-05_20h50.10.493,continuous_performance_test,2024.2.4,MacIntel,63.69426752,75eead4b-7ccf-496c-8d0b-710dd07a7e27,5,385.9087,387.4579,space,0,0,12,12,27,1,X,,0.298,,,,,,,,,,,
,,,,,R_9PNQyT6FJgCU4ml,001,2025-08-05_20h50.10.493,continuous_performance_test,2024.2.4,MacIntel,63.69426752,75eead4b-7ccf-496c-8d0b-710dd07a7e27,5,387.4588,389.2079,space,0,0,13,13,29,1,X,,0.4163,,,,,,,,,,,
,,,,,R_9PNQyT6FJgCU4ml,001,2025-08-05_20h50.10.493,continuous_performance_test,2024.2.4,MacIntel,63.69426752,75eead4b-7ccf-496c-8d0b-710dd07a7e27,5,389.2089,390.8077,space,1,0,14,14,17,1,R,space,0.31,,,,,,,,,,,
,,,,,R_9PNQyT6FJgCU4ml,001,2025-08-05_20h50.10.493,continuous_performance_test,2024.2.4,MacIntel,63.69426752,75eead4b-7ccf-496c-8d0b-710dd07a7e27,5,390.809,392.458,space,1,0,15,15,18,1,S,space,0.3671,,,,,,,,,,,
,,,,,R_9PNQyT6FJgCU4ml,001,2025-08-05_20h50.10.493,continuous_performance_test,2024.2.4,MacIntel,63.69426752,75eead4b-7ccf-496c-8d0b-710dd07a7e27,5,392.4591,394.108,space,1,0,16,16,10,1,K,space,0.2476,,,,,,,,,,,
,,,,,R_9PNQyT6FJgCU4ml,001,2025-08-05_20h50.10.493,continuous_performance_test,2024.2.4,MacIntel,63.69426752,75eead4b-7ccf-496c-8d0b-710dd07a7e27,5,394.1093,396.0581,space,1,0,17,17,23,1,Y,space,0.3007,,,,,,,,,,,
,,,,,R_9PNQyT6FJgCU4ml,001,2025-08-05_20h50.10.493,continuous_performance_test,2024.2.4,MacIntel,63.69426752,75eead4b-7ccf-496c-8d0b-710dd07a7e27,5,396.0592,397.7578,space,0,0,18,18,28,1,X,,0.2513,,,,,,,,,,,
,,,,,R_9PNQyT6FJgCU4ml,001,2025-08-05_20h50.10.493,continuous_performance_test,2024.2.4,MacIntel,63.69426752,75eead4b-7ccf-496c-8d0b-710dd07a7e27,5,397.759,399.3081,space,1,0,19,19,20,1,U,space,0.4076,,,,,,,,,,,
,,,,,R_9PNQyT6FJgCU4ml,001,2025-08-05_20h50.10.493,continuous_performance_test,2024.2.4,MacIntel,63.69426752,75eead4b-7ccf-496c-8d0b-710dd07a7e27,5,399.3092,401.058,space,1,0,20,20,11,1,L,space,0.2979,,,,,,,,,,,
,,,,,R_9PNQyT6FJgCU4ml,001,2025-08-05_20h50.10.493,continuous_performance_test,2024.2.4,MacIntel,63.69426752,75eead4b-7ccf-496c-8d0b-710dd07a7e27,5,401.0592,403.0082,space,1,0,21,21,6,1,G,space,0.0004,,,,,,,,,,,
,,,,,R_9PNQyT6FJgCU4ml,001,2025-08-05_20h50.10.493,continuous_performance_test,2024.2.4,MacIntel,63.69426752,75eead4b-7ccf-496c-8d0b-710dd07a7e27,5,403.0096,404.9079,space,1,0,22,22,24,1,Z,space,0.2305,,,,,,,,,,,
,,,,,R_9PNQyT6FJgCU4ml,001,2025-08-05_20h50.10.493,continuous_performance_test,2024.2.4,MacIntel,63.69426752,75eead4b-7ccf-496c-8d0b-710dd07a7e27,5,404.9091,406.5582,space,1,0,23,23,5,1,F,space,0.2172,,,,,,,,,,,
,,,,,R_9PNQyT6FJgCU4ml,001,2025-08-05_20h50.10.493,continuous_performance_test,2024.2.4,MacIntel,63.69426752,75eead4b-7ccf-496c-8d0b-710dd07a7e27,5,406.5596,408.1082,space,1,0,24,24,4,1,E,space,0.2318,,,,,,,,,,,
,,,,,R_9PNQyT6FJgCU4ml,001,2025-08-05_20h50.10.493,continuous_performance_test,2024.2.4,MacIntel,63.69426752,75eead4b-7ccf-496c-8d0b-710dd07a7e27,5,408.1098,410.0582,,0,0,25,25,22,1,W,space,,,,,,,,,,,,
,,,,,R_9PNQyT6FJgCU4ml,001,2025-08-05_20h50.10.493,continuous_performance_test,2024.2.4,MacIntel,63.69426752,75eead4b-7ccf-496c-8d0b-710dd07a7e27,5,410.0596,411.8082,space,1,0,26,26,15,1,P,space,0.2309,,,,,,,,,,,
,,,,,R_9PNQyT6FJgCU4ml,001,2025-08-05_20h50.10.493,continuous_performance_test,2024.2.4,MacIntel,63.69426752,75eead4b-7ccf-496c-8d0b-710dd07a7e27,5,411.8094,413.7081,space,0,0,27,27,26,1,X,,0.1833,,,,,,,,,,,
,,,,,R_9PNQyT6FJgCU4ml,001,2025-08-05_20h50.10.493,continuous_performance_test,2024.2.4,MacIntel,63.69426752,75eead4b-7ccf-496c-8d0b-710dd07a7e27,5,413.7096,415.3583,space,1,0,28,28,8,1,I,space,0.3477,,,,,,,,,,,
,,,,,R_9PNQyT6FJgCU4ml,001,2025-08-05_20h50.10.493,continuous_performance_test,2024.2.4,MacIntel,63.69426752,75eead4b-7ccf-496c-8d0b-710dd07a7e27,5,415.3597,417.2581,space,0,0,29,29,25,1,X,,0.2166,,,,,,,,,,,
,,,,,R_9PNQyT6FJgCU4ml,001,2025-08-05_20h50.10.493,continuous_performance_test,2024.2.4,MacIntel,63.69426752,75eead4b-7ccf-496c-8d0b-710dd07a7e27,5,432.2656,433.8083,space,1,0,0,0,1,1,B,space,0.3633,,417.2593,432.2583,,,,,,,,
,,,,,R_9PNQyT6FJgCU4ml,001,2025-08-05_20h50.10.493,continuous_performance_test,2024.2.4,MacIntel,63.69426752,75eead4b-7ccf-496c-8d0b-710dd07a7e27,5,433.81,435.6582,space,0,0,1,1,27,1,X,,0.2554,,,,,,,,,,,
,,,,,R_9PNQyT6FJgCU4ml,001,2025-08-05_20h50.10.493,continuous_performance_test,2024.2.4,MacIntel,63.69426752,75eead4b-7ccf-496c-8d0b-710dd07a7e27,5,435.6596,437.4583,space,1,0,2,2,7,1,H,space,0.2727,,,,,,,,,,,
,,,,,R_9PNQyT6FJgCU4ml,001,2025-08-05_20h50.10.493,continuous_performance_test,2024.2.4,MacIntel,63.69426752,75eead4b-7ccf-496c-8d0b-710dd07a7e27,5,437.4595,439.1583,space,1,0,3,3,2,1,C,space,0.3,,,,,,,,,,,
,,,,,R_9PNQyT6FJgCU4ml,001,2025-08-05_20h50.10.493,continuous_performance_test,2024.2.4,MacIntel,63.69426752,75eead4b-7ccf-496c-8d0b-710dd07a7e27,5,439.1596,441.0583,space,1,0,4,4,12,1,M,space,0.1802,,,,,,,,,,,
,,,,,R_9PNQyT6FJgCU4ml,001,2025-08-05_20h50.10.493,continuous_performance_test,2024.2.4,MacIntel,63.69426752,75eead4b-7ccf-496c-8d0b-710dd07a7e27,5,441.0595,443.0081,,0,0,5,5,3,1,D,space,,,,,,,,,,,,
,,,,,R_9PNQyT6FJgCU4ml,001,2025-08-05_20h50.10.493,continuous_performance_test,2024.2.4,MacIntel,63.69426752,75eead4b-7ccf-496c-8d0b-710dd07a7e27,5,443.0092,444.7583,space,1,0,6,6,11,1,L,space,0.2144,,,,,,,,,,,
,,,,,R_9PNQyT6FJgCU4ml,001,2025-08-05_20h50.10.493,continuous_performance_test,2024.2.4,MacIntel,63.69426752,75eead4b-7ccf-496c-8d0b-710dd07a7e27,5,444.7596,446.6083,space,1,0,7,7,23,1,Y,space,0.2596,,,,,,,,,,,
,,,,,R_9PNQyT6FJgCU4ml,001,2025-08-05_20h50.10.493,continuous_performance_test,2024.2.4,MacIntel,63.69426752,75eead4b-7ccf-496c-8d0b-710dd07a7e27,5,446.6097,448.2083,space,1,0,8,8,4,1,E,space,0.2986,,,,,,,,,,,
,,,,,R_9PNQyT6FJgCU4ml,001,2025-08-05_20h50.10.493,continuous_performance_test,2024.2.4,MacIntel,63.69426752,75eead4b-7ccf-496c-8d0b-710dd07a7e27,5,448.2094,449.9583,space,1,0,9,9,24,1,Z,space,0.2854,,,,,,,,,,,
,,,,,R_9PNQyT6FJgCU4ml,001,2025-08-05_20h50.10.493,continuous_performance_test,2024.2.4,MacIntel,63.69426752,75eead4b-7ccf-496c-8d0b-710dd07a7e27,5,449.9597,451.5083,space,1,0,10,10,22,1,W,space,0.2975,,,,,,,,,,,
,,,,,R_9PNQyT6FJgCU4ml,001,2025-08-05_20h50.10.493,continuous_performance_test,2024.2.4,MacIntel,63.69426752,75eead4b-7ccf-496c-8d0b-710dd07a7e27,5,451.5096,453.1582,space,1,0,11,11,8,1,I,space,0.2591,,,,,,,,,,,
,,,,,R_9PNQyT6FJgCU4ml,001,2025-08-05_20h50.10.493,continuous_performance_test,2024.2.4,MacIntel,63.69426752,75eead4b-7ccf-496c-8d0b-710dd07a7e27,5,453.1594,454.8583,space,1,0,12,12,10,1,K,space,0.2268,,,,,,,,,,,
,,,,,R_9PNQyT6FJgCU4ml,001,2025-08-05_20h50.10.493,continuous_performance_test,2024.2.4,MacIntel,63.69426752,75eead4b-7ccf-496c-8d0b-710dd07a7e27,5,454.8596,456.7584,space,0,0,13,13,29,1,X,,0.2317,,,,,,,,,,,
,,,,,R_9PNQyT6FJgCU4ml,001,2025-08-05_20h50.10.493,continuous_performance_test,2024.2.4,MacIntel,63.69426752,75eead4b-7ccf-496c-8d0b-710dd07a7e27,5,456.7594,458.7582,,1,0,14,14,25,1,X,,,,,,,,,,,,,
,,,,,R_9PNQyT6FJgCU4ml,001,2025-08-05_20h50.10.493,continuous_performance_test,2024.2.4,MacIntel,63.69426752,75eead4b-7ccf-496c-8d0b-710dd07a7e27,5,458.7594,460.3583,space,1,0,15,15,9,1,J,space,0.2585,,,,,,,,,,,
,,,,,R_9PNQyT6FJgCU4ml,001,2025-08-05_20h50.10.493,continuous_performance_test,2024.2.4,MacIntel,63.69426752,75eead4b-7ccf-496c-8d0b-710dd07a7e27,5,460.3596,462.1575,,0,0,16,16,14,1,O,space,,,,,,,,,,,,
,,,,,R_9PNQyT6FJgCU4ml,001,2025-08-05_20h50.10.493,continuous_performance_test,2024.2.4,MacIntel,63.69426752,75eead4b-7ccf-496c-8d0b-710dd07a7e27,5,462.1586,464.1084,,0,0,17,17,20,1,U,space,,,,,,,,,,,,
,,,,,R_9PNQyT6FJgCU4ml,001,2025-08-05_20h50.10.493,continuous_performance_test,2024.2.4,MacIntel,63.69426752,75eead4b-7ccf-496c-8d0b-710dd07a7e27,5,464.1094,465.7583,space,1,0,18,18,15,1,P,space,0.2485,,,,,,,,,,,
,,,,,R_9PNQyT6FJgCU4ml,001,2025-08-05_20h50.10.493,continuous_performance_test,2024.2.4,MacIntel,63.69426752,75eead4b-7ccf-496c-8d0b-710dd07a7e27,5,465.7595,467.3584,space,1,0,19,19,16,1,Q,space,0.275,,,,,,,,,,,
,,,,,R_9PNQyT6FJgCU4ml,001,2025-08-05_20h50.10.493,continuous_performance_test,2024.2.4,MacIntel,63.69426752,75eead4b-7ccf-496c-8d0b-710dd07a7e27,5,467.3596,469.1584,space,0,0,20,20,28,1,X,,0.2271,,,,,,,,,,,
,,,,,R_9PNQyT6FJgCU4ml,001,2025-08-05_20h50.10.493,continuous_performance_test,2024.2.4,MacIntel,63.69426752,75eead4b-7ccf-496c-8d0b-710dd07a7e27,5,469.1595,470.9583,space,1,0,21,21,17,1,R,space,0.2641,,,,,,,,,,,
,,,,,R_9PNQyT6FJgCU4ml,001,2025-08-05_20h50.10.493,continuous_performance_test,2024.2.4,MacIntel,63.69426752,75eead4b-7ccf-496c-8d0b-710dd07a7e27,5,470.9595,472.6084,space,0,0,22,22,26,1,X,,0.3507,,,,,,,,,,,
,,,,,R_9PNQyT6FJgCU4ml,001,2025-08-05_20h50.10.493,continuous_performance_test,2024.2.4,MacIntel,63.69426752,75eead4b-7ccf-496c-8d0b-710dd07a7e27,5,472.6095,474.4083,space,1,0,23,23,5,1,F,space,0.2479,,,,,,,,,,,
,,,,,R_9PNQyT6FJgCU4ml,001,2025-08-05_20h50.10.493,continuous_performance_test,2024.2.4,MacIntel,63.69426752,75eead4b-7ccf-496c-8d0b-710dd07a7e27,5,474.4097,476.3084,space,1,0,24,24,0,1,A,space,0.2333,,,,,,,,,,,
,,,,,R_9PNQyT6FJgCU4ml,001,2025-08-05_20h50.10.493,continuous_performance_test,2024.2.4,MacIntel,63.69426752,75eead4b-7ccf-496c-8d0b-710dd07a7e27,5,476.3096,478.1085,space,1,0,25,25,13,1,N,space,0.2261,,,,,,,,,,,
,,,,,R_9PNQyT6FJgCU4ml,001,2025-08-05_20h50.10.493,continuous_performance_test,2024.2.4,MacIntel,63.69426752,75eead4b-7ccf-496c-8d0b-710dd07a7e27,5,478.1097,480.0585,,0,0,26,26,18,1,S,space,,,,,,,,,,,,
,,,,,R_9PNQyT6FJgCU4ml,001,2025-08-05_20h50.10.493,continuous_performance_test,2024.2.4,MacIntel,63.69426752,75eead4b-7ccf-496c-8d0b-710dd07a7e27,5,480.06,481.7084,space,1,0,27,27,21,1,V,space,0.2478,,,,,,,,,,,
,,,,,R_9PNQyT6FJgCU4ml,001,2025-08-05_20h50.10.493,continuous_performance_test,2024.2.4,MacIntel,63.69426752,75eead4b-7ccf-496c-8d0b-710dd07a7e27,5,481.7098,483.6084,space,1,0,28,28,6,1,G,space,0.2808,,,,,,,,,,,
,,,,,R_9PNQyT6FJgCU4ml,001,2025-08-05_20h50.10.493,continuous_performance_test,2024.2.4,MacIntel,63.69426752,75eead4b-7ccf-496c-8d0b-710dd07a7e27,5,483.6097,485.2576,space,1,0,29,29,19,1,T,space,0.2303,,,,,,,,,,,
,,,,,R_9PNQyT6FJgCU4ml,001,2025-08-05_20h50.10.493,continuous_performance_test,2024.2.4,MacIntel,63.69426752,75eead4b-7ccf-496c-8d0b-710dd07a7e27,5,500.2648,502.2575,space,1,0,0,0,12,1,M,space,0.2291,,485.259,500.2579,,,,,,,,
,,,,,R_9PNQyT6FJgCU4ml,001,2025-08-05_20h50.10.493,continuous_performance_test,2024.2.4,MacIntel,63.69426752,75eead4b-7ccf-496c-8d0b-710dd07a7e27,5,502.2586,504.2574,space,1,0,1,1,5,1,F,space,0.2494,,,,,,,,,,,
,,,,,R_9PNQyT6FJgCU4ml,001,2025-08-05_20h50.10.493,continuous_performance_test,2024.2.4,MacIntel,63.69426752,75eead4b-7ccf-496c-8d0b-710dd07a7e27,5,504.2586,506.1574,space,1,0,2,2,23,1,Y,space,0.2469,,,,,,,,,,,
,,,,,R_9PNQyT6FJgCU4ml,001,2025-08-05_20h50.10.493,continuous_performance_test,2024.2.4,MacIntel,63.69426752,75eead4b-7ccf-496c-8d0b-710dd07a7e27,5,506.1585,507.7585,space,1,0,3,3,2,1,C,space,0.2344,,,,,,,,,,,
,,,,,R_9PNQyT6FJgCU4ml,001,2025-08-05_20h50.10.493,continuous_performance_test,2024.2.4,MacIntel,63.69426752,75eead4b-7ccf-496c-8d0b-710dd07a7e27,5,507.7597,509.4076,,1,0,4,4,26,1,X,,,,,,,,,,,,,
,,,,,R_9PNQyT6FJgCU4ml,001,2025-08-05_20h50.10.493,continuous_performance_test,2024.2.4,MacIntel,63.69426752,75eead4b-7ccf-496c-8d0b-710dd07a7e27,5,509.4087,511.0084,space,1,0,5,5,16,1,Q,space,0.2665,,,,,,,,,,,
,,,,,R_9PNQyT6FJgCU4ml,001,2025-08-05_20h50.10.493,continuous_performance_test,2024.2.4,MacIntel,63.69426752,75eead4b-7ccf-496c-8d0b-710dd07a7e27,5,511.0097,512.7085,space,1,0,6,6,21,1,V,space,0.2439,,,,,,,,,,,
,,,,,R_9PNQyT6FJgCU4ml,001,2025-08-05_20h50.10.493,continuous_performance_test,2024.2.4,MacIntel,63.69426752,75eead4b-7ccf-496c-8d0b-710dd07a7e27,5,512.7095,514.7086,space,1,0,7,7,20,1,U,space,0.2863,,,,,,,,,,,
,,,,,R_9PNQyT6FJgCU4ml,001,2025-08-05_20h50.10.493,continuous_performance_test,2024.2.4,MacIntel,63.69426752,75eead4b-7ccf-496c-8d0b-710dd07a7e27,5,514.7097,516.3584,space,1,0,8,8,4,1,E,space,0.2809,,,,,,,,,,,
,,,,,R_9PNQyT6FJgCU4ml,001,2025-08-05_20h50.10.493,continuous_performance_test,2024.2.4,MacIntel,63.69426752,75eead4b-7ccf-496c-8d0b-710dd07a7e27,5,516.3595,518.0582,space,1,0,9,9,22,1,W,space,0.2365,,,,,,,,,,,
,,,,,R_9PNQyT6FJgCU4ml,001,2025-08-05_20h50.10.493,continuous_performance_test,2024.2.4,MacIntel,63.69426752,75eead4b-7ccf-496c-8d0b-710dd07a7e27,5,518.0594,519.6086,space,1,0,10,10,24,1,Z,space,0.3364,,,,,,,,,,,
,,,,,R_9PNQyT6FJgCU4ml,001,2025-08-05_20h50.10.493,continuous_performance_test,2024.2.4,MacIntel,63.69426752,75eead4b-7ccf-496c-8d0b-710dd07a7e27,5,519.6097,521.1586,space,0,0,11,11,29,1,X,,0.2967,,,,,,,,,,,
,,,,,R_9PNQyT6FJgCU4ml,001,2025-08-05_20h50.10.493,continuous_performance_test,2024.2.4,MacIntel,63.69426752,75eead4b-7ccf-496c-8d0b-710dd07a7e27,5,521.1601,522.8586,space,1,0,12,12,1,1,B,space,0.1755,,,,,,,,,,,
,,,,,R_9PNQyT6FJgCU4ml,001,2025-08-05_20h50.10.493,continuous_performance_test,2024.2.4,MacIntel,63.69426752,75eead4b-7ccf-496c-8d0b-710dd07a7e27,5,522.8598,524.5086,space,1,0,13,13,7,1,H,space,0.2625,,,,,,,,,,,
,,,,,R_9PNQyT6FJgCU4ml,001,2025-08-05_20h50.10.493,continuous_performance_test,2024.2.4,MacIntel,63.69426752,75eead4b-7ccf-496c-8d0b-710dd07a7e27,5,524.5097,526.1086,space,1,0,14,14,6,1,G,space,0.246,,,,,,,,,,,
,,,,,R_9PNQyT6FJgCU4ml,001,2025-08-05_20h50.10.493,continuous_performance_test,2024.2.4,MacIntel,63.69426752,75eead4b-7ccf-496c-8d0b-710dd07a7e27,5,526.1098,528.1087,,0,0,15,15,9,1,J,space,,,,,,,,,,,,
,,,,,R_9PNQyT6FJgCU4ml,001,2025-08-05_20h50.10.493,continuous_performance_test,2024.2.4,MacIntel,63.69426752,75eead4b-7ccf-496c-8d0b-710dd07a7e27,5,528.11,530.0584,space,1,0,16,16,13,1,N,space,0.2396,,,,,,,,,,,
,,,,,R_9PNQyT6FJgCU4ml,001,2025-08-05_20h50.10.493,continuous_performance_test,2024.2.4,MacIntel,63.69426752,75eead4b-7ccf-496c-8d0b-710dd07a7e27,5,530.0597,531.8086,space,0,0,17,17,27,1,X,,0.3307,,,,,,,,,,,
,,,,,R_9PNQyT6FJgCU4ml,001,2025-08-05_20h50.10.493,continuous_performance_test,2024.2.4,MacIntel,63.69426752,75eead4b-7ccf-496c-8d0b-710dd07a7e27,5,531.8099,533.7576,space,1,0,18,18,15,1,P,space,0.0462,,,,,,,,,,,
,,,,,R_9PNQyT6FJgCU4ml,001,2025-08-05_20h50.10.493,continuous_performance_test,2024.2.4,MacIntel,63.69426752,75eead4b-7ccf-496c-8d0b-710dd07a7e27,5,533.7588,535.7577,space,1,0,19,19,0,1,A,space,0.2304,,,,,,,,,,,
,,,,,R_9PNQyT6FJgCU4ml,001,2025-08-05_20h50.10.493,continuous_performance_test,2024.2.4,MacIntel,63.69426752,75eead4b-7ccf-496c-8d0b-710dd07a7e27,5,535.759,537.5587,space,1,0,20,20,3,1,D,space,0.3071,,,,,,,,,,,
,,,,,R_9PNQyT6FJgCU4ml,001,2025-08-05_20h50.10.493,continuous_performance_test,2024.2.4,MacIntel,63.69426752,75eead4b-7ccf-496c-8d0b-710dd07a7e27,5,537.5599,539.1086,space,1,0,21,21,10,1,K,space,0.2666,,,,,,,,,,,
,,,,,R_9PNQyT6FJgCU4ml,001,2025-08-05_20h50.10.493,continuous_performance_test,2024.2.4,MacIntel,63.69426752,75eead4b-7ccf-496c-8d0b-710dd07a7e27,5,539.11,540.8087,space,0,0,22,22,25,1,X,,0.1622,,,,,,,,,,,
,,,,,R_9PNQyT6FJgCU4ml,001,2025-08-05_20h50.10.493,continuous_performance_test,2024.2.4,MacIntel,63.69426752,75eead4b-7ccf-496c-8d0b-710dd07a7e27,5,540.81,542.3583,space,1,0,23,23,8,1,I,space,0.3077,,,,,,,,,,,
,,,,,R_9PNQyT6FJgCU4ml,001,2025-08-05_20h50.10.493,continuous_performance_test,2024.2.4,MacIntel,63.69426752,75eead4b-7ccf-496c-8d0b-710dd07a7e27,5,542.3595,543.9077,space,1,0,24,24,19,1,T,space,0.3086,,,,,,,,,,,
,,,,,R_9PNQyT6FJgCU4ml,001,2025-08-05_20h50.10.493,continuous_performance_test,2024.2.4,MacIntel,63.69426752,75eead4b-7ccf-496c-8d0b-710dd07a7e27,5,543.9088,545.6587,space,1,0,25,25,11,1,L,space,0.2797,,,,,,,,,,,
,,,,,R_9PNQyT6FJgCU4ml,001,2025-08-05_20h50.10.493,continuous_performance_test,2024.2.4,MacIntel,63.69426752,75eead4b-7ccf-496c-8d0b-710dd07a7e27,5,545.6599,547.5587,space,0,0,26,26,28,1,X,,0.2068,,,,,,,,,,,
,,,,,R_9PNQyT6FJgCU4ml,001,2025-08-05_20h50.10.493,continuous_performance_test,2024.2.4,MacIntel,63.69426752,75eead4b-7ccf-496c-8d0b-710dd07a7e27,5,547.5604,549.3576,space,1,0,27,27,18,1,S,space,0.2313,,,,,,,,,,,
,,,,,R_9PNQyT6FJgCU4ml,001,2025-08-05_20h50.10.493,continuous_performance_test,2024.2.4,MacIntel,63.69426752,75eead4b-7ccf-496c-8d0b-710dd07a7e27,5,549.3587,551.2577,space,1,0,28,28,17,1,R,space,0.2756,,,,,,,,,,,
,,,,,R_9PNQyT6FJgCU4ml,001,2025-08-05_20h50.10.493,continuous_performance_test,2024.2.4,MacIntel,63.69426752,75eead4b-7ccf-496c-8d0b-710dd07a7e27,5,551.2587,552.858,space,1,0,29,29,14,1,O,space,0.234,,,,,,,,,,,
,,,,,R_9PNQyT6FJgCU4ml,001,2025-08-05_20h50.10.493,continuous_performance_test,2024.2.4,MacIntel,63.69426752,75eead4b-7ccf-496c-8d0b-710dd07a7e27,5,567.8657,569.5079,space,1,0,0,0,8,1,I,space,0.0004,,552.8593,567.8588,,,,,,,,
,,,,,R_9PNQyT6FJgCU4ml,001,2025-08-05_20h50.10.493,continuous_performance_test,2024.2.4,MacIntel,63.69426752,75eead4b-7ccf-496c-8d0b-710dd07a7e27,5,569.5092,571.4579,space,1,0,1,1,21,1,V,space,0.2462,,,,,,,,,,,
,,,,,R_9PNQyT6FJgCU4ml,001,2025-08-05_20h50.10.493,continuous_performance_test,2024.2.4,MacIntel,63.69426752,75eead4b-7ccf-496c-8d0b-710dd07a7e27,5,571.4593,573.1079,space,1,0,2,2,6,1,G,space,0.2858,,,,,,,,,,,
,,,,,R_9PNQyT6FJgCU4ml,001,2025-08-05_20h50.10.493,continuous_performance_test,2024.2.4,MacIntel,63.69426752,75eead4b-7ccf-496c-8d0b-710dd07a7e27,5,573.1092,574.6588,space,1,0,3,3,7,1,H,space,0.2405,,,,,,,,,,,
,,,,,R_9PNQyT6FJgCU4ml,001,2025-08-05_20h50.10.493,continuous_performance_test,2024.2.4,MacIntel,63.69426752,75eead4b-7ccf-496c-8d0b-710dd07a7e27,5,574.6598,576.3089,space,0,0,4,4,26,1,X,,0.2805,,,,,,,,,,,
,,,,,R_9PNQyT6FJgCU4ml,001,2025-08-05_20h50.10.493,continuous_performance_test,2024.2.4,MacIntel,63.69426752,75eead4b-7ccf-496c-8d0b-710dd07a7e27,5,576.3107,578.1582,space,1,0,5,5,12,1,M,space,0.4971,,,,,,,,,,,
,,,,,R_9PNQyT6FJgCU4ml,001,2025-08-05_20h50.10.493,continuous_performance_test,2024.2.4,MacIntel,63.69426752,75eead4b-7ccf-496c-8d0b-710dd07a7e27,5,578.16,579.7088,space,1,0,6,6,10,1,K,space,0.3166,,,,,,,,,,,
,,,,,R_9PNQyT6FJgCU4ml,001,2025-08-05_20h50.10.493,continuous_performance_test,2024.2.4,MacIntel,63.69426752,75eead4b-7ccf-496c-8d0b-710dd07a7e27,5,579.71,581.3588,space,1,0,7,7,20,1,U,space,0.2315,,,,,,,,,,,
,,,,,R_9PNQyT6FJgCU4ml,001,2025-08-05_20h50.10.493,continuous_performance_test,2024.2.4,MacIntel,63.69426752,75eead4b-7ccf-496c-8d0b-710dd07a7e27,5,581.3604,583.3588,,0,0,8,8,16,1,Q,space,,,,,,,,,,,,
,,,,,R_9PNQyT6FJgCU4ml,001,2025-08-05_20h50.10.493,continuous_performance_test,2024.2.4,MacIntel,63.69426752,75eead4b-7ccf-496c-8d0b-710dd07a7e27,5,583.36,585.3579,space,1,0,9,9,15,1,P,space,0.2363,,,,,,,,,,,
,,,,,R_9PNQyT6FJgCU4ml,001,2025-08-05_20h50.10.493,continuous_performance_test,2024.2.4,MacIntel,63.69426752,75eead4b-7ccf-496c-8d0b-710dd07a7e27,5,585.3589,587.0079,space,1,0,10,10,0,1,A,space,0.2573,,,,,,,,,,,
,,,,,R_9PNQyT6FJgCU4ml,001,2025-08-05_20h50.10.493,continuous_performance_test,2024.2.4,MacIntel,63.69426752,75eead4b-7ccf-496c-8d0b-710dd07a7e27,5,587.009,588.8088,space,1,0,11,11,1,1,B,space,0.2488,,,,,,,,,,,
,,,,,R_9PNQyT6FJgCU4ml,001,2025-08-05_20h50.10.493,continuous_performance_test,2024.2.4,MacIntel,63.69426752,75eead4b-7ccf-496c-8d0b-710dd07a7e27,5,588.8101,590.6584,space,1,0,12,12,24,1,Z,space,0.2642,,,,,,,,,,,
,,,,,R_9PNQyT6FJgCU4ml,001,2025-08-05_20h50.10.493,continuous_performance_test,2024.2.4,MacIntel,63.69426752,75eead4b-7ccf-496c-8d0b-710dd07a7e27,5,590.6596,592.2587,space,1,0,13,13,4,1,E,space,0.2639,,,,,,,,,,,
,,,,,R_9PNQyT6FJgCU4ml,001,2025-08-05_20h50.10.493,continuous_performance_test,2024.2.4,MacIntel,63.69426752,75eead4b-7ccf-496c-8d0b-710dd07a7e27,5,592.2599,594.0079,space,1,0,14,14,17,1,R,space,0.2321,,,,,,,,,,,
,,,,,R_9PNQyT6FJgCU4ml,001,2025-08-05_20h50.10.493,continuous_performance_test,2024.2.4,MacIntel,63.69426752,75eead4b-7ccf-496c-8d0b-710dd07a7e27,5,594.009,595.909,space,1,0,15,15,11,1,L,space,0.1413,,,,,,,,,,,
,,,,,R_9PNQyT6FJgCU4ml,001,2025-08-05_20h50.10.493,continuous_performance_test,2024.2.4,MacIntel,63.69426752,75eead4b-7ccf-496c-8d0b-710dd07a7e27,5,595.9103,597.6591,space,1,0,16,16,2,1,C,space,0.2477,,,,,,,,,,,
,,,,,R_9PNQyT6FJgCU4ml,001,2025-08-05_20h50.10.493,continuous_performance_test,2024.2.4,MacIntel,63.69426752,75eead4b-7ccf-496c-8d0b-710dd07a7e27,5,597.6604,599.6581,space,1,0,17,17,13,1,N,space,0.2256,,,,,,,,,,,
,,,,,R_9PNQyT6FJgCU4ml,001,2025-08-05_20h50.10.493,continuous_performance_test,2024.2.4,MacIntel,63.69426752,75eead4b-7ccf-496c-8d0b-710dd07a7e27,5,599.6597,601.2579,space,1,0,18,18,19,1,T,space,0.236,,,,,,,,,,,
,,,,,R_9PNQyT6FJgCU4ml,001,2025-08-05_20h50.10.493,continuous_performance_test,2024.2.4,MacIntel,63.69426752,75eead4b-7ccf-496c-8d0b-710dd07a7e27,5,601.2591,603.209,space,1,0,19,19,3,1,D,space,0.2483,,,,,,,,,,,
,,,,,R_9PNQyT6FJgCU4ml,001,2025-08-05_20h50.10.493,continuous_performance_test,2024.2.4,MacIntel,63.69426752,75eead4b-7ccf-496c-8d0b-710dd07a7e27,5,603.2103,605.209,,0,0,20,20,14,1,O,space,,,,,,,,,,,,
,,,,,R_9PNQyT6FJgCU4ml,001,2025-08-05_20h50.10.493,continuous_performance_test,2024.2.4,MacIntel,63.69426752,75eead4b-7ccf-496c-8d0b-710dd07a7e27,5,605.2105,607.008,space,1,0,21,21,22,1,W,space,0.2965,,,,,,,,,,,
,,,,,R_9PNQyT6FJgCU4ml,001,2025-08-05_20h50.10.493,continuous_performance_test,2024.2.4,MacIntel,63.69426752,75eead4b-7ccf-496c-8d0b-710dd07a7e27,5,607.0093,608.559,space,1,0,22,22,5,1,F,space,0.2635,,,,,,,,,,,
,,,,,R_9PNQyT6FJgCU4ml,001,2025-08-05_20h50.10.493,continuous_performance_test,2024.2.4,MacIntel,63.69426752,75eead4b-7ccf-496c-8d0b-710dd07a7e27,5,608.5606,610.3588,space,1,0,23,23,18,1,S,space,0.1598,,,,,,,,,,,
,,,,,R_9PNQyT6FJgCU4ml,001,2025-08-05_20h50.10.493,continuous_performance_test,2024.2.4,MacIntel,63.69426752,75eead4b-7ccf-496c-8d0b-710dd07a7e27,5,610.3599,612.359,space,0,0,24,24,25,1,X,,0.2593,,,,,,,,,,,
,,,,,R_9PNQyT6FJgCU4ml,001,2025-08-05_20h50.10.493,continuous_performance_test,2024.2.4,MacIntel,63.69426752,75eead4b-7ccf-496c-8d0b-710dd07a7e27,5,612.3602,614.2585,space,1,0,25,25,23,1,Y,space,0.2323,,,,,,,,,,,
,,,,,R_9PNQyT6FJgCU4ml,001,2025-08-05_20h50.10.493,continuous_performance_test,2024.2.4,MacIntel,63.69426752,75eead4b-7ccf-496c-8d0b-710dd07a7e27,5,614.2596,616.0083,space,0,0,26,26,27,1,X,,0.2832,,,,,,,,,,,
,,,,,R_9PNQyT6FJgCU4ml,001,2025-08-05_20h50.10.493,continuous_performance_test,2024.2.4,MacIntel,63.69426752,75eead4b-7ccf-496c-8d0b-710dd07a7e27,5,616.0092,617.809,space,0,0,27,27,28,1,X,,0.2837,,,,,,,,,,,
,,,,,R_9PNQyT6FJgCU4ml,001,2025-08-05_20h50.10.493,continuous_performance_test,2024.2.4,MacIntel,63.69426752,75eead4b-7ccf-496c-8d0b-710dd07a7e27,5,617.8098,619.5088,space,0,0,28,28,29,1,X,,0.2679,,,,,,,,,,,
,,,,,R_9PNQyT6FJgCU4ml,001,2025-08-05_20h50.10.493,continuous_performance_test,2024.2.4,MacIntel,63.69426752,75eead4b-7ccf-496c-8d0b-710dd07a7e27,5,619.5099,621.509,space,1,0,29,29,9,1,J,space,0.0807,,,,,,,,,,,
,,,,,R_9PNQyT6FJgCU4ml,001,2025-08-05_20h50.10.493,continuous_performance_test,2024.2.4,MacIntel,63.69426752,75eead4b-7ccf-496c-8d0b-710dd07a7e27,5,636.5159,638.5091,space,1,0,0,0,5,1,F,space,0.2152,,621.5104,636.5091,,,,,,,,
,,,,,R_9PNQyT6FJgCU4ml,001,2025-08-05_20h50.10.493,continuous_performance_test,2024.2.4,MacIntel,63.69426752,75eead4b-7ccf-496c-8d0b-710dd07a7e27,5,638.5104,640.0592,space,1,0,1,1,1,1,B,space,0.2314,,,,,,,,,,,
,,,,,R_9PNQyT6FJgCU4ml,001,2025-08-05_20h50.10.493,continuous_performance_test,2024.2.4,MacIntel,63.69426752,75eead4b-7ccf-496c-8d0b-710dd07a7e27,5,640.0604,641.759,space,1,0,2,2,11,1,L,space,0.234,,,,,,,,,,,
,,,,,R_9PNQyT6FJgCU4ml,001,2025-08-05_20h50.10.493,continuous_performance_test,2024.2.4,MacIntel,63.69426752,75eead4b-7ccf-496c-8d0b-710dd07a7e27,5,641.7601,643.609,space,1,0,3,3,9,1,J,space,0.2401,,,,,,,,,,,
,,,,,R_9PNQyT6FJgCU4ml,001,2025-08-05_20h50.10.493,continuous_performance_test,2024.2.4,MacIntel,63.69426752,75eead4b-7ccf-496c-8d0b-710dd07a7e27,5,643.6102,645.409,space,1,0,4,4,8,1,I,space,0.2476,,,,,,,,,,,
,,,,,R_9PNQyT6FJgCU4ml,001,2025-08-05_20h50.10.493,continuous_performance_test,2024.2.4,MacIntel,63.69426752,75eead4b-7ccf-496c-8d0b-710dd07a7e27,5,645.41,647.2094,space,1,0,5,5,3,1,D,space,0.049,,,,,,,,,,,
,,,,,R_9PNQyT6FJgCU4ml,001,2025-08-05_20h50.10.493,continuous_performance_test,2024.2.4,MacIntel,63.69426752,75eead4b-7ccf-496c-8d0b-710dd07a7e27,5,647.2109,649.0591,space,0,0,6,6,27,1,X,,0.2264,,,,,,,,,,,
,,,,,R_9PNQyT6FJgCU4ml,001,2025-08-05_20h50.10.493,continuous_performance_test,2024.2.4,MacIntel,63.69426752,75eead4b-7ccf-496c-8d0b-710dd07a7e27,5,649.0603,651.0093,space,1,0,7,7,2,1,C,space,0.147,,,,,,,,,,,
,,,,,R_9PNQyT6FJgCU4ml,001,2025-08-05_20h50.10.493,continuous_performance_test,2024.2.4,MacIntel,63.69426752,75eead4b-7ccf-496c-8d0b-710dd07a7e27,5,651.0108,652.9591,space,0,0,8,8,29,1,X,,0.246,,,,,,,,,,,
,,,,,R_9PNQyT6FJgCU4ml,001,2025-08-05_20h50.10.493,continuous_performance_test,2024.2.4,MacIntel,63.69426752,75eead4b-7ccf-496c-8d0b-710dd07a7e27,5,652.9603,654.9092,space,1,0,9,9,20,1,U,space,0.248,,,,,,,,,,,
,,,,,R_9PNQyT6FJgCU4ml,001,2025-08-05_20h50.10.493,continuous_performance_test,2024.2.4,MacIntel,63.69426752,75eead4b-7ccf-496c-8d0b-710dd07a7e27,5,654.9109,656.7092,space,1,0,10,10,17,1,R,space,0.2249,,,,,,,,,,,
,,,,,R_9PNQyT6FJgCU4ml,001,2025-08-05_20h50.10.493,continuous_performance_test,2024.2.4,MacIntel,63.69426752,75eead4b-7ccf-496c-8d0b-710dd07a7e27,5,656.7106,658.4092,space,1,0,11,11,16,1,Q,space,0.308,,,,,,,,,,,
,,,,,R_9PNQyT6FJgCU4ml,001,2025-08-05_20h50.10.493,continuous_performance_test,2024.2.4,MacIntel,63.69426752,75eead4b-7ccf-496c-8d0b-710dd07a7e27,5,658.4108,660.1092,space,1,0,12,12,4,1,E,space,0.1746,,,,,,,,,,,
,,,,,R_9PNQyT6FJgCU4ml,001,2025-08-05_20h50.10.493,continuous_performance_test,2024.2.4,MacIntel,63.69426752,75eead4b-7ccf-496c-8d0b-710dd07a7e27,5,660.1108,661.9091,space,1,0,13,13,12,1,M,space,0.2141,,,,,,,,,,,
,,,,,R_9PNQyT6FJgCU4ml,001,2025-08-05_20h50.10.493,continuous_performance_test,2024.2.4,MacIntel,63.69426752,75eead4b-7ccf-496c-8d0b-710dd07a7e27,5,661.9103,663.8593,,1,0,14,14,26,1,X,,,,,,,,,,,,,
,,,,,R_9PNQyT6FJgCU4ml,001,2025-08-05_20h50.10.493,continuous_performance_test,2024.2.4,MacIntel,63.69426752,75eead4b-7ccf-496c-8d0b-710dd07a7e27,5,663.8611,665.7092,space,1,0,15,15,19,1,T,space,0.2302,,,,,,,,,,,
,,,,,R_9PNQyT6FJgCU4ml,001,2025-08-05_20h50.10.493,continuous_performance_test,2024.2.4,MacIntel,63.69426752,75eead4b-7ccf-496c-8d0b-710dd07a7e27,5,665.7105,667.7093,space,1,0,16,16,13,1,N,space,0.2137,,,,,,,,,,,
,,,,,R_9PNQyT6FJgCU4ml,001,2025-08-05_20h50.10.493,continuous_performance_test,2024.2.4,MacIntel,63.69426752,75eead4b-7ccf-496c-8d0b-710dd07a7e27,5,667.7109,669.5593,space,0,0,17,17,25,1,X,,0.297,,,,,,,,,,,
,,,,,R_9PNQyT6FJgCU4ml,001,2025-08-05_20h50.10.493,continuous_performance_test,2024.2.4,MacIntel,63.69426752,75eead4b-7ccf-496c-8d0b-710dd07a7e27,5,669.5608,671.1093,space,1,0,18,18,23,1,Y,space,0.2807,,,,,,,,,,,
,,,,,R_9PNQyT6FJgCU4ml,001,2025-08-05_20h50.10.493,continuous_performance_test,2024.2.4,MacIntel,63.69426752,75eead4b-7ccf-496c-8d0b-710dd07a7e27,5,671.1107,672.6595,space,1,0,19,19,15,1,P,space,0.2251,,,,,,,,,,,
,,,,,R_9PNQyT6FJgCU4ml,001,2025-08-05_20h50.10.493,continuous_performance_test,2024.2.4,MacIntel,63.69426752,75eead4b-7ccf-496c-8d0b-710dd07a7e27,5,672.6611,674.4595,space,1,0,20,20,6,1,G,space,0.2347,,,,,,,,,,,
,,,,,R_9PNQyT6FJgCU4ml,001,2025-08-05_20h50.10.493,continuous_performance_test,2024.2.4,MacIntel,63.69426752,75eead4b-7ccf-496c-8d0b-710dd07a7e27,5,674.4609,676.2093,space,0,0,21,21,28,1,X,,0.2632,,,,,,,,,,,
,,,,,R_9PNQyT6FJgCU4ml,001,2025-08-05_20h50.10.493,continuous_performance_test,2024.2.4,MacIntel,63.69426752,75eead4b-7ccf-496c-8d0b-710dd07a7e27,5,676.2109,678.0093,,0,0,22,22,22,1,W,space,,,,,,,,,,,,
,,,,,R_9PNQyT6FJgCU4ml,001,2025-08-05_20h50.10.493,continuous_performance_test,2024.2.4,MacIntel,63.69426752,75eead4b-7ccf-496c-8d0b-710dd07a7e27,5,678.0108,679.8093,space,1,0,23,23,21,1,V,space,0.1489,,,,,,,,,,,
,,,,,R_9PNQyT6FJgCU4ml,001,2025-08-05_20h50.10.493,continuous_performance_test,2024.2.4,MacIntel,63.69426752,75eead4b-7ccf-496c-8d0b-710dd07a7e27,5,679.8109,681.7595,space,1,0,24,24,7,1,H,space,0.268,,,,,,,,,,,
,,,,,R_9PNQyT6FJgCU4ml,001,2025-08-05_20h50.10.493,continuous_performance_test,2024.2.4,MacIntel,63.69426752,75eead4b-7ccf-496c-8d0b-710dd07a7e27,5,681.7609,683.4594,space,1,0,25,25,0,1,A,space,0.2462,,,,,,,,,,,
,,,,,R_9PNQyT6FJgCU4ml,001,2025-08-05_20h50.10.493,continuous_performance_test,2024.2.4,MacIntel,63.69426752,75eead4b-7ccf-496c-8d0b-710dd07a7e27,5,683.4609,685.0094,space,1,0,26,26,10,1,K,space,0.3088,,,,,,,,,,,
,,,,,R_9PNQyT6FJgCU4ml,001,2025-08-05_20h50.10.493,continuous_performance_test,2024.2.4,MacIntel,63.69426752,75eead4b-7ccf-496c-8d0b-710dd07a7e27,5,685.0108,686.9093,space,1,0,27,27,18,1,S,space,0.0004,,,,,,,,,,,
,,,,,R_9PNQyT6FJgCU4ml,001,2025-08-05_20h50.10.493,continuous_performance_test,2024.2.4,MacIntel,63.69426752,75eead4b-7ccf-496c-8d0b-710dd07a7e27,5,686.9106,688.4594,space,1,0,28,28,24,1,Z,space,0.2305,,,,,,,,,,,
,,,,,R_9PNQyT6FJgCU4ml,001,2025-08-05_20h50.10.493,continuous_performance_test,2024.2.4,MacIntel,63.69426752,75eead4b-7ccf-496c-8d0b-710dd07a7e27,5,688.4608,690.4587,space,1,0,29,29,14,1,O,space,0.2808,,,,,,,,,,,
,,,,,R_9PNQyT6FJgCU4ml,001,2025-08-05_20h50.10.493,continuous_performance_test,2024.2.4,MacIntel,63.69426752,75eead4b-7ccf-496c-8d0b-710dd07a7e27,5,705.4666,707.2093,space,1,0,0,0,20,1,U,space,0.2141,,690.4602,705.4593,,,,,,,,
,,,,,R_9PNQyT6FJgCU4ml,001,2025-08-05_20h50.10.493,continuous_performance_test,2024.2.4,MacIntel,63.69426752,75eead4b-7ccf-496c-8d0b-710dd07a7e27,5,707.2106,708.9094,space,1,0,1,1,0,1,A,space,0.2139,,,,,,,,,,,
,,,,,R_9PNQyT6FJgCU4ml,001,2025-08-05_20h50.10.493,continuous_performance_test,2024.2.4,MacIntel,63.69426752,75eead4b-7ccf-496c-8d0b-710dd07a7e27,5,708.9109,710.5094,space,0,0,2,2,28,1,X,,0.2339,,,,,,,,,,,
,,,,,R_9PNQyT6FJgCU4ml,001,2025-08-05_20h50.10.493,continuous_performance_test,2024.2.4,MacIntel,63.69426752,75eead4b-7ccf-496c-8d0b-710dd07a7e27,5,710.511,712.0593,space,1,0,3,3,21,1,V,space,0.2806,,,,,,,,,,,
,,,,,R_9PNQyT6FJgCU4ml,001,2025-08-05_20h50.10.493,continuous_performance_test,2024.2.4,MacIntel,63.69426752,75eead4b-7ccf-496c-8d0b-710dd07a7e27,5,712.0606,713.7594,space,1,0,4,4,13,1,N,space,0.259,,,,,,,,,,,
,,,,,R_9PNQyT6FJgCU4ml,001,2025-08-05_20h50.10.493,continuous_performance_test,2024.2.4,MacIntel,63.69426752,75eead4b-7ccf-496c-8d0b-710dd07a7e27,5,713.7606,715.5596,space,1,0,5,5,10,1,K,space,0.1168,,,,,,,,,,,
,,,,,R_9PNQyT6FJgCU4ml,001,2025-08-05_20h50.10.493,continuous_performance_test,2024.2.4,MacIntel,63.69426752,75eead4b-7ccf-496c-8d0b-710dd07a7e27,5,715.561,717.4094,space,1,0,6,6,12,1,M,space,0.2324,,,,,,,,,,,
,,,,,R_9PNQyT6FJgCU4ml,001,2025-08-05_20h50.10.493,continuous_performance_test,2024.2.4,MacIntel,63.69426752,75eead4b-7ccf-496c-8d0b-710dd07a7e27,5,717.4107,718.9595,space,1,0,7,7,17,1,R,space,0.2981,,,,,,,,,,,
,,,,,R_9PNQyT6FJgCU4ml,001,2025-08-05_20h50.10.493,continuous_performance_test,2024.2.4,MacIntel,63.69426752,75eead4b-7ccf-496c-8d0b-710dd07a7e27,5,718.9608,720.7585,space,1,0,8,8,19,1,T,space,0.2406,,,,,,,,,,,
,,,,,R_9PNQyT6FJgCU4ml,001,2025-08-05_20h50.10.493,continuous_performance_test,2024.2.4,MacIntel,63.69426752,75eead4b-7ccf-496c-8d0b-710dd07a7e27,5,720.7595,722.5094,space,1,0,9,9,18,1,S,space,0.2473,,,,,,,,,,,
,,,,,R_9PNQyT6FJgCU4ml,001,2025-08-05_20h50.10.493,continuous_performance_test,2024.2.4,MacIntel,63.69426752,75eead4b-7ccf-496c-8d0b-710dd07a7e27,5,722.5111,724.3594,,0,0,10,10,7,1,H,space,,,,,,,,,,,,
,,,,,R_9PNQyT6FJgCU4ml,001,2025-08-05_20h50.10.493,continuous_performance_test,2024.2.4,MacIntel,63.69426752,75eead4b-7ccf-496c-8d0b-710dd07a7e27,5,724.3606,726.3096,space,1,0,11,11,16,1,Q,space,0.2471,,,,,,,,,,,
,,,,,R_9PNQyT6FJgCU4ml,001,2025-08-05_20h50.10.493,continuous_performance_test,2024.2.4,MacIntel,63.69426752,75eead4b-7ccf-496c-8d0b-710dd07a7e27,5,726.3109,728.2093,space,0,0,12,12,26,1,X,,0.2933,,,,,,,,,,,
,,,,,R_9PNQyT6FJgCU4ml,001,2025-08-05_20h50.10.493,continuous_performance_test,2024.2.4,MacIntel,63.69426752,75eead4b-7ccf-496c-8d0b-710dd07a7e27,5,728.2104,730.2093,space,0,0,13,13,29,1,X,,0.1712,,,,,,,,,,,
,,,,,R_9PNQyT6FJgCU4ml,001,2025-08-05_20h50.10.493,continuous_performance_test,2024.2.4,MacIntel,63.69426752,75eead4b-7ccf-496c-8d0b-710dd07a7e27,5,730.2106,732.0598,space,1,0,14,14,14,1,O,space,0.2657,,,,,,,,,,,
,,,,,R_9PNQyT6FJgCU4ml,001,2025-08-05_20h50.10.493,continuous_performance_test,2024.2.4,MacIntel,63.69426752,75eead4b-7ccf-496c-8d0b-710dd07a7e27,5,732.0615,733.6595,space,1,0,15,15,6,1,G,space,0.3475,,,,,,,,,,,
,,,,,R_9PNQyT6FJgCU4ml,001,2025-08-05_20h50.10.493,continuous_performance_test,2024.2.4,MacIntel,63.69426752,75eead4b-7ccf-496c-8d0b-710dd07a7e27,5,733.6608,735.4088,space,0,0,16,16,27,1,X,,0.2468,,,,,,,,,,,
,,,,,R_9PNQyT6FJgCU4ml,001,2025-08-05_20h50.10.493,continuous_performance_test,2024.2.4,MacIntel,63.69426752,75eead4b-7ccf-496c-8d0b-710dd07a7e27,5,735.4101,737.0594,space,1,0,17,17,22,1,W,space,0.2815,,,,,,,,,,,
,,,,,R_9PNQyT6FJgCU4ml,001,2025-08-05_20h50.10.493,continuous_performance_test,2024.2.4,MacIntel,63.69426752,75eead4b-7ccf-496c-8d0b-710dd07a7e27,5,737.0605,739.0095,,0,0,18,18,3,1,D,space,,,,,,,,,,,,
,,,,,R_9PNQyT6FJgCU4ml,001,2025-08-05_20h50.10.493,continuous_performance_test,2024.2.4,MacIntel,63.69426752,75eead4b-7ccf-496c-8d0b-710dd07a7e27,5,739.0106,740.7093,space,1,0,19,19,11,1,L,space,0.3139,,,,,,,,,,,
,,,,,R_9PNQyT6FJgCU4ml,001,2025-08-05_20h50.10.493,continuous_performance_test,2024.2.4,MacIntel,63.69426752,75eead4b-7ccf-496c-8d0b-710dd07a7e27,5,740.7105,742.3584,space,1,0,20,20,15,1,P,space,0.3024,,,,,,,,,,,
,,,,,R_9PNQyT6FJgCU4ml,001,2025-08-05_20h50.10.493,continuous_performance_test,2024.2.4,MacIntel,63.69426752,75eead4b-7ccf-496c-8d0b-710dd07a7e27,5,742.3595,744.0594,space,1,0,21,21,24,1,Z,space,0.2955,,,,,,,,,,,
,,,,,R_9PNQyT6FJgCU4ml,001,2025-08-05_20h50.10.493,continuous_performance_test,2024.2.4,MacIntel,63.69426752,75eead4b-7ccf-496c-8d0b-710dd07a7e27,5,744.0607,746.0595,space,1,0,22,22,9,1,J,space,0.2439,,,,,,,,,,,
,,,,,R_9PNQyT6FJgCU4ml,001,2025-08-05_20h50.10.493,continuous_performance_test,2024.2.4,MacIntel,63.69426752,75eead4b-7ccf-496c-8d0b-710dd07a7e27,5,746.0606,747.6095,space,1,0,23,23,8,1,I,space,0.2773,,,,,,,,,,,
,,,,,R_9PNQyT6FJgCU4ml,001,2025-08-05_20h50.10.493,continuous_performance_test,2024.2.4,MacIntel,63.69426752,75eead4b-7ccf-496c-8d0b-710dd07a7e27,5,747.6108,749.3098,space,1,0,24,24,1,1,B,space,0.2304,,,,,,,,,,,
,,,,,R_9PNQyT6FJgCU4ml,001,2025-08-05_20h50.10.493,continuous_performance_test,2024.2.4,MacIntel,63.69426752,75eead4b-7ccf-496c-8d0b-710dd07a7e27,5,749.3116,751.1595,space,1,0,25,25,4,1,E,space,0.2635,,,,,,,,,,,
,,,,,R_9PNQyT6FJgCU4ml,001,2025-08-05_20h50.10.493,continuous_performance_test,2024.2.4,MacIntel,63.69426752,75eead4b-7ccf-496c-8d0b-710dd07a7e27,5,751.1607,752.9596,space,1,0,26,26,23,1,Y,space,0.2629,,,,,,,,,,,
,,,,,R_9PNQyT6FJgCU4ml,001,2025-08-05_20h50.10.493,continuous_performance_test,2024.2.4,MacIntel,63.69426752,75eead4b-7ccf-496c-8d0b-710dd07a7e27,5,752.9608,754.7097,space,0,0,27,27,25,1,X,,0.2654,,,,,,,,,,,
,,,,,R_9PNQyT6FJgCU4ml,001,2025-08-05_20h50.10.493,continuous_performance_test,2024.2.4,MacIntel,63.69426752,75eead4b-7ccf-496c-8d0b-710dd07a7e27,5,754.7112,756.6096,space,1,0,28,28,5,1,F,space,0.296,,,,,,,,,,,
,,,,,R_9PNQyT6FJgCU4ml,001,2025-08-05_20h50.10.493,continuous_performance_test,2024.2.4,MacIntel,63.69426752,75eead4b-7ccf-496c-8d0b-710dd07a7e27,5,756.611,758.4596,space,1,0,29,29,2,1,C,space,0.1681,,,,,,,,,,,
,,,,,R_9PNQyT6FJgCU4ml,001,2025-08-05_20h50.10.493,continuous_performance_test,2024.2.4,MacIntel,63.69426752,75eead4b-7ccf-496c-8d0b-710dd07a7e27,5,,,,,,,,,,,,,,758.4606,758.4613,,,,758.4616,767.6601,space,9.1807,
