Instructions.started,Instructions.stopped,key_resp.keys,key_resp.rt,key_resp.duration,participant,session,date,expName,psychopyVersion,OS,frameRate,realeye-tester-id,realeye-tester-quality_grade,Trial_noX.started,Trial_noX.stopped,response.keys,response.corr,trials_noX.thisRepN,trials_noX.thisTrialN,trials_noX.thisN,trials_noX.thisIndex,trials_noX.ran,letter,corrAns,response.rt,response.duration,BlockBreak.started,BlockBreak.stopped,key_instruct.keys,key_instruct.rt,key_instruct.duration,End_NoX.started,End_NoX.stopped,key_resp_end_noX.keys,key_resp_end_noX.rt,key_resp_end_noX.duration
0.0003,17.7627,space,17.7348,,R_9S6oNUcHNK5WSUG,001,2025-08-16_11h49.24.932,continuous_performance_test,2024.2.4,Win32,59.88023952,70bab9e1-13ab-42e2-90e4-dce9dd3b1826,5,,,,,,,,,,,,,,,,,,,,,,,
,,,,,R_9S6oNUcHNK5WSUG,001,2025-08-16_11h49.24.932,continuous_performance_test,2024.2.4,Win32,59.88023952,70bab9e1-13ab-42e2-90e4-dce9dd3b1826,5,17.7768,19.6279,,0,0,0,0,2,1,C,space,,,,,,,,,,,,
,,,,,R_9S6oNUcHNK5WSUG,001,2025-08-16_11h49.24.932,continuous_performance_test,2024.2.4,Win32,59.88023952,70bab9e1-13ab-42e2-90e4-dce9dd3b1826,5,19.6294,21.3301,space,0,0,1,1,25,1,X,,0.3079,,,,,,,,,,,
,,,,,R_9S6oNUcHNK5WSUG,001,2025-08-16_11h49.24.932,continuous_performance_test,2024.2.4,Win32,59.88023952,70bab9e1-13ab-42e2-90e4-dce9dd3b1826,5,21.3317,23.3268,space,1,0,2,2,17,1,R,space,0.3672,,,,,,,,,,,
,,,,,R_9S6oNUcHNK5WSUG,001,2025-08-16_11h49.24.932,continuous_performance_test,2024.2.4,Win32,59.88023952,70bab9e1-13ab-42e2-90e4-dce9dd3b1826,5,23.3287,24.8765,space,1,0,3,3,7,1,H,space,0.362,,,,,,,,,,,
,,,,,R_9S6oNUcHNK5WSUG,001,2025-08-16_11h49.24.932,continuous_performance_test,2024.2.4,Win32,59.88023952,70bab9e1-13ab-42e2-90e4-dce9dd3b1826,5,24.8785,26.8757,space,1,0,4,4,9,1,J,space,0.3336,,,,,,,,,,,
,,,,,R_9S6oNUcHNK5WSUG,001,2025-08-16_11h49.24.932,continuous_performance_test,2024.2.4,Win32,59.88023952,70bab9e1-13ab-42e2-90e4-dce9dd3b1826,5,26.8772,28.7249,space,1,0,5,5,18,1,S,space,0.285,,,,,,,,,,,
,,,,,R_9S6oNUcHNK5WSUG,001,2025-08-16_11h49.24.932,continuous_performance_test,2024.2.4,Win32,59.88023952,70bab9e1-13ab-42e2-90e4-dce9dd3b1826,5,28.7266,30.4242,space,1,0,6,6,0,1,A,space,0.3277,,,,,,,,,,,
,,,,,R_9S6oNUcHNK5WSUG,001,2025-08-16_11h49.24.932,continuous_performance_test,2024.2.4,Win32,59.88023952,70bab9e1-13ab-42e2-90e4-dce9dd3b1826,5,30.4261,32.1242,space,1,0,7,7,12,1,M,space,0.368,,,,,,,,,,,
,,,,,R_9S6oNUcHNK5WSUG,001,2025-08-16_11h49.24.932,continuous_performance_test,2024.2.4,Win32,59.88023952,70bab9e1-13ab-42e2-90e4-dce9dd3b1826,5,32.1254,33.6731,space,1,0,8,8,11,1,L,space,0.319,,,,,,,,,,,
,,,,,R_9S6oNUcHNK5WSUG,001,2025-08-16_11h49.24.932,continuous_performance_test,2024.2.4,Win32,59.88023952,70bab9e1-13ab-42e2-90e4-dce9dd3b1826,5,33.6747,35.3721,space,1,0,9,9,3,1,D,space,0.3191,,,,,,,,,,,
,,,,,R_9S6oNUcHNK5WSUG,001,2025-08-16_11h49.24.932,continuous_performance_test,2024.2.4,Win32,59.88023952,70bab9e1-13ab-42e2-90e4-dce9dd3b1826,5,35.3739,37.0221,space,1,0,10,10,15,1,P,space,0.2856,,,,,,,,,,,
,,,,,R_9S6oNUcHNK5WSUG,001,2025-08-16_11h49.24.932,continuous_performance_test,2024.2.4,Win32,59.88023952,70bab9e1-13ab-42e2-90e4-dce9dd3b1826,5,37.0243,38.6713,space,1,0,11,11,1,1,B,space,0.2377,,,,,,,,,,,
,,,,,R_9S6oNUcHNK5WSUG,001,2025-08-16_11h49.24.932,continuous_performance_test,2024.2.4,Win32,59.88023952,70bab9e1-13ab-42e2-90e4-dce9dd3b1826,5,38.6741,40.2709,space,1,0,12,12,24,1,Z,space,0.3023,,,,,,,,,,,
,,,,,R_9S6oNUcHNK5WSUG,001,2025-08-16_11h49.24.932,continuous_performance_test,2024.2.4,Win32,59.88023952,70bab9e1-13ab-42e2-90e4-dce9dd3b1826,5,40.2726,41.8701,space,0,0,13,13,27,1,X,,0.3008,,,,,,,,,,,
,,,,,R_9S6oNUcHNK5WSUG,001,2025-08-16_11h49.24.932,continuous_performance_test,2024.2.4,Win32,59.88023952,70bab9e1-13ab-42e2-90e4-dce9dd3b1826,5,41.8712,43.7199,space,0,0,14,14,28,1,X,,0.3313,,,,,,,,,,,
,,,,,R_9S6oNUcHNK5WSUG,001,2025-08-16_11h49.24.932,continuous_performance_test,2024.2.4,Win32,59.88023952,70bab9e1-13ab-42e2-90e4-dce9dd3b1826,5,43.7214,45.2691,space,1,0,15,15,14,1,O,space,0.3842,,,,,,,,,,,
,,,,,R_9S6oNUcHNK5WSUG,001,2025-08-16_11h49.24.932,continuous_performance_test,2024.2.4,Win32,59.88023952,70bab9e1-13ab-42e2-90e4-dce9dd3b1826,5,45.2708,47.0185,space,1,0,16,16,20,1,U,space,0.3423,,,,,,,,,,,
,,,,,R_9S6oNUcHNK5WSUG,001,2025-08-16_11h49.24.932,continuous_performance_test,2024.2.4,Win32,59.88023952,70bab9e1-13ab-42e2-90e4-dce9dd3b1826,5,47.0199,48.572,space,1,0,17,17,4,1,E,space,0.3021,,,,,,,,,,,
,,,,,R_9S6oNUcHNK5WSUG,001,2025-08-16_11h49.24.932,continuous_performance_test,2024.2.4,Win32,59.88023952,70bab9e1-13ab-42e2-90e4-dce9dd3b1826,5,48.5731,50.4176,,1,0,18,18,29,1,X,,,,,,,,,,,,,
,,,,,R_9S6oNUcHNK5WSUG,001,2025-08-16_11h49.24.932,continuous_performance_test,2024.2.4,Win32,59.88023952,70bab9e1-13ab-42e2-90e4-dce9dd3b1826,5,50.419,52.1669,space,1,0,19,19,23,1,Y,space,0.2217,,,,,,,,,,,
,,,,,R_9S6oNUcHNK5WSUG,001,2025-08-16_11h49.24.932,continuous_performance_test,2024.2.4,Win32,59.88023952,70bab9e1-13ab-42e2-90e4-dce9dd3b1826,5,52.1686,53.7164,space,1,0,20,20,6,1,G,space,0.2714,,,,,,,,,,,
,,,,,R_9S6oNUcHNK5WSUG,001,2025-08-16_11h49.24.932,continuous_performance_test,2024.2.4,Win32,59.88023952,70bab9e1-13ab-42e2-90e4-dce9dd3b1826,5,53.7183,55.6158,space,1,0,21,21,5,1,F,space,0.3011,,,,,,,,,,,
,,,,,R_9S6oNUcHNK5WSUG,001,2025-08-16_11h49.24.932,continuous_performance_test,2024.2.4,Win32,59.88023952,70bab9e1-13ab-42e2-90e4-dce9dd3b1826,5,55.6178,57.2156,space,1,0,22,22,13,1,N,space,0.3255,,,,,,,,,,,
,,,,,R_9S6oNUcHNK5WSUG,001,2025-08-16_11h49.24.932,continuous_performance_test,2024.2.4,Win32,59.88023952,70bab9e1-13ab-42e2-90e4-dce9dd3b1826,5,57.2168,59.0645,space,0,0,23,23,26,1,X,,0.2839,,,,,,,,,,,
,,,,,R_9S6oNUcHNK5WSUG,001,2025-08-16_11h49.24.932,continuous_performance_test,2024.2.4,Win32,59.88023952,70bab9e1-13ab-42e2-90e4-dce9dd3b1826,5,59.0662,60.7141,space,1,0,24,24,16,1,Q,space,0.3897,,,,,,,,,,,
,,,,,R_9S6oNUcHNK5WSUG,001,2025-08-16_11h49.24.932,continuous_performance_test,2024.2.4,Win32,59.88023952,70bab9e1-13ab-42e2-90e4-dce9dd3b1826,5,60.7157,62.7134,space,1,0,25,25,8,1,I,space,0.4902,,,,,,,,,,,
,,,,,R_9S6oNUcHNK5WSUG,001,2025-08-16_11h49.24.932,continuous_performance_test,2024.2.4,Win32,59.88023952,70bab9e1-13ab-42e2-90e4-dce9dd3b1826,5,62.7156,64.3629,space,1,0,26,26,10,1,K,space,0.3828,,,,,,,,,,,
,,,,,R_9S6oNUcHNK5WSUG,001,2025-08-16_11h49.24.932,continuous_performance_test,2024.2.4,Win32,59.88023952,70bab9e1-13ab-42e2-90e4-dce9dd3b1826,5,64.3643,65.912,space,1,0,27,27,19,1,T,space,0.2932,,,,,,,,,,,
,,,,,R_9S6oNUcHNK5WSUG,001,2025-08-16_11h49.24.932,continuous_performance_test,2024.2.4,Win32,59.88023952,70bab9e1-13ab-42e2-90e4-dce9dd3b1826,5,65.9139,67.662,space,1,0,28,28,21,1,V,space,0.244,,,,,,,,,,,
,,,,,R_9S6oNUcHNK5WSUG,001,2025-08-16_11h49.24.932,continuous_performance_test,2024.2.4,Win32,59.88023952,70bab9e1-13ab-42e2-90e4-dce9dd3b1826,5,67.6633,69.6137,space,1,0,29,29,22,1,W,space,0.3696,,,,,,,,,,,
,,,,,R_9S6oNUcHNK5WSUG,001,2025-08-16_11h49.24.932,continuous_performance_test,2024.2.4,Win32,59.88023952,70bab9e1-13ab-42e2-90e4-dce9dd3b1826,5,81.5471,83.1397,,1,0,0,0,28,1,X,,,,69.6144,81.5409,space,11.8984,,,,,,
,,,,,R_9S6oNUcHNK5WSUG,001,2025-08-16_11h49.24.932,continuous_performance_test,2024.2.4,Win32,59.88023952,70bab9e1-13ab-42e2-90e4-dce9dd3b1826,5,83.141,84.6891,space,1,0,1,1,7,1,H,space,0.4005,,,,,,,,,,,
,,,,,R_9S6oNUcHNK5WSUG,001,2025-08-16_11h49.24.932,continuous_performance_test,2024.2.4,Win32,59.88023952,70bab9e1-13ab-42e2-90e4-dce9dd3b1826,5,84.69,86.2884,space,1,0,2,2,12,1,M,space,0.3342,,,,,,,,,,,
,,,,,R_9S6oNUcHNK5WSUG,001,2025-08-16_11h49.24.932,continuous_performance_test,2024.2.4,Win32,59.88023952,70bab9e1-13ab-42e2-90e4-dce9dd3b1826,5,86.2897,88.2377,space,0,0,3,3,27,1,X,,0.302,,,,,,,,,,,
,,,,,R_9S6oNUcHNK5WSUG,001,2025-08-16_11h49.24.932,continuous_performance_test,2024.2.4,Win32,59.88023952,70bab9e1-13ab-42e2-90e4-dce9dd3b1826,5,88.2392,90.1376,space,1,0,4,4,15,1,P,space,0.3814,,,,,,,,,,,
,,,,,R_9S6oNUcHNK5WSUG,001,2025-08-16_11h49.24.932,continuous_performance_test,2024.2.4,Win32,59.88023952,70bab9e1-13ab-42e2-90e4-dce9dd3b1826,5,90.139,92.1369,space,1,0,5,5,3,1,D,space,0.4728,,,,,,,,,,,
,,,,,R_9S6oNUcHNK5WSUG,001,2025-08-16_11h49.24.932,continuous_performance_test,2024.2.4,Win32,59.88023952,70bab9e1-13ab-42e2-90e4-dce9dd3b1826,5,92.1383,94.1359,space,1,0,6,6,0,1,A,space,0.302,,,,,,,,,,,
,,,,,R_9S6oNUcHNK5WSUG,001,2025-08-16_11h49.24.932,continuous_performance_test,2024.2.4,Win32,59.88023952,70bab9e1-13ab-42e2-90e4-dce9dd3b1826,5,94.1372,95.8853,space,0,0,7,7,25,1,X,,0.268,,,,,,,,,,,
,,,,,R_9S6oNUcHNK5WSUG,001,2025-08-16_11h49.24.932,continuous_performance_test,2024.2.4,Win32,59.88023952,70bab9e1-13ab-42e2-90e4-dce9dd3b1826,5,95.8871,97.8848,space,1,0,8,8,4,1,E,space,0.3207,,,,,,,,,,,
,,,,,R_9S6oNUcHNK5WSUG,001,2025-08-16_11h49.24.932,continuous_performance_test,2024.2.4,Win32,59.88023952,70bab9e1-13ab-42e2-90e4-dce9dd3b1826,5,97.8861,99.5841,space,1,0,9,9,23,1,Y,space,0.3721,,,,,,,,,,,
,,,,,R_9S6oNUcHNK5WSUG,001,2025-08-16_11h49.24.932,continuous_performance_test,2024.2.4,Win32,59.88023952,70bab9e1-13ab-42e2-90e4-dce9dd3b1826,5,99.5858,101.5334,space,1,0,10,10,2,1,C,space,0.3509,,,,,,,,,,,
,,,,,R_9S6oNUcHNK5WSUG,001,2025-08-16_11h49.24.932,continuous_performance_test,2024.2.4,Win32,59.88023952,70bab9e1-13ab-42e2-90e4-dce9dd3b1826,5,101.5345,103.433,space,1,0,11,11,14,1,O,space,0.3344,,,,,,,,,,,
,,,,,R_9S6oNUcHNK5WSUG,001,2025-08-16_11h49.24.932,continuous_performance_test,2024.2.4,Win32,59.88023952,70bab9e1-13ab-42e2-90e4-dce9dd3b1826,5,103.4341,105.0823,space,1,0,12,12,5,1,F,space,0.3706,,,,,,,,,,,
,,,,,R_9S6oNUcHNK5WSUG,001,2025-08-16_11h49.24.932,continuous_performance_test,2024.2.4,Win32,59.88023952,70bab9e1-13ab-42e2-90e4-dce9dd3b1826,5,105.0835,106.7321,space,1,0,13,13,21,1,V,space,0.3359,,,,,,,,,,,
,,,,,R_9S6oNUcHNK5WSUG,001,2025-08-16_11h49.24.932,continuous_performance_test,2024.2.4,Win32,59.88023952,70bab9e1-13ab-42e2-90e4-dce9dd3b1826,5,106.7334,108.6313,space,1,0,14,14,22,1,W,space,0.3093,,,,,,,,,,,
,,,,,R_9S6oNUcHNK5WSUG,001,2025-08-16_11h49.24.932,continuous_performance_test,2024.2.4,Win32,59.88023952,70bab9e1-13ab-42e2-90e4-dce9dd3b1826,5,108.6328,110.5808,,1,0,15,15,26,1,X,,,,,,,,,,,,,
,,,,,R_9S6oNUcHNK5WSUG,001,2025-08-16_11h49.24.932,continuous_performance_test,2024.2.4,Win32,59.88023952,70bab9e1-13ab-42e2-90e4-dce9dd3b1826,5,110.5819,112.1297,space,1,0,16,16,18,1,S,space,0.3165,,,,,,,,,,,
,,,,,R_9S6oNUcHNK5WSUG,001,2025-08-16_11h49.24.932,continuous_performance_test,2024.2.4,Win32,59.88023952,70bab9e1-13ab-42e2-90e4-dce9dd3b1826,5,112.1311,113.8794,space,1,0,17,17,16,1,Q,space,0.3344,,,,,,,,,,,
,,,,,R_9S6oNUcHNK5WSUG,001,2025-08-16_11h49.24.932,continuous_performance_test,2024.2.4,Win32,59.88023952,70bab9e1-13ab-42e2-90e4-dce9dd3b1826,5,113.8804,115.829,space,0,0,18,18,29,1,X,,0.2968,,,,,,,,,,,
,,,,,R_9S6oNUcHNK5WSUG,001,2025-08-16_11h49.24.932,continuous_performance_test,2024.2.4,Win32,59.88023952,70bab9e1-13ab-42e2-90e4-dce9dd3b1826,5,115.8308,117.7319,space,1,0,19,19,6,1,G,space,0.3915,,,,,,,,,,,
,,,,,R_9S6oNUcHNK5WSUG,001,2025-08-16_11h49.24.932,continuous_performance_test,2024.2.4,Win32,59.88023952,70bab9e1-13ab-42e2-90e4-dce9dd3b1826,5,117.7331,119.4771,space,1,0,20,20,19,1,T,space,0.2679,,,,,,,,,,,
,,,,,R_9S6oNUcHNK5WSUG,001,2025-08-16_11h49.24.932,continuous_performance_test,2024.2.4,Win32,59.88023952,70bab9e1-13ab-42e2-90e4-dce9dd3b1826,5,119.4786,121.3768,space,1,0,21,21,13,1,N,space,0.3226,,,,,,,,,,,
,,,,,R_9S6oNUcHNK5WSUG,001,2025-08-16_11h49.24.932,continuous_performance_test,2024.2.4,Win32,59.88023952,70bab9e1-13ab-42e2-90e4-dce9dd3b1826,5,121.3781,122.9791,space,1,0,22,22,24,1,Z,space,0.3379,,,,,,,,,,,
,,,,,R_9S6oNUcHNK5WSUG,001,2025-08-16_11h49.24.932,continuous_performance_test,2024.2.4,Win32,59.88023952,70bab9e1-13ab-42e2-90e4-dce9dd3b1826,5,122.9798,124.9754,space,1,0,23,23,9,1,J,space,0.3009,,,,,,,,,,,
,,,,,R_9S6oNUcHNK5WSUG,001,2025-08-16_11h49.24.932,continuous_performance_test,2024.2.4,Win32,59.88023952,70bab9e1-13ab-42e2-90e4-dce9dd3b1826,5,124.9769,126.575,space,1,0,24,24,17,1,R,space,0.3116,,,,,,,,,,,
,,,,,R_9S6oNUcHNK5WSUG,001,2025-08-16_11h49.24.932,continuous_performance_test,2024.2.4,Win32,59.88023952,70bab9e1-13ab-42e2-90e4-dce9dd3b1826,5,126.5761,128.4241,space,1,0,25,25,20,1,U,space,0.631,,,,,,,,,,,
,,,,,R_9S6oNUcHNK5WSUG,001,2025-08-16_11h49.24.932,continuous_performance_test,2024.2.4,Win32,59.88023952,70bab9e1-13ab-42e2-90e4-dce9dd3b1826,5,128.4254,130.3735,space,1,0,26,26,1,1,B,space,0.3774,,,,,,,,,,,
,,,,,R_9S6oNUcHNK5WSUG,001,2025-08-16_11h49.24.932,continuous_performance_test,2024.2.4,Win32,59.88023952,70bab9e1-13ab-42e2-90e4-dce9dd3b1826,5,130.3747,132.1769,space,1,0,27,27,11,1,L,space,0.3392,,,,,,,,,,,
,,,,,R_9S6oNUcHNK5WSUG,001,2025-08-16_11h49.24.932,continuous_performance_test,2024.2.4,Win32,59.88023952,70bab9e1-13ab-42e2-90e4-dce9dd3b1826,5,132.1776,134.1724,space,1,0,28,28,8,1,I,space,0.2754,,,,,,,,,,,
,,,,,R_9S6oNUcHNK5WSUG,001,2025-08-16_11h49.24.932,continuous_performance_test,2024.2.4,Win32,59.88023952,70bab9e1-13ab-42e2-90e4-dce9dd3b1826,5,134.1739,135.7718,space,1,0,29,29,10,1,K,space,0.3501,,,,,,,,,,,
,,,,,R_9S6oNUcHNK5WSUG,001,2025-08-16_11h49.24.932,continuous_performance_test,2024.2.4,Win32,59.88023952,70bab9e1-13ab-42e2-90e4-dce9dd3b1826,5,150.6884,152.3828,,0,0,0,0,24,1,Z,space,,,135.7729,150.6837,space,14.8823,,,,,,
,,,,,R_9S6oNUcHNK5WSUG,001,2025-08-16_11h49.24.932,continuous_performance_test,2024.2.4,Win32,59.88023952,70bab9e1-13ab-42e2-90e4-dce9dd3b1826,5,152.3842,154.1838,space,1,0,1,1,6,1,G,space,0.3297,,,,,,,,,,,
,,,,,R_9S6oNUcHNK5WSUG,001,2025-08-16_11h49.24.932,continuous_performance_test,2024.2.4,Win32,59.88023952,70bab9e1-13ab-42e2-90e4-dce9dd3b1826,5,154.1853,156.0815,space,1,0,2,2,4,1,E,space,0.2769,,,,,,,,,,,
,,,,,R_9S6oNUcHNK5WSUG,001,2025-08-16_11h49.24.932,continuous_performance_test,2024.2.4,Win32,59.88023952,70bab9e1-13ab-42e2-90e4-dce9dd3b1826,5,156.0828,157.6311,space,1,0,3,3,3,1,D,space,0.3591,,,,,,,,,,,
,,,,,R_9S6oNUcHNK5WSUG,001,2025-08-16_11h49.24.932,continuous_performance_test,2024.2.4,Win32,59.88023952,70bab9e1-13ab-42e2-90e4-dce9dd3b1826,5,157.6324,159.4807,space,1,0,4,4,18,1,S,space,0.2994,,,,,,,,,,,
,,,,,R_9S6oNUcHNK5WSUG,001,2025-08-16_11h49.24.932,continuous_performance_test,2024.2.4,Win32,59.88023952,70bab9e1-13ab-42e2-90e4-dce9dd3b1826,5,159.4827,161.4296,space,1,0,5,5,19,1,T,space,0.3158,,,,,,,,,,,
,,,,,R_9S6oNUcHNK5WSUG,001,2025-08-16_11h49.24.932,continuous_performance_test,2024.2.4,Win32,59.88023952,70bab9e1-13ab-42e2-90e4-dce9dd3b1826,5,161.4309,163.2791,space,1,0,6,6,17,1,R,space,0.3346,,,,,,,,,,,
,,,,,R_9S6oNUcHNK5WSUG,001,2025-08-16_11h49.24.932,continuous_performance_test,2024.2.4,Win32,59.88023952,70bab9e1-13ab-42e2-90e4-dce9dd3b1826,5,163.2806,165.1285,space,1,0,7,7,2,1,C,space,0.3512,,,,,,,,,,,
,,,,,R_9S6oNUcHNK5WSUG,001,2025-08-16_11h49.24.932,continuous_performance_test,2024.2.4,Win32,59.88023952,70bab9e1-13ab-42e2-90e4-dce9dd3b1826,5,165.1298,167.0282,space,1,0,8,8,14,1,O,space,0.3594,,,,,,,,,,,
,,,,,R_9S6oNUcHNK5WSUG,001,2025-08-16_11h49.24.932,continuous_performance_test,2024.2.4,Win32,59.88023952,70bab9e1-13ab-42e2-90e4-dce9dd3b1826,5,167.0298,169.0308,space,1,0,9,9,23,1,Y,space,0.2914,,,,,,,,,,,
,,,,,R_9S6oNUcHNK5WSUG,001,2025-08-16_11h49.24.932,continuous_performance_test,2024.2.4,Win32,59.88023952,70bab9e1-13ab-42e2-90e4-dce9dd3b1826,5,169.0316,170.627,space,1,0,10,10,22,1,W,space,0.4025,,,,,,,,,,,
,,,,,R_9S6oNUcHNK5WSUG,001,2025-08-16_11h49.24.932,continuous_performance_test,2024.2.4,Win32,59.88023952,70bab9e1-13ab-42e2-90e4-dce9dd3b1826,5,170.6281,172.2763,space,1,0,11,11,13,1,N,space,0.3909,,,,,,,,,,,
,,,,,R_9S6oNUcHNK5WSUG,001,2025-08-16_11h49.24.932,continuous_performance_test,2024.2.4,Win32,59.88023952,70bab9e1-13ab-42e2-90e4-dce9dd3b1826,5,172.2776,174.1757,,1,0,12,12,28,1,X,,,,,,,,,,,,,
,,,,,R_9S6oNUcHNK5WSUG,001,2025-08-16_11h49.24.932,continuous_performance_test,2024.2.4,Win32,59.88023952,70bab9e1-13ab-42e2-90e4-dce9dd3b1826,5,174.177,175.8249,space,1,0,13,13,16,1,Q,space,0.3192,,,,,,,,,,,
,,,,,R_9S6oNUcHNK5WSUG,001,2025-08-16_11h49.24.932,continuous_performance_test,2024.2.4,Win32,59.88023952,70bab9e1-13ab-42e2-90e4-dce9dd3b1826,5,175.8262,177.5242,space,1,0,14,14,12,1,M,space,0.3673,,,,,,,,,,,
,,,,,R_9S6oNUcHNK5WSUG,001,2025-08-16_11h49.24.932,continuous_performance_test,2024.2.4,Win32,59.88023952,70bab9e1-13ab-42e2-90e4-dce9dd3b1826,5,177.5256,179.224,space,1,0,15,15,7,1,H,space,0.3563,,,,,,,,,,,
,,,,,R_9S6oNUcHNK5WSUG,001,2025-08-16_11h49.24.932,continuous_performance_test,2024.2.4,Win32,59.88023952,70bab9e1-13ab-42e2-90e4-dce9dd3b1826,5,179.2252,180.7733,space,0,0,16,16,25,1,X,,0.3363,,,,,,,,,,,
,,,,,R_9S6oNUcHNK5WSUG,001,2025-08-16_11h49.24.932,continuous_performance_test,2024.2.4,Win32,59.88023952,70bab9e1-13ab-42e2-90e4-dce9dd3b1826,5,180.7746,182.5264,space,1,0,17,17,9,1,J,space,0.3263,,,,,,,,,,,
,,,,,R_9S6oNUcHNK5WSUG,001,2025-08-16_11h49.24.932,continuous_performance_test,2024.2.4,Win32,59.88023952,70bab9e1-13ab-42e2-90e4-dce9dd3b1826,5,182.5272,184.4221,space,0,0,18,18,27,1,X,,0.3204,,,,,,,,,,,
,,,,,R_9S6oNUcHNK5WSUG,001,2025-08-16_11h49.24.932,continuous_performance_test,2024.2.4,Win32,59.88023952,70bab9e1-13ab-42e2-90e4-dce9dd3b1826,5,184.4235,186.0716,,1,0,19,19,26,1,X,,,,,,,,,,,,,
,,,,,R_9S6oNUcHNK5WSUG,001,2025-08-16_11h49.24.932,continuous_performance_test,2024.2.4,Win32,59.88023952,70bab9e1-13ab-42e2-90e4-dce9dd3b1826,5,186.0727,187.7208,,1,0,20,20,29,1,X,,,,,,,,,,,,,
,,,,,R_9S6oNUcHNK5WSUG,001,2025-08-16_11h49.24.932,continuous_performance_test,2024.2.4,Win32,59.88023952,70bab9e1-13ab-42e2-90e4-dce9dd3b1826,5,187.7221,189.2729,space,1,0,21,21,0,1,A,space,0.4349,,,,,,,,,,,
,,,,,R_9S6oNUcHNK5WSUG,001,2025-08-16_11h49.24.932,continuous_performance_test,2024.2.4,Win32,59.88023952,70bab9e1-13ab-42e2-90e4-dce9dd3b1826,5,189.2738,190.8237,space,1,0,22,22,20,1,U,space,0.4176,,,,,,,,,,,
,,,,,R_9S6oNUcHNK5WSUG,001,2025-08-16_11h49.24.932,continuous_performance_test,2024.2.4,Win32,59.88023952,70bab9e1-13ab-42e2-90e4-dce9dd3b1826,5,190.8253,192.4191,space,1,0,23,23,11,1,L,space,0.389,,,,,,,,,,,
,,,,,R_9S6oNUcHNK5WSUG,001,2025-08-16_11h49.24.932,continuous_performance_test,2024.2.4,Win32,59.88023952,70bab9e1-13ab-42e2-90e4-dce9dd3b1826,5,192.4205,194.4186,space,1,0,24,24,10,1,K,space,0.2857,,,,,,,,,,,
,,,,,R_9S6oNUcHNK5WSUG,001,2025-08-16_11h49.24.932,continuous_performance_test,2024.2.4,Win32,59.88023952,70bab9e1-13ab-42e2-90e4-dce9dd3b1826,5,194.4199,196.2678,space,1,0,25,25,5,1,F,space,0.3169,,,,,,,,,,,
,,,,,R_9S6oNUcHNK5WSUG,001,2025-08-16_11h49.24.932,continuous_performance_test,2024.2.4,Win32,59.88023952,70bab9e1-13ab-42e2-90e4-dce9dd3b1826,5,196.2693,198.0176,space,1,0,26,26,1,1,B,space,0.3322,,,,,,,,,,,
,,,,,R_9S6oNUcHNK5WSUG,001,2025-08-16_11h49.24.932,continuous_performance_test,2024.2.4,Win32,59.88023952,70bab9e1-13ab-42e2-90e4-dce9dd3b1826,5,198.0187,199.7668,space,1,0,27,27,21,1,V,space,0.3238,,,,,,,,,,,
,,,,,R_9S6oNUcHNK5WSUG,001,2025-08-16_11h49.24.932,continuous_performance_test,2024.2.4,Win32,59.88023952,70bab9e1-13ab-42e2-90e4-dce9dd3b1826,5,199.7683,201.5199,space,1,0,28,28,15,1,P,space,0.2938,,,,,,,,,,,
,,,,,R_9S6oNUcHNK5WSUG,001,2025-08-16_11h49.24.932,continuous_performance_test,2024.2.4,Win32,59.88023952,70bab9e1-13ab-42e2-90e4-dce9dd3b1826,5,201.521,203.1655,space,1,0,29,29,8,1,I,space,0.4078,,,,,,,,,,,
,,,,,R_9S6oNUcHNK5WSUG,001,2025-08-16_11h49.24.932,continuous_performance_test,2024.2.4,Win32,59.88023952,70bab9e1-13ab-42e2-90e4-dce9dd3b1826,5,214.7687,216.461,space,1,0,0,0,16,1,Q,space,0.3746,,203.1667,214.7615,space,11.5705,,,,,,
,,,,,R_9S6oNUcHNK5WSUG,001,2025-08-16_11h49.24.932,continuous_performance_test,2024.2.4,Win32,59.88023952,70bab9e1-13ab-42e2-90e4-dce9dd3b1826,5,216.4626,218.4603,space,1,0,1,1,3,1,D,space,0.327,,,,,,,,,,,
,,,,,R_9S6oNUcHNK5WSUG,001,2025-08-16_11h49.24.932,continuous_performance_test,2024.2.4,Win32,59.88023952,70bab9e1-13ab-42e2-90e4-dce9dd3b1826,5,218.462,220.3597,space,1,0,2,2,9,1,J,space,0.3187,,,,,,,,,,,
,,,,,R_9S6oNUcHNK5WSUG,001,2025-08-16_11h49.24.932,continuous_performance_test,2024.2.4,Win32,59.88023952,70bab9e1-13ab-42e2-90e4-dce9dd3b1826,5,220.361,221.9622,space,1,0,3,3,23,1,Y,space,0.5671,,,,,,,,,,,
,,,,,R_9S6oNUcHNK5WSUG,001,2025-08-16_11h49.24.932,continuous_performance_test,2024.2.4,Win32,59.88023952,70bab9e1-13ab-42e2-90e4-dce9dd3b1826,5,221.9631,223.9586,space,1,0,4,4,18,1,S,space,0.3873,,,,,,,,,,,
,,,,,R_9S6oNUcHNK5WSUG,001,2025-08-16_11h49.24.932,continuous_performance_test,2024.2.4,Win32,59.88023952,70bab9e1-13ab-42e2-90e4-dce9dd3b1826,5,223.9599,225.9577,space,1,0,5,5,21,1,V,space,0.3493,,,,,,,,,,,
,,,,,R_9S6oNUcHNK5WSUG,001,2025-08-16_11h49.24.932,continuous_performance_test,2024.2.4,Win32,59.88023952,70bab9e1-13ab-42e2-90e4-dce9dd3b1826,5,225.9589,227.5075,,0,0,6,6,14,1,O,space,,,,,,,,,,,,
,,,,,R_9S6oNUcHNK5WSUG,001,2025-08-16_11h49.24.932,continuous_performance_test,2024.2.4,Win32,59.88023952,70bab9e1-13ab-42e2-90e4-dce9dd3b1826,5,227.5088,229.3566,space,1,0,7,7,11,1,L,space,0.334,,,,,,,,,,,
,,,,,R_9S6oNUcHNK5WSUG,001,2025-08-16_11h49.24.932,continuous_performance_test,2024.2.4,Win32,59.88023952,70bab9e1-13ab-42e2-90e4-dce9dd3b1826,5,229.3579,230.9565,space,1,0,8,8,15,1,P,space,0.3268,,,,,,,,,,,
,,,,,R_9S6oNUcHNK5WSUG,001,2025-08-16_11h49.24.932,continuous_performance_test,2024.2.4,Win32,59.88023952,70bab9e1-13ab-42e2-90e4-dce9dd3b1826,5,230.9584,232.7553,space,1,0,9,9,19,1,T,space,0.3013,,,,,,,,,,,
,,,,,R_9S6oNUcHNK5WSUG,001,2025-08-16_11h49.24.932,continuous_performance_test,2024.2.4,Win32,59.88023952,70bab9e1-13ab-42e2-90e4-dce9dd3b1826,5,232.7566,234.3052,space,1,0,10,10,1,1,B,space,0.2911,,,,,,,,,,,
,,,,,R_9S6oNUcHNK5WSUG,001,2025-08-16_11h49.24.932,continuous_performance_test,2024.2.4,Win32,59.88023952,70bab9e1-13ab-42e2-90e4-dce9dd3b1826,5,234.3062,236.0047,space,1,0,11,11,6,1,G,space,0.3831,,,,,,,,,,,
,,,,,R_9S6oNUcHNK5WSUG,001,2025-08-16_11h49.24.932,continuous_performance_test,2024.2.4,Win32,59.88023952,70bab9e1-13ab-42e2-90e4-dce9dd3b1826,5,236.0059,237.8036,space,1,0,12,12,2,1,C,space,0.4549,,,,,,,,,,,
,,,,,R_9S6oNUcHNK5WSUG,001,2025-08-16_11h49.24.932,continuous_performance_test,2024.2.4,Win32,59.88023952,70bab9e1-13ab-42e2-90e4-dce9dd3b1826,5,237.805,239.3538,,0,0,13,13,17,1,R,space,,,,,,,,,,,,
,,,,,R_9S6oNUcHNK5WSUG,001,2025-08-16_11h49.24.932,continuous_performance_test,2024.2.4,Win32,59.88023952,70bab9e1-13ab-42e2-90e4-dce9dd3b1826,5,239.3548,241.1026,space,1,0,14,14,22,1,W,space,0.3173,,,,,,,,,,,
,,,,,R_9S6oNUcHNK5WSUG,001,2025-08-16_11h49.24.932,continuous_performance_test,2024.2.4,Win32,59.88023952,70bab9e1-13ab-42e2-90e4-dce9dd3b1826,5,241.1038,242.8521,space,0,0,15,15,27,1,X,,0.3359,,,,,,,,,,,
,,,,,R_9S6oNUcHNK5WSUG,001,2025-08-16_11h49.24.932,continuous_performance_test,2024.2.4,Win32,59.88023952,70bab9e1-13ab-42e2-90e4-dce9dd3b1826,5,242.8537,244.8014,space,1,0,16,16,5,1,F,space,0.312,,,,,,,,,,,
,,,,,R_9S6oNUcHNK5WSUG,001,2025-08-16_11h49.24.932,continuous_performance_test,2024.2.4,Win32,59.88023952,70bab9e1-13ab-42e2-90e4-dce9dd3b1826,5,244.8028,246.8044,space,1,0,17,17,7,1,H,space,0.3507,,,,,,,,,,,
,,,,,R_9S6oNUcHNK5WSUG,001,2025-08-16_11h49.24.932,continuous_performance_test,2024.2.4,Win32,59.88023952,70bab9e1-13ab-42e2-90e4-dce9dd3b1826,5,246.8054,248.7501,space,1,0,18,18,0,1,A,space,0.4183,,,,,,,,,,,
,,,,,R_9S6oNUcHNK5WSUG,001,2025-08-16_11h49.24.932,continuous_performance_test,2024.2.4,Win32,59.88023952,70bab9e1-13ab-42e2-90e4-dce9dd3b1826,5,248.7517,250.2998,space,1,0,19,19,20,1,U,space,0.5898,,,,,,,,,,,
,,,,,R_9S6oNUcHNK5WSUG,001,2025-08-16_11h49.24.932,continuous_performance_test,2024.2.4,Win32,59.88023952,70bab9e1-13ab-42e2-90e4-dce9dd3b1826,5,250.3013,252.299,space,1,0,20,20,24,1,Z,space,0.7525,,,,,,,,,,,
,,,,,R_9S6oNUcHNK5WSUG,001,2025-08-16_11h49.24.932,continuous_performance_test,2024.2.4,Win32,59.88023952,70bab9e1-13ab-42e2-90e4-dce9dd3b1826,5,252.3005,253.9485,space,0,0,21,21,29,1,X,,0.5356,,,,,,,,,,,
,,,,,R_9S6oNUcHNK5WSUG,001,2025-08-16_11h49.24.932,continuous_performance_test,2024.2.4,Win32,59.88023952,70bab9e1-13ab-42e2-90e4-dce9dd3b1826,5,253.9499,255.4982,space,1,0,22,22,4,1,E,space,0.4877,,,,,,,,,,,
,,,,,R_9S6oNUcHNK5WSUG,001,2025-08-16_11h49.24.932,continuous_performance_test,2024.2.4,Win32,59.88023952,70bab9e1-13ab-42e2-90e4-dce9dd3b1826,5,255.4993,257.3473,,1,0,23,23,26,1,X,,,,,,,,,,,,,
,,,,,R_9S6oNUcHNK5WSUG,001,2025-08-16_11h49.24.932,continuous_performance_test,2024.2.4,Win32,59.88023952,70bab9e1-13ab-42e2-90e4-dce9dd3b1826,5,257.3484,259.3468,space,1,0,24,24,10,1,K,space,0.3737,,,,,,,,,,,
,,,,,R_9S6oNUcHNK5WSUG,001,2025-08-16_11h49.24.932,continuous_performance_test,2024.2.4,Win32,59.88023952,70bab9e1-13ab-42e2-90e4-dce9dd3b1826,5,259.3483,260.9958,space,0,0,25,25,25,1,X,,0.4511,,,,,,,,,,,
,,,,,R_9S6oNUcHNK5WSUG,001,2025-08-16_11h49.24.932,continuous_performance_test,2024.2.4,Win32,59.88023952,70bab9e1-13ab-42e2-90e4-dce9dd3b1826,5,260.9971,262.6961,space,1,0,26,26,13,1,N,space,0.3461,,,,,,,,,,,
,,,,,R_9S6oNUcHNK5WSUG,001,2025-08-16_11h49.24.932,continuous_performance_test,2024.2.4,Win32,59.88023952,70bab9e1-13ab-42e2-90e4-dce9dd3b1826,5,262.6968,264.3948,space,1,0,27,27,8,1,I,space,0.4433,,,,,,,,,,,
,,,,,R_9S6oNUcHNK5WSUG,001,2025-08-16_11h49.24.932,continuous_performance_test,2024.2.4,Win32,59.88023952,70bab9e1-13ab-42e2-90e4-dce9dd3b1826,5,264.3962,266.1946,space,1,0,28,28,12,1,M,space,0.4926,,,,,,,,,,,
,,,,,R_9S6oNUcHNK5WSUG,001,2025-08-16_11h49.24.932,continuous_performance_test,2024.2.4,Win32,59.88023952,70bab9e1-13ab-42e2-90e4-dce9dd3b1826,5,266.1961,268.1441,space,0,0,29,29,28,1,X,,0.7514,,,,,,,,,,,
,,,,,R_9S6oNUcHNK5WSUG,001,2025-08-16_11h49.24.932,continuous_performance_test,2024.2.4,Win32,59.88023952,70bab9e1-13ab-42e2-90e4-dce9dd3b1826,5,278.9147,280.7061,,1,0,0,0,27,1,X,,,,268.145,278.9069,space,10.7318,,,,,,
,,,,,R_9S6oNUcHNK5WSUG,001,2025-08-16_11h49.24.932,continuous_performance_test,2024.2.4,Win32,59.88023952,70bab9e1-13ab-42e2-90e4-dce9dd3b1826,5,280.7079,282.3555,space,1,0,1,1,5,1,F,space,0.3784,,,,,,,,,,,
,,,,,R_9S6oNUcHNK5WSUG,001,2025-08-16_11h49.24.932,continuous_performance_test,2024.2.4,Win32,59.88023952,70bab9e1-13ab-42e2-90e4-dce9dd3b1826,5,282.3571,284.2048,space,1,0,2,2,23,1,Y,space,0.4011,,,,,,,,,,,
,,,,,R_9S6oNUcHNK5WSUG,001,2025-08-16_11h49.24.932,continuous_performance_test,2024.2.4,Win32,59.88023952,70bab9e1-13ab-42e2-90e4-dce9dd3b1826,5,284.2062,285.9541,space,1,0,3,3,17,1,R,space,0.3174,,,,,,,,,,,
,,,,,R_9S6oNUcHNK5WSUG,001,2025-08-16_11h49.24.932,continuous_performance_test,2024.2.4,Win32,59.88023952,70bab9e1-13ab-42e2-90e4-dce9dd3b1826,5,285.9554,287.805,space,1,0,4,4,16,1,Q,space,0.4192,,,,,,,,,,,
,,,,,R_9S6oNUcHNK5WSUG,001,2025-08-16_11h49.24.932,continuous_performance_test,2024.2.4,Win32,59.88023952,70bab9e1-13ab-42e2-90e4-dce9dd3b1826,5,287.8058,289.3531,space,1,0,5,5,14,1,O,space,0.4357,,,,,,,,,,,
,,,,,R_9S6oNUcHNK5WSUG,001,2025-08-16_11h49.24.932,continuous_performance_test,2024.2.4,Win32,59.88023952,70bab9e1-13ab-42e2-90e4-dce9dd3b1826,5,289.3552,291.1526,space,1,0,6,6,10,1,K,space,0.4502,,,,,,,,,,,
,,,,,R_9S6oNUcHNK5WSUG,001,2025-08-16_11h49.24.932,continuous_performance_test,2024.2.4,Win32,59.88023952,70bab9e1-13ab-42e2-90e4-dce9dd3b1826,5,291.1548,292.9018,space,1,0,7,7,13,1,N,space,0.4098,,,,,,,,,,,
,,,,,R_9S6oNUcHNK5WSUG,001,2025-08-16_11h49.24.932,continuous_performance_test,2024.2.4,Win32,59.88023952,70bab9e1-13ab-42e2-90e4-dce9dd3b1826,5,292.903,294.7513,space,1,0,8,8,12,1,M,space,0.3768,,,,,,,,,,,
,,,,,R_9S6oNUcHNK5WSUG,001,2025-08-16_11h49.24.932,continuous_performance_test,2024.2.4,Win32,59.88023952,70bab9e1-13ab-42e2-90e4-dce9dd3b1826,5,294.7525,296.7004,space,1,0,9,9,22,1,W,space,0.4619,,,,,,,,,,,
,,,,,R_9S6oNUcHNK5WSUG,001,2025-08-16_11h49.24.932,continuous_performance_test,2024.2.4,Win32,59.88023952,70bab9e1-13ab-42e2-90e4-dce9dd3b1826,5,296.702,298.6498,space,1,0,10,10,15,1,P,space,0.4505,,,,,,,,,,,
,,,,,R_9S6oNUcHNK5WSUG,001,2025-08-16_11h49.24.932,continuous_performance_test,2024.2.4,Win32,59.88023952,70bab9e1-13ab-42e2-90e4-dce9dd3b1826,5,298.6513,300.2495,,1,0,11,11,26,1,X,,,,,,,,,,,,,
,,,,,R_9S6oNUcHNK5WSUG,001,2025-08-16_11h49.24.932,continuous_performance_test,2024.2.4,Win32,59.88023952,70bab9e1-13ab-42e2-90e4-dce9dd3b1826,5,300.2512,301.9989,space,1,0,12,12,0,1,A,space,0.4287,,,,,,,,,,,
,,,,,R_9S6oNUcHNK5WSUG,001,2025-08-16_11h49.24.932,continuous_performance_test,2024.2.4,Win32,59.88023952,70bab9e1-13ab-42e2-90e4-dce9dd3b1826,5,302,303.7984,space,0,0,13,13,29,1,X,,0.3351,,,,,,,,,,,
,,,,,R_9S6oNUcHNK5WSUG,001,2025-08-16_11h49.24.932,continuous_performance_test,2024.2.4,Win32,59.88023952,70bab9e1-13ab-42e2-90e4-dce9dd3b1826,5,303.7999,305.7474,space,1,0,14,14,18,1,S,space,0.4847,,,,,,,,,,,
,,,,,R_9S6oNUcHNK5WSUG,001,2025-08-16_11h49.24.932,continuous_performance_test,2024.2.4,Win32,59.88023952,70bab9e1-13ab-42e2-90e4-dce9dd3b1826,5,305.7486,307.7471,space,1,0,15,15,11,1,L,space,0.4232,,,,,,,,,,,
,,,,,R_9S6oNUcHNK5WSUG,001,2025-08-16_11h49.24.932,continuous_performance_test,2024.2.4,Win32,59.88023952,70bab9e1-13ab-42e2-90e4-dce9dd3b1826,5,307.7484,309.6962,,0,0,16,16,21,1,V,space,,,,,,,,,,,,
,,,,,R_9S6oNUcHNK5WSUG,001,2025-08-16_11h49.24.932,continuous_performance_test,2024.2.4,Win32,59.88023952,70bab9e1-13ab-42e2-90e4-dce9dd3b1826,5,309.6974,311.4953,space,1,0,17,17,1,1,B,space,0.4645,,,,,,,,,,,
,,,,,R_9S6oNUcHNK5WSUG,001,2025-08-16_11h49.24.932,continuous_performance_test,2024.2.4,Win32,59.88023952,70bab9e1-13ab-42e2-90e4-dce9dd3b1826,5,311.4971,313.3449,,1,0,18,18,25,1,X,,,,,,,,,,,,,
,,,,,R_9S6oNUcHNK5WSUG,001,2025-08-16_11h49.24.932,continuous_performance_test,2024.2.4,Win32,59.88023952,70bab9e1-13ab-42e2-90e4-dce9dd3b1826,5,313.3463,315.0942,space,1,0,19,19,2,1,C,space,0.3754,,,,,,,,,,,
,,,,,R_9S6oNUcHNK5WSUG,001,2025-08-16_11h49.24.932,continuous_performance_test,2024.2.4,Win32,59.88023952,70bab9e1-13ab-42e2-90e4-dce9dd3b1826,5,315.0955,316.7939,space,1,0,20,20,7,1,H,space,0.3595,,,,,,,,,,,
,,,,,R_9S6oNUcHNK5WSUG,001,2025-08-16_11h49.24.932,continuous_performance_test,2024.2.4,Win32,59.88023952,70bab9e1-13ab-42e2-90e4-dce9dd3b1826,5,316.7952,318.5932,space,1,0,21,21,24,1,Z,space,0.6007,,,,,,,,,,,
,,,,,R_9S6oNUcHNK5WSUG,001,2025-08-16_11h49.24.932,continuous_performance_test,2024.2.4,Win32,59.88023952,70bab9e1-13ab-42e2-90e4-dce9dd3b1826,5,318.5948,320.1926,space,1,0,22,22,3,1,D,space,0.3814,,,,,,,,,,,
,,,,,R_9S6oNUcHNK5WSUG,001,2025-08-16_11h49.24.932,continuous_performance_test,2024.2.4,Win32,59.88023952,70bab9e1-13ab-42e2-90e4-dce9dd3b1826,5,320.1939,322.1456,space,1,0,23,23,9,1,J,space,0.4011,,,,,,,,,,,
,,,,,R_9S6oNUcHNK5WSUG,001,2025-08-16_11h49.24.932,continuous_performance_test,2024.2.4,Win32,59.88023952,70bab9e1-13ab-42e2-90e4-dce9dd3b1826,5,322.1465,324.0416,space,1,0,24,24,6,1,G,space,0.3862,,,,,,,,,,,
,,,,,R_9S6oNUcHNK5WSUG,001,2025-08-16_11h49.24.932,continuous_performance_test,2024.2.4,Win32,59.88023952,70bab9e1-13ab-42e2-90e4-dce9dd3b1826,5,324.0427,325.9408,,0,0,25,25,19,1,T,space,,,,,,,,,,,,
,,,,,R_9S6oNUcHNK5WSUG,001,2025-08-16_11h49.24.932,continuous_performance_test,2024.2.4,Win32,59.88023952,70bab9e1-13ab-42e2-90e4-dce9dd3b1826,5,325.9423,327.6404,,0,0,26,26,8,1,I,space,,,,,,,,,,,,
,,,,,R_9S6oNUcHNK5WSUG,001,2025-08-16_11h49.24.932,continuous_performance_test,2024.2.4,Win32,59.88023952,70bab9e1-13ab-42e2-90e4-dce9dd3b1826,5,327.6417,329.3397,,1,0,27,27,28,1,X,,,,,,,,,,,,,
,,,,,R_9S6oNUcHNK5WSUG,001,2025-08-16_11h49.24.932,continuous_performance_test,2024.2.4,Win32,59.88023952,70bab9e1-13ab-42e2-90e4-dce9dd3b1826,5,329.3411,331.2889,space,1,0,28,28,4,1,E,space,0.5953,,,,,,,,,,,
,,,,,R_9S6oNUcHNK5WSUG,001,2025-08-16_11h49.24.932,continuous_performance_test,2024.2.4,Win32,59.88023952,70bab9e1-13ab-42e2-90e4-dce9dd3b1826,5,331.2901,332.9888,space,1,0,29,29,20,1,U,space,0.5628,,,,,,,,,,,
,,,,,R_9S6oNUcHNK5WSUG,001,2025-08-16_11h49.24.932,continuous_performance_test,2024.2.4,Win32,59.88023952,70bab9e1-13ab-42e2-90e4-dce9dd3b1826,5,347.3039,349.0994,space,1,0,0,0,11,1,L,space,0.4752,,332.9897,347.3,space,14.2785,,,,,,
,,,,,R_9S6oNUcHNK5WSUG,001,2025-08-16_11h49.24.932,continuous_performance_test,2024.2.4,Win32,59.88023952,70bab9e1-13ab-42e2-90e4-dce9dd3b1826,5,349.1009,350.749,space,0,0,1,1,25,1,X,,0.3199,,,,,,,,,,,
,,,,,R_9S6oNUcHNK5WSUG,001,2025-08-16_11h49.24.932,continuous_performance_test,2024.2.4,Win32,59.88023952,70bab9e1-13ab-42e2-90e4-dce9dd3b1826,5,350.7506,352.3484,space,1,0,2,2,8,1,I,space,0.4287,,,,,,,,,,,
,,,,,R_9S6oNUcHNK5WSUG,001,2025-08-16_11h49.24.932,continuous_performance_test,2024.2.4,Win32,59.88023952,70bab9e1-13ab-42e2-90e4-dce9dd3b1826,5,352.3496,354.0478,space,1,0,3,3,19,1,T,space,0.4349,,,,,,,,,,,
,,,,,R_9S6oNUcHNK5WSUG,001,2025-08-16_11h49.24.932,continuous_performance_test,2024.2.4,Win32,59.88023952,70bab9e1-13ab-42e2-90e4-dce9dd3b1826,5,354.0493,355.7974,space,1,0,4,4,9,1,J,space,0.4369,,,,,,,,,,,
,,,,,R_9S6oNUcHNK5WSUG,001,2025-08-16_11h49.24.932,continuous_performance_test,2024.2.4,Win32,59.88023952,70bab9e1-13ab-42e2-90e4-dce9dd3b1826,5,355.7986,357.5465,space,1,0,5,5,1,1,B,space,0.501,,,,,,,,,,,
,,,,,R_9S6oNUcHNK5WSUG,001,2025-08-16_11h49.24.932,continuous_performance_test,2024.2.4,Win32,59.88023952,70bab9e1-13ab-42e2-90e4-dce9dd3b1826,5,357.5481,359.3958,space,1,0,6,6,5,1,F,space,0.608,,,,,,,,,,,
,,,,,R_9S6oNUcHNK5WSUG,001,2025-08-16_11h49.24.932,continuous_performance_test,2024.2.4,Win32,59.88023952,70bab9e1-13ab-42e2-90e4-dce9dd3b1826,5,359.3972,361.3457,space,1,0,7,7,18,1,S,space,0.9283,,,,,,,,,,,
,,,,,R_9S6oNUcHNK5WSUG,001,2025-08-16_11h49.24.932,continuous_performance_test,2024.2.4,Win32,59.88023952,70bab9e1-13ab-42e2-90e4-dce9dd3b1826,5,361.3466,363.0446,,0,0,8,8,10,1,K,space,,,,,,,,,,,,
,,,,,R_9S6oNUcHNK5WSUG,001,2025-08-16_11h49.24.932,continuous_performance_test,2024.2.4,Win32,59.88023952,70bab9e1-13ab-42e2-90e4-dce9dd3b1826,5,363.0458,364.9953,space,1,0,9,9,14,1,O,space,0.0095,,,,,,,,,,,
,,,,,R_9S6oNUcHNK5WSUG,001,2025-08-16_11h49.24.932,continuous_performance_test,2024.2.4,Win32,59.88023952,70bab9e1-13ab-42e2-90e4-dce9dd3b1826,5,364.9963,366.6939,,0,0,10,10,15,1,P,space,,,,,,,,,,,,
,,,,,R_9S6oNUcHNK5WSUG,001,2025-08-16_11h49.24.932,continuous_performance_test,2024.2.4,Win32,59.88023952,70bab9e1-13ab-42e2-90e4-dce9dd3b1826,5,366.695,368.5929,,1,0,11,11,27,1,X,,,,,,,,,,,,,
,,,,,R_9S6oNUcHNK5WSUG,001,2025-08-16_11h49.24.932,continuous_performance_test,2024.2.4,Win32,59.88023952,70bab9e1-13ab-42e2-90e4-dce9dd3b1826,5,368.5941,370.2423,space,1,0,12,12,3,1,D,space,0.4504,,,,,,,,,,,
,,,,,R_9S6oNUcHNK5WSUG,001,2025-08-16_11h49.24.932,continuous_performance_test,2024.2.4,Win32,59.88023952,70bab9e1-13ab-42e2-90e4-dce9dd3b1826,5,370.2436,371.9415,space,1,0,13,13,0,1,A,space,0.5274,,,,,,,,,,,
,,,,,R_9S6oNUcHNK5WSUG,001,2025-08-16_11h49.24.932,continuous_performance_test,2024.2.4,Win32,59.88023952,70bab9e1-13ab-42e2-90e4-dce9dd3b1826,5,371.9431,373.4918,space,1,0,14,14,7,1,H,space,0.5572,,,,,,,,,,,
,,,,,R_9S6oNUcHNK5WSUG,001,2025-08-16_11h49.24.932,continuous_performance_test,2024.2.4,Win32,59.88023952,70bab9e1-13ab-42e2-90e4-dce9dd3b1826,5,373.4928,375.3407,space,1,0,15,15,24,1,Z,space,0.7374,,,,,,,,,,,
,,,,,R_9S6oNUcHNK5WSUG,001,2025-08-16_11h49.24.932,continuous_performance_test,2024.2.4,Win32,59.88023952,70bab9e1-13ab-42e2-90e4-dce9dd3b1826,5,375.3422,376.8903,space,1,0,16,16,23,1,Y,space,0.4479,,,,,,,,,,,
,,,,,R_9S6oNUcHNK5WSUG,001,2025-08-16_11h49.24.932,continuous_performance_test,2024.2.4,Win32,59.88023952,70bab9e1-13ab-42e2-90e4-dce9dd3b1826,5,376.8916,378.6394,space,1,0,17,17,6,1,G,space,0.6091,,,,,,,,,,,
,,,,,R_9S6oNUcHNK5WSUG,001,2025-08-16_11h49.24.932,continuous_performance_test,2024.2.4,Win32,59.88023952,70bab9e1-13ab-42e2-90e4-dce9dd3b1826,5,378.6409,380.3887,,0,0,18,18,2,1,C,space,,,,,,,,,,,,
,,,,,R_9S6oNUcHNK5WSUG,001,2025-08-16_11h49.24.932,continuous_performance_test,2024.2.4,Win32,59.88023952,70bab9e1-13ab-42e2-90e4-dce9dd3b1826,5,380.39,381.9398,space,1,0,19,19,20,1,U,space,0.3627,,,,,,,,,,,
,,,,,R_9S6oNUcHNK5WSUG,001,2025-08-16_11h49.24.932,continuous_performance_test,2024.2.4,Win32,59.88023952,70bab9e1-13ab-42e2-90e4-dce9dd3b1826,5,381.9408,383.8382,space,1,0,20,20,22,1,W,space,0.3729,,,,,,,,,,,
,,,,,R_9S6oNUcHNK5WSUG,001,2025-08-16_11h49.24.932,continuous_performance_test,2024.2.4,Win32,59.88023952,70bab9e1-13ab-42e2-90e4-dce9dd3b1826,5,383.8389,385.7872,space,1,0,21,21,12,1,M,space,0.4213,,,,,,,,,,,
,,,,,R_9S6oNUcHNK5WSUG,001,2025-08-16_11h49.24.932,continuous_performance_test,2024.2.4,Win32,59.88023952,70bab9e1-13ab-42e2-90e4-dce9dd3b1826,5,385.7883,387.7864,,1,0,22,22,28,1,X,,,,,,,,,,,,,
,,,,,R_9S6oNUcHNK5WSUG,001,2025-08-16_11h49.24.932,continuous_performance_test,2024.2.4,Win32,59.88023952,70bab9e1-13ab-42e2-90e4-dce9dd3b1826,5,387.7877,389.3356,space,1,0,23,23,13,1,N,space,0.3827,,,,,,,,,,,
,,,,,R_9S6oNUcHNK5WSUG,001,2025-08-16_11h49.24.932,continuous_performance_test,2024.2.4,Win32,59.88023952,70bab9e1-13ab-42e2-90e4-dce9dd3b1826,5,389.337,391.0853,,1,0,24,24,26,1,X,,,,,,,,,,,,,
,,,,,R_9S6oNUcHNK5WSUG,001,2025-08-16_11h49.24.932,continuous_performance_test,2024.2.4,Win32,59.88023952,70bab9e1-13ab-42e2-90e4-dce9dd3b1826,5,391.0864,392.7345,space,1,0,25,25,16,1,Q,space,0.407,,,,,,,,,,,
,,,,,R_9S6oNUcHNK5WSUG,001,2025-08-16_11h49.24.932,continuous_performance_test,2024.2.4,Win32,59.88023952,70bab9e1-13ab-42e2-90e4-dce9dd3b1826,5,392.7359,394.5339,space,1,0,26,26,4,1,E,space,0.5518,,,,,,,,,,,
,,,,,R_9S6oNUcHNK5WSUG,001,2025-08-16_11h49.24.932,continuous_performance_test,2024.2.4,Win32,59.88023952,70bab9e1-13ab-42e2-90e4-dce9dd3b1826,5,394.5353,396.0837,space,0,0,27,27,29,1,X,,0.4284,,,,,,,,,,,
,,,,,R_9S6oNUcHNK5WSUG,001,2025-08-16_11h49.24.932,continuous_performance_test,2024.2.4,Win32,59.88023952,70bab9e1-13ab-42e2-90e4-dce9dd3b1826,5,396.0851,397.6828,space,1,0,28,28,17,1,R,space,0.4478,,,,,,,,,,,
,,,,,R_9S6oNUcHNK5WSUG,001,2025-08-16_11h49.24.932,continuous_performance_test,2024.2.4,Win32,59.88023952,70bab9e1-13ab-42e2-90e4-dce9dd3b1826,5,397.6841,399.4823,,0,0,29,29,21,1,V,space,,,,,,,,,,,,
,,,,,R_9S6oNUcHNK5WSUG,001,2025-08-16_11h49.24.932,continuous_performance_test,2024.2.4,Win32,59.88023952,70bab9e1-13ab-42e2-90e4-dce9dd3b1826,5,399.5693,401.1652,,0,0,0,0,23,1,Y,space,,,399.4836,399.5657,space,0.0504,,,,,,
,,,,,R_9S6oNUcHNK5WSUG,001,2025-08-16_11h49.24.932,continuous_performance_test,2024.2.4,Win32,59.88023952,70bab9e1-13ab-42e2-90e4-dce9dd3b1826,5,401.1662,402.815,,1,0,1,1,26,1,X,,,,,,,,,,,,,
,,,,,R_9S6oNUcHNK5WSUG,001,2025-08-16_11h49.24.932,continuous_performance_test,2024.2.4,Win32,59.88023952,70bab9e1-13ab-42e2-90e4-dce9dd3b1826,5,402.8159,404.664,space,1,0,2,2,3,1,D,space,0.3844,,,,,,,,,,,
,,,,,R_9S6oNUcHNK5WSUG,001,2025-08-16_11h49.24.932,continuous_performance_test,2024.2.4,Win32,59.88023952,70bab9e1-13ab-42e2-90e4-dce9dd3b1826,5,404.6652,406.6635,,1,0,3,3,25,1,X,,,,,,,,,,,,,
,,,,,R_9S6oNUcHNK5WSUG,001,2025-08-16_11h49.24.932,continuous_performance_test,2024.2.4,Win32,59.88023952,70bab9e1-13ab-42e2-90e4-dce9dd3b1826,5,406.6648,408.6628,,1,0,4,4,28,1,X,,,,,,,,,,,,,
,,,,,R_9S6oNUcHNK5WSUG,001,2025-08-16_11h49.24.932,continuous_performance_test,2024.2.4,Win32,59.88023952,70bab9e1-13ab-42e2-90e4-dce9dd3b1826,5,408.664,410.6619,space,1,0,5,5,10,1,K,space,0.4514,,,,,,,,,,,
,,,,,R_9S6oNUcHNK5WSUG,001,2025-08-16_11h49.24.932,continuous_performance_test,2024.2.4,Win32,59.88023952,70bab9e1-13ab-42e2-90e4-dce9dd3b1826,5,410.6631,412.3114,space,1,0,6,6,22,1,W,space,0.5254,,,,,,,,,,,
,,,,,R_9S6oNUcHNK5WSUG,001,2025-08-16_11h49.24.932,continuous_performance_test,2024.2.4,Win32,59.88023952,70bab9e1-13ab-42e2-90e4-dce9dd3b1826,5,412.313,414.3109,space,1,0,7,7,17,1,R,space,0.4221,,,,,,,,,,,
,,,,,R_9S6oNUcHNK5WSUG,001,2025-08-16_11h49.24.932,continuous_performance_test,2024.2.4,Win32,59.88023952,70bab9e1-13ab-42e2-90e4-dce9dd3b1826,5,414.3122,415.8603,space,0,0,8,8,29,1,X,,0.3841,,,,,,,,,,,
,,,,,R_9S6oNUcHNK5WSUG,001,2025-08-16_11h49.24.932,continuous_performance_test,2024.2.4,Win32,59.88023952,70bab9e1-13ab-42e2-90e4-dce9dd3b1826,5,415.8614,417.4597,space,1,0,9,9,13,1,N,space,0.3507,,,,,,,,,,,
,,,,,R_9S6oNUcHNK5WSUG,001,2025-08-16_11h49.24.932,continuous_performance_test,2024.2.4,Win32,59.88023952,70bab9e1-13ab-42e2-90e4-dce9dd3b1826,5,417.4612,419.4589,space,1,0,10,10,24,1,Z,space,0.629,,,,,,,,,,,
,,,,,R_9S6oNUcHNK5WSUG,001,2025-08-16_11h49.24.932,continuous_performance_test,2024.2.4,Win32,59.88023952,70bab9e1-13ab-42e2-90e4-dce9dd3b1826,5,419.4602,421.0588,space,1,0,11,11,9,1,J,space,0.5239,,,,,,,,,,,
,,,,,R_9S6oNUcHNK5WSUG,001,2025-08-16_11h49.24.932,continuous_performance_test,2024.2.4,Win32,59.88023952,70bab9e1-13ab-42e2-90e4-dce9dd3b1826,5,421.0604,422.8604,space,1,0,12,12,12,1,M,space,0.5014,,,,,,,,,,,
,,,,,R_9S6oNUcHNK5WSUG,001,2025-08-16_11h49.24.932,continuous_performance_test,2024.2.4,Win32,59.88023952,70bab9e1-13ab-42e2-90e4-dce9dd3b1826,5,422.8613,424.6578,space,0,0,13,13,27,1,X,,0.6091,,,,,,,,,,,
,,,,,R_9S6oNUcHNK5WSUG,001,2025-08-16_11h49.24.932,continuous_performance_test,2024.2.4,Win32,59.88023952,70bab9e1-13ab-42e2-90e4-dce9dd3b1826,5,424.6589,426.5568,,0,0,14,14,19,1,T,space,,,,,,,,,,,,
,,,,,R_9S6oNUcHNK5WSUG,001,2025-08-16_11h49.24.932,continuous_performance_test,2024.2.4,Win32,59.88023952,70bab9e1-13ab-42e2-90e4-dce9dd3b1826,5,426.5583,428.2561,space,1,0,15,15,7,1,H,space,0.504,,,,,,,,,,,
,,,,,R_9S6oNUcHNK5WSUG,001,2025-08-16_11h49.24.932,continuous_performance_test,2024.2.4,Win32,59.88023952,70bab9e1-13ab-42e2-90e4-dce9dd3b1826,5,428.2575,429.8555,space,1,0,16,16,20,1,U,space,0.3734,,,,,,,,,,,
,,,,,R_9S6oNUcHNK5WSUG,001,2025-08-16_11h49.24.932,continuous_performance_test,2024.2.4,Win32,59.88023952,70bab9e1-13ab-42e2-90e4-dce9dd3b1826,5,429.8567,431.7549,,0,0,17,17,14,1,O,space,,,,,,,,,,,,
,,,,,R_9S6oNUcHNK5WSUG,001,2025-08-16_11h49.24.932,continuous_performance_test,2024.2.4,Win32,59.88023952,70bab9e1-13ab-42e2-90e4-dce9dd3b1826,5,431.7561,433.5542,space,1,0,18,18,2,1,C,space,0.4974,,,,,,,,,,,
,,,,,R_9S6oNUcHNK5WSUG,001,2025-08-16_11h49.24.932,continuous_performance_test,2024.2.4,Win32,59.88023952,70bab9e1-13ab-42e2-90e4-dce9dd3b1826,5,433.5553,435.2037,space,1,0,19,19,21,1,V,space,0.5338,,,,,,,,,,,
,,,,,R_9S6oNUcHNK5WSUG,001,2025-08-16_11h49.24.932,continuous_performance_test,2024.2.4,Win32,59.88023952,70bab9e1-13ab-42e2-90e4-dce9dd3b1826,5,435.205,436.9557,space,1,0,20,20,4,1,E,space,0.6748,,,,,,,,,,,
,,,,,R_9S6oNUcHNK5WSUG,001,2025-08-16_11h49.24.932,continuous_performance_test,2024.2.4,Win32,59.88023952,70bab9e1-13ab-42e2-90e4-dce9dd3b1826,5,436.9567,438.753,space,1,0,21,21,0,1,A,space,0.3931,,,,,,,,,,,
,,,,,R_9S6oNUcHNK5WSUG,001,2025-08-16_11h49.24.932,continuous_performance_test,2024.2.4,Win32,59.88023952,70bab9e1-13ab-42e2-90e4-dce9dd3b1826,5,438.754,440.3017,space,1,0,22,22,16,1,Q,space,0.4678,,,,,,,,,,,
,,,,,R_9S6oNUcHNK5WSUG,001,2025-08-16_11h49.24.932,continuous_performance_test,2024.2.4,Win32,59.88023952,70bab9e1-13ab-42e2-90e4-dce9dd3b1826,5,440.303,441.9511,,0,0,23,23,11,1,L,space,,,,,,,,,,,,
,,,,,R_9S6oNUcHNK5WSUG,001,2025-08-16_11h49.24.932,continuous_performance_test,2024.2.4,Win32,59.88023952,70bab9e1-13ab-42e2-90e4-dce9dd3b1826,5,441.9524,443.601,space,1,0,24,24,18,1,S,space,0.4508,,,,,,,,,,,
,,,,,R_9S6oNUcHNK5WSUG,001,2025-08-16_11h49.24.932,continuous_performance_test,2024.2.4,Win32,59.88023952,70bab9e1-13ab-42e2-90e4-dce9dd3b1826,5,443.6022,445.5,space,1,0,25,25,6,1,G,space,0.3435,,,,,,,,,,,
,,,,,R_9S6oNUcHNK5WSUG,001,2025-08-16_11h49.24.932,continuous_performance_test,2024.2.4,Win32,59.88023952,70bab9e1-13ab-42e2-90e4-dce9dd3b1826,5,445.5014,447.4493,space,1,0,26,26,1,1,B,space,0.5598,,,,,,,,,,,
,,,,,R_9S6oNUcHNK5WSUG,001,2025-08-16_11h49.24.932,continuous_performance_test,2024.2.4,Win32,59.88023952,70bab9e1-13ab-42e2-90e4-dce9dd3b1826,5,447.4506,449.1496,space,1,0,27,27,15,1,P,space,0.6224,,,,,,,,,,,
,,,,,R_9S6oNUcHNK5WSUG,001,2025-08-16_11h49.24.932,continuous_performance_test,2024.2.4,Win32,59.88023952,70bab9e1-13ab-42e2-90e4-dce9dd3b1826,5,449.1505,450.9983,space,1,0,28,28,5,1,F,space,0.5334,,,,,,,,,,,
,,,,,R_9S6oNUcHNK5WSUG,001,2025-08-16_11h49.24.932,continuous_performance_test,2024.2.4,Win32,59.88023952,70bab9e1-13ab-42e2-90e4-dce9dd3b1826,5,450.9997,452.9475,,0,0,29,29,8,1,I,space,,,,,,,,,,,,
,,,,,R_9S6oNUcHNK5WSUG,001,2025-08-16_11h49.24.932,continuous_performance_test,2024.2.4,Win32,59.88023952,70bab9e1-13ab-42e2-90e4-dce9dd3b1826,5,467.9464,469.8918,,0,0,0,0,17,1,R,space,,,452.9486,467.9428,,,,,,,,
,,,,,R_9S6oNUcHNK5WSUG,001,2025-08-16_11h49.24.932,continuous_performance_test,2024.2.4,Win32,59.88023952,70bab9e1-13ab-42e2-90e4-dce9dd3b1826,5,469.8932,471.7415,space,1,0,1,1,20,1,U,space,0.4288,,,,,,,,,,,
,,,,,R_9S6oNUcHNK5WSUG,001,2025-08-16_11h49.24.932,continuous_performance_test,2024.2.4,Win32,59.88023952,70bab9e1-13ab-42e2-90e4-dce9dd3b1826,5,471.743,473.4906,space,1,0,2,2,23,1,Y,space,0.3375,,,,,,,,,,,
,,,,,R_9S6oNUcHNK5WSUG,001,2025-08-16_11h49.24.932,continuous_performance_test,2024.2.4,Win32,59.88023952,70bab9e1-13ab-42e2-90e4-dce9dd3b1826,5,473.4919,475.1404,space,1,0,3,3,2,1,C,space,0.3247,,,,,,,,,,,
,,,,,R_9S6oNUcHNK5WSUG,001,2025-08-16_11h49.24.932,continuous_performance_test,2024.2.4,Win32,59.88023952,70bab9e1-13ab-42e2-90e4-dce9dd3b1826,5,475.1418,476.8893,space,1,0,4,4,5,1,F,space,0.3521,,,,,,,,,,,
,,,,,R_9S6oNUcHNK5WSUG,001,2025-08-16_11h49.24.932,continuous_performance_test,2024.2.4,Win32,59.88023952,70bab9e1-13ab-42e2-90e4-dce9dd3b1826,5,476.891,478.7397,space,1,0,5,5,15,1,P,space,0.3101,,,,,,,,,,,
,,,,,R_9S6oNUcHNK5WSUG,001,2025-08-16_11h49.24.932,continuous_performance_test,2024.2.4,Win32,59.88023952,70bab9e1-13ab-42e2-90e4-dce9dd3b1826,5,478.7411,480.6881,space,1,0,6,6,4,1,E,space,0.2715,,,,,,,,,,,
,,,,,R_9S6oNUcHNK5WSUG,001,2025-08-16_11h49.24.932,continuous_performance_test,2024.2.4,Win32,59.88023952,70bab9e1-13ab-42e2-90e4-dce9dd3b1826,5,480.6897,482.2883,space,1,0,7,7,24,1,Z,space,0.3273,,,,,,,,,,,
,,,,,R_9S6oNUcHNK5WSUG,001,2025-08-16_11h49.24.932,continuous_performance_test,2024.2.4,Win32,59.88023952,70bab9e1-13ab-42e2-90e4-dce9dd3b1826,5,482.2892,483.9873,space,1,0,8,8,11,1,L,space,0.3677,,,,,,,,,,,
,,,,,R_9S6oNUcHNK5WSUG,001,2025-08-16_11h49.24.932,continuous_performance_test,2024.2.4,Win32,59.88023952,70bab9e1-13ab-42e2-90e4-dce9dd3b1826,5,483.9882,485.7868,space,1,0,9,9,0,1,A,space,0.2711,,,,,,,,,,,
,,,,,R_9S6oNUcHNK5WSUG,001,2025-08-16_11h49.24.932,continuous_performance_test,2024.2.4,Win32,59.88023952,70bab9e1-13ab-42e2-90e4-dce9dd3b1826,5,485.7879,487.736,space,1,0,10,10,18,1,S,space,0.3015,,,,,,,,,,,
,,,,,R_9S6oNUcHNK5WSUG,001,2025-08-16_11h49.24.932,continuous_performance_test,2024.2.4,Win32,59.88023952,70bab9e1-13ab-42e2-90e4-dce9dd3b1826,5,487.7371,489.3854,space,1,0,11,11,8,1,I,space,0.3263,,,,,,,,,,,
,,,,,R_9S6oNUcHNK5WSUG,001,2025-08-16_11h49.24.932,continuous_performance_test,2024.2.4,Win32,59.88023952,70bab9e1-13ab-42e2-90e4-dce9dd3b1826,5,489.3866,491.0351,space,1,0,12,12,9,1,J,space,0.3036,,,,,,,,,,,
,,,,,R_9S6oNUcHNK5WSUG,001,2025-08-16_11h49.24.932,continuous_performance_test,2024.2.4,Win32,59.88023952,70bab9e1-13ab-42e2-90e4-dce9dd3b1826,5,491.036,492.6344,space,1,0,13,13,19,1,T,space,0.3022,,,,,,,,,,,
,,,,,R_9S6oNUcHNK5WSUG,001,2025-08-16_11h49.24.932,continuous_performance_test,2024.2.4,Win32,59.88023952,70bab9e1-13ab-42e2-90e4-dce9dd3b1826,5,492.6356,494.4337,space,0,0,14,14,25,1,X,,0.2616,,,,,,,,,,,
,,,,,R_9S6oNUcHNK5WSUG,001,2025-08-16_11h49.24.932,continuous_performance_test,2024.2.4,Win32,59.88023952,70bab9e1-13ab-42e2-90e4-dce9dd3b1826,5,494.4348,496.2833,space,0,0,15,15,28,1,X,,0.3335,,,,,,,,,,,
,,,,,R_9S6oNUcHNK5WSUG,001,2025-08-16_11h49.24.932,continuous_performance_test,2024.2.4,Win32,59.88023952,70bab9e1-13ab-42e2-90e4-dce9dd3b1826,5,496.2844,498.2326,space,1,0,16,16,16,1,Q,space,0.4502,,,,,,,,,,,
,,,,,R_9S6oNUcHNK5WSUG,001,2025-08-16_11h49.24.932,continuous_performance_test,2024.2.4,Win32,59.88023952,70bab9e1-13ab-42e2-90e4-dce9dd3b1826,5,498.2335,499.9831,space,1,0,17,17,14,1,O,space,0.4458,,,,,,,,,,,
,,,,,R_9S6oNUcHNK5WSUG,001,2025-08-16_11h49.24.932,continuous_performance_test,2024.2.4,Win32,59.88023952,70bab9e1-13ab-42e2-90e4-dce9dd3b1826,5,499.9838,501.6315,,1,0,18,18,26,1,X,,,,,,,,,,,,,
,,,,,R_9S6oNUcHNK5WSUG,001,2025-08-16_11h49.24.932,continuous_performance_test,2024.2.4,Win32,59.88023952,70bab9e1-13ab-42e2-90e4-dce9dd3b1826,5,501.6331,503.2308,space,1,0,19,19,1,1,B,space,0.3177,,,,,,,,,,,
,,,,,R_9S6oNUcHNK5WSUG,001,2025-08-16_11h49.24.932,continuous_performance_test,2024.2.4,Win32,59.88023952,70bab9e1-13ab-42e2-90e4-dce9dd3b1826,5,503.2317,505.1799,space,1,0,20,20,12,1,M,space,0.352,,,,,,,,,,,
,,,,,R_9S6oNUcHNK5WSUG,001,2025-08-16_11h49.24.932,continuous_performance_test,2024.2.4,Win32,59.88023952,70bab9e1-13ab-42e2-90e4-dce9dd3b1826,5,505.1814,506.9329,space,1,0,21,21,13,1,N,space,0.3185,,,,,,,,,,,
,,,,,R_9S6oNUcHNK5WSUG,001,2025-08-16_11h49.24.932,continuous_performance_test,2024.2.4,Win32,59.88023952,70bab9e1-13ab-42e2-90e4-dce9dd3b1826,5,506.9337,508.929,space,1,0,22,22,6,1,G,space,0.6561,,,,,,,,,,,
,,,,,R_9S6oNUcHNK5WSUG,001,2025-08-16_11h49.24.932,continuous_performance_test,2024.2.4,Win32,59.88023952,70bab9e1-13ab-42e2-90e4-dce9dd3b1826,5,508.93,510.4786,,1,0,23,23,29,1,X,,,,,,,,,,,,,
,,,,,R_9S6oNUcHNK5WSUG,001,2025-08-16_11h49.24.932,continuous_performance_test,2024.2.4,Win32,59.88023952,70bab9e1-13ab-42e2-90e4-dce9dd3b1826,5,510.4795,512.4773,space,1,0,24,24,3,1,D,space,0.335,,,,,,,,,,,
,,,,,R_9S6oNUcHNK5WSUG,001,2025-08-16_11h49.24.932,continuous_performance_test,2024.2.4,Win32,59.88023952,70bab9e1-13ab-42e2-90e4-dce9dd3b1826,5,512.4785,514.4771,space,1,0,25,25,10,1,K,space,0.3117,,,,,,,,,,,
,,,,,R_9S6oNUcHNK5WSUG,001,2025-08-16_11h49.24.932,continuous_performance_test,2024.2.4,Win32,59.88023952,70bab9e1-13ab-42e2-90e4-dce9dd3b1826,5,514.4782,516.4759,space,0,0,26,26,27,1,X,,0.3699,,,,,,,,,,,
,,,,,R_9S6oNUcHNK5WSUG,001,2025-08-16_11h49.24.932,continuous_performance_test,2024.2.4,Win32,59.88023952,70bab9e1-13ab-42e2-90e4-dce9dd3b1826,5,516.4771,518.0255,space,1,0,27,27,7,1,H,space,0.6846,,,,,,,,,,,
,,,,,R_9S6oNUcHNK5WSUG,001,2025-08-16_11h49.24.932,continuous_performance_test,2024.2.4,Win32,59.88023952,70bab9e1-13ab-42e2-90e4-dce9dd3b1826,5,518.0268,519.9251,space,1,0,28,28,22,1,W,space,0.3678,,,,,,,,,,,
,,,,,R_9S6oNUcHNK5WSUG,001,2025-08-16_11h49.24.932,continuous_performance_test,2024.2.4,Win32,59.88023952,70bab9e1-13ab-42e2-90e4-dce9dd3b1826,5,519.9261,521.7242,space,1,0,29,29,21,1,V,space,0.2737,,,,,,,,,,,
,,,,,R_9S6oNUcHNK5WSUG,001,2025-08-16_11h49.24.932,continuous_performance_test,2024.2.4,Win32,59.88023952,70bab9e1-13ab-42e2-90e4-dce9dd3b1826,5,529.1921,530.8876,space,0,0,0,0,29,1,X,,0.3408,,521.7254,529.1889,space,7.4437,,,,,,
,,,,,R_9S6oNUcHNK5WSUG,001,2025-08-16_11h49.24.932,continuous_performance_test,2024.2.4,Win32,59.88023952,70bab9e1-13ab-42e2-90e4-dce9dd3b1826,5,530.8887,532.4381,,1,0,1,1,26,1,X,,,,,,,,,,,,,
,,,,,R_9S6oNUcHNK5WSUG,001,2025-08-16_11h49.24.932,continuous_performance_test,2024.2.4,Win32,59.88023952,70bab9e1-13ab-42e2-90e4-dce9dd3b1826,5,532.4391,534.1404,space,1,0,2,2,3,1,D,space,0.3642,,,,,,,,,,,
,,,,,R_9S6oNUcHNK5WSUG,001,2025-08-16_11h49.24.932,continuous_performance_test,2024.2.4,Win32,59.88023952,70bab9e1-13ab-42e2-90e4-dce9dd3b1826,5,534.1413,536.1388,space,1,0,3,3,24,1,Z,space,0.3911,,,,,,,,,,,
,,,,,R_9S6oNUcHNK5WSUG,001,2025-08-16_11h49.24.932,continuous_performance_test,2024.2.4,Win32,59.88023952,70bab9e1-13ab-42e2-90e4-dce9dd3b1826,5,536.1397,537.9354,space,1,0,4,4,14,1,O,space,0.3885,,,,,,,,,,,
,,,,,R_9S6oNUcHNK5WSUG,001,2025-08-16_11h49.24.932,continuous_performance_test,2024.2.4,Win32,59.88023952,70bab9e1-13ab-42e2-90e4-dce9dd3b1826,5,537.9369,539.6846,space,1,0,5,5,15,1,P,space,0.3811,,,,,,,,,,,
,,,,,R_9S6oNUcHNK5WSUG,001,2025-08-16_11h49.24.932,continuous_performance_test,2024.2.4,Win32,59.88023952,70bab9e1-13ab-42e2-90e4-dce9dd3b1826,5,539.686,541.4341,space,1,0,6,6,19,1,T,space,0.3618,,,,,,,,,,,
,,,,,R_9S6oNUcHNK5WSUG,001,2025-08-16_11h49.24.932,continuous_performance_test,2024.2.4,Win32,59.88023952,70bab9e1-13ab-42e2-90e4-dce9dd3b1826,5,541.4355,543.2372,space,1,0,7,7,8,1,I,space,0.4591,,,,,,,,,,,
,,,,,R_9S6oNUcHNK5WSUG,001,2025-08-16_11h49.24.932,continuous_performance_test,2024.2.4,Win32,59.88023952,70bab9e1-13ab-42e2-90e4-dce9dd3b1826,5,543.2383,545.0836,space,1,0,8,8,1,1,B,space,0.3641,,,,,,,,,,,
,,,,,R_9S6oNUcHNK5WSUG,001,2025-08-16_11h49.24.932,continuous_performance_test,2024.2.4,Win32,59.88023952,70bab9e1-13ab-42e2-90e4-dce9dd3b1826,5,545.0845,546.7826,space,0,0,9,9,25,1,X,,0.4335,,,,,,,,,,,
,,,,,R_9S6oNUcHNK5WSUG,001,2025-08-16_11h49.24.932,continuous_performance_test,2024.2.4,Win32,59.88023952,70bab9e1-13ab-42e2-90e4-dce9dd3b1826,5,546.7839,548.5321,space,1,0,10,10,21,1,V,space,0.6007,,,,,,,,,,,
,,,,,R_9S6oNUcHNK5WSUG,001,2025-08-16_11h49.24.932,continuous_performance_test,2024.2.4,Win32,59.88023952,70bab9e1-13ab-42e2-90e4-dce9dd3b1826,5,548.5331,550.2815,space,1,0,11,11,6,1,G,space,0.7834,,,,,,,,,,,
,,,,,R_9S6oNUcHNK5WSUG,001,2025-08-16_11h49.24.932,continuous_performance_test,2024.2.4,Win32,59.88023952,70bab9e1-13ab-42e2-90e4-dce9dd3b1826,5,550.2832,552.1809,space,1,0,12,12,10,1,K,space,0.4659,,,,,,,,,,,
,,,,,R_9S6oNUcHNK5WSUG,001,2025-08-16_11h49.24.932,continuous_performance_test,2024.2.4,Win32,59.88023952,70bab9e1-13ab-42e2-90e4-dce9dd3b1826,5,552.1819,553.9302,space,1,0,13,13,17,1,R,space,0.3916,,,,,,,,,,,
,,,,,R_9S6oNUcHNK5WSUG,001,2025-08-16_11h49.24.932,continuous_performance_test,2024.2.4,Win32,59.88023952,70bab9e1-13ab-42e2-90e4-dce9dd3b1826,5,553.9317,555.6796,space,1,0,14,14,4,1,E,space,0.3689,,,,,,,,,,,
,,,,,R_9S6oNUcHNK5WSUG,001,2025-08-16_11h49.24.932,continuous_performance_test,2024.2.4,Win32,59.88023952,70bab9e1-13ab-42e2-90e4-dce9dd3b1826,5,555.6808,557.4814,space,1,0,15,15,16,1,Q,space,0.5502,,,,,,,,,,,
,,,,,R_9S6oNUcHNK5WSUG,001,2025-08-16_11h49.24.932,continuous_performance_test,2024.2.4,Win32,59.88023952,70bab9e1-13ab-42e2-90e4-dce9dd3b1826,5,557.4822,559.0822,space,1,0,16,16,11,1,L,space,0.4786,,,,,,,,,,,
,,,,,R_9S6oNUcHNK5WSUG,001,2025-08-16_11h49.24.932,continuous_performance_test,2024.2.4,Win32,59.88023952,70bab9e1-13ab-42e2-90e4-dce9dd3b1826,5,559.0838,560.8776,space,1,0,17,17,22,1,W,space,0.3715,,,,,,,,,,,
,,,,,R_9S6oNUcHNK5WSUG,001,2025-08-16_11h49.24.932,continuous_performance_test,2024.2.4,Win32,59.88023952,70bab9e1-13ab-42e2-90e4-dce9dd3b1826,5,560.8788,562.6773,space,1,0,18,18,20,1,U,space,0.3863,,,,,,,,,,,
,,,,,R_9S6oNUcHNK5WSUG,001,2025-08-16_11h49.24.932,continuous_performance_test,2024.2.4,Win32,59.88023952,70bab9e1-13ab-42e2-90e4-dce9dd3b1826,5,562.6784,564.6268,space,1,0,19,19,7,1,H,space,0.5347,,,,,,,,,,,
,,,,,R_9S6oNUcHNK5WSUG,001,2025-08-16_11h49.24.932,continuous_performance_test,2024.2.4,Win32,59.88023952,70bab9e1-13ab-42e2-90e4-dce9dd3b1826,5,564.6279,566.3763,space,1,0,20,20,9,1,J,space,0.551,,,,,,,,,,,
,,,,,R_9S6oNUcHNK5WSUG,001,2025-08-16_11h49.24.932,continuous_performance_test,2024.2.4,Win32,59.88023952,70bab9e1-13ab-42e2-90e4-dce9dd3b1826,5,566.3774,568.1267,space,1,0,21,21,13,1,N,space,0.4277,,,,,,,,,,,
,,,,,R_9S6oNUcHNK5WSUG,001,2025-08-16_11h49.24.932,continuous_performance_test,2024.2.4,Win32,59.88023952,70bab9e1-13ab-42e2-90e4-dce9dd3b1826,5,568.1276,569.7262,space,1,0,22,22,12,1,M,space,0.6207,,,,,,,,,,,
,,,,,R_9S6oNUcHNK5WSUG,001,2025-08-16_11h49.24.932,continuous_performance_test,2024.2.4,Win32,59.88023952,70bab9e1-13ab-42e2-90e4-dce9dd3b1826,5,569.7272,571.6244,,0,0,23,23,23,1,Y,space,,,,,,,,,,,,
,,,,,R_9S6oNUcHNK5WSUG,001,2025-08-16_11h49.24.932,continuous_performance_test,2024.2.4,Win32,59.88023952,70bab9e1-13ab-42e2-90e4-dce9dd3b1826,5,571.6253,573.4232,space,1,0,24,24,5,1,F,space,0.4669,,,,,,,,,,,
,,,,,R_9S6oNUcHNK5WSUG,001,2025-08-16_11h49.24.932,continuous_performance_test,2024.2.4,Win32,59.88023952,70bab9e1-13ab-42e2-90e4-dce9dd3b1826,5,573.4245,574.9728,,1,0,25,25,28,1,X,,,,,,,,,,,,,
,,,,,R_9S6oNUcHNK5WSUG,001,2025-08-16_11h49.24.932,continuous_performance_test,2024.2.4,Win32,59.88023952,70bab9e1-13ab-42e2-90e4-dce9dd3b1826,5,574.9741,576.9225,space,1,0,26,26,2,1,C,space,0.5676,,,,,,,,,,,
,,,,,R_9S6oNUcHNK5WSUG,001,2025-08-16_11h49.24.932,continuous_performance_test,2024.2.4,Win32,59.88023952,70bab9e1-13ab-42e2-90e4-dce9dd3b1826,5,576.9239,578.622,,0,0,27,27,0,1,A,space,,,,,,,,,,,,
,,,,,R_9S6oNUcHNK5WSUG,001,2025-08-16_11h49.24.932,continuous_performance_test,2024.2.4,Win32,59.88023952,70bab9e1-13ab-42e2-90e4-dce9dd3b1826,5,578.623,580.1713,space,0,0,28,28,27,1,X,,0.4175,,,,,,,,,,,
,,,,,R_9S6oNUcHNK5WSUG,001,2025-08-16_11h49.24.932,continuous_performance_test,2024.2.4,Win32,59.88023952,70bab9e1-13ab-42e2-90e4-dce9dd3b1826,5,580.1725,581.8205,space,1,0,29,29,18,1,S,space,0.3999,,,,,,,,,,,
,,,,,R_9S6oNUcHNK5WSUG,001,2025-08-16_11h49.24.932,continuous_performance_test,2024.2.4,Win32,59.88023952,70bab9e1-13ab-42e2-90e4-dce9dd3b1826,5,588.8351,590.6845,space,1,0,0,0,18,1,S,space,0.3676,,581.8222,588.8183,space,6.9717,,,,,,
,,,,,R_9S6oNUcHNK5WSUG,001,2025-08-16_11h49.24.932,continuous_performance_test,2024.2.4,Win32,59.88023952,70bab9e1-13ab-42e2-90e4-dce9dd3b1826,5,590.6855,592.534,,1,0,1,1,27,1,X,,,,,,,,,,,,,
,,,,,R_9S6oNUcHNK5WSUG,001,2025-08-16_11h49.24.932,continuous_performance_test,2024.2.4,Win32,59.88023952,70bab9e1-13ab-42e2-90e4-dce9dd3b1826,5,592.5349,594.4332,space,1,0,2,2,23,1,Y,space,0.4526,,,,,,,,,,,
,,,,,R_9S6oNUcHNK5WSUG,001,2025-08-16_11h49.24.932,continuous_performance_test,2024.2.4,Win32,59.88023952,70bab9e1-13ab-42e2-90e4-dce9dd3b1826,5,594.4344,596.3825,space,1,0,3,3,15,1,P,space,0.4627,,,,,,,,,,,
,,,,,R_9S6oNUcHNK5WSUG,001,2025-08-16_11h49.24.932,continuous_performance_test,2024.2.4,Win32,59.88023952,70bab9e1-13ab-42e2-90e4-dce9dd3b1826,5,596.3835,598.0354,space,1,0,4,4,10,1,K,space,0.3681,,,,,,,,,,,
,,,,,R_9S6oNUcHNK5WSUG,001,2025-08-16_11h49.24.932,continuous_performance_test,2024.2.4,Win32,59.88023952,70bab9e1-13ab-42e2-90e4-dce9dd3b1826,5,598.0365,599.8311,space,1,0,5,5,19,1,T,space,0.4458,,,,,,,,,,,
,,,,,R_9S6oNUcHNK5WSUG,001,2025-08-16_11h49.24.932,continuous_performance_test,2024.2.4,Win32,59.88023952,70bab9e1-13ab-42e2-90e4-dce9dd3b1826,5,599.8322,601.6306,space,0,0,6,6,28,1,X,,0.8179,,,,,,,,,,,
,,,,,R_9S6oNUcHNK5WSUG,001,2025-08-16_11h49.24.932,continuous_performance_test,2024.2.4,Win32,59.88023952,70bab9e1-13ab-42e2-90e4-dce9dd3b1826,5,601.6316,603.3327,,0,0,7,7,5,1,F,space,,,,,,,,,,,,
,,,,,R_9S6oNUcHNK5WSUG,001,2025-08-16_11h49.24.932,continuous_performance_test,2024.2.4,Win32,59.88023952,70bab9e1-13ab-42e2-90e4-dce9dd3b1826,5,603.3337,604.9793,space,1,0,8,8,12,1,M,space,0.7722,,,,,,,,,,,
,,,,,R_9S6oNUcHNK5WSUG,001,2025-08-16_11h49.24.932,continuous_performance_test,2024.2.4,Win32,59.88023952,70bab9e1-13ab-42e2-90e4-dce9dd3b1826,5,604.9806,606.9825,space,1,0,9,9,24,1,Z,space,0.394,,,,,,,,,,,
,,,,,R_9S6oNUcHNK5WSUG,001,2025-08-16_11h49.24.932,continuous_performance_test,2024.2.4,Win32,59.88023952,70bab9e1-13ab-42e2-90e4-dce9dd3b1826,5,606.9832,608.8284,space,1,0,10,10,17,1,R,space,0.472,,,,,,,,,,,
,,,,,R_9S6oNUcHNK5WSUG,001,2025-08-16_11h49.24.932,continuous_performance_test,2024.2.4,Win32,59.88023952,70bab9e1-13ab-42e2-90e4-dce9dd3b1826,5,608.8293,610.6774,space,1,0,11,11,7,1,H,space,0.4569,,,,,,,,,,,
,,,,,R_9S6oNUcHNK5WSUG,001,2025-08-16_11h49.24.932,continuous_performance_test,2024.2.4,Win32,59.88023952,70bab9e1-13ab-42e2-90e4-dce9dd3b1826,5,610.679,612.4271,space,1,0,12,12,13,1,N,space,0.6326,,,,,,,,,,,
,,,,,R_9S6oNUcHNK5WSUG,001,2025-08-16_11h49.24.932,continuous_performance_test,2024.2.4,Win32,59.88023952,70bab9e1-13ab-42e2-90e4-dce9dd3b1826,5,612.4282,614.2265,space,1,0,13,13,20,1,U,space,0.5677,,,,,,,,,,,
,,,,,R_9S6oNUcHNK5WSUG,001,2025-08-16_11h49.24.932,continuous_performance_test,2024.2.4,Win32,59.88023952,70bab9e1-13ab-42e2-90e4-dce9dd3b1826,5,614.2277,615.976,space,1,0,14,14,21,1,V,space,0.4347,,,,,,,,,,,
,,,,,R_9S6oNUcHNK5WSUG,001,2025-08-16_11h49.24.932,continuous_performance_test,2024.2.4,Win32,59.88023952,70bab9e1-13ab-42e2-90e4-dce9dd3b1826,5,615.9769,617.6255,space,1,0,15,15,8,1,I,space,0.4021,,,,,,,,,,,
,,,,,R_9S6oNUcHNK5WSUG,001,2025-08-16_11h49.24.932,continuous_performance_test,2024.2.4,Win32,59.88023952,70bab9e1-13ab-42e2-90e4-dce9dd3b1826,5,617.6265,619.3247,space,1,0,16,16,3,1,D,space,0.3931,,,,,,,,,,,
,,,,,R_9S6oNUcHNK5WSUG,001,2025-08-16_11h49.24.932,continuous_performance_test,2024.2.4,Win32,59.88023952,70bab9e1-13ab-42e2-90e4-dce9dd3b1826,5,619.3258,620.9744,space,0,0,17,17,29,1,X,,0.6009,,,,,,,,,,,
,,,,,R_9S6oNUcHNK5WSUG,001,2025-08-16_11h49.24.932,continuous_performance_test,2024.2.4,Win32,59.88023952,70bab9e1-13ab-42e2-90e4-dce9dd3b1826,5,620.976,622.7733,space,1,0,18,18,14,1,O,space,0.4852,,,,,,,,,,,
,,,,,R_9S6oNUcHNK5WSUG,001,2025-08-16_11h49.24.932,continuous_performance_test,2024.2.4,Win32,59.88023952,70bab9e1-13ab-42e2-90e4-dce9dd3b1826,5,622.7745,624.7726,space,1,0,19,19,0,1,A,space,0.5708,,,,,,,,,,,
,,,,,R_9S6oNUcHNK5WSUG,001,2025-08-16_11h49.24.932,continuous_performance_test,2024.2.4,Win32,59.88023952,70bab9e1-13ab-42e2-90e4-dce9dd3b1826,5,624.7739,626.4221,,1,0,20,20,25,1,X,,,,,,,,,,,,,
,,,,,R_9S6oNUcHNK5WSUG,001,2025-08-16_11h49.24.932,continuous_performance_test,2024.2.4,Win32,59.88023952,70bab9e1-13ab-42e2-90e4-dce9dd3b1826,5,626.4232,628.1217,space,1,0,21,21,22,1,W,space,0.387,,,,,,,,,,,
,,,,,R_9S6oNUcHNK5WSUG,001,2025-08-16_11h49.24.932,continuous_performance_test,2024.2.4,Win32,59.88023952,70bab9e1-13ab-42e2-90e4-dce9dd3b1826,5,628.1229,630.0207,space,1,0,22,22,6,1,G,space,0.3205,,,,,,,,,,,
,,,,,R_9S6oNUcHNK5WSUG,001,2025-08-16_11h49.24.932,continuous_performance_test,2024.2.4,Win32,59.88023952,70bab9e1-13ab-42e2-90e4-dce9dd3b1826,5,630.0222,631.8736,space,0,0,23,23,26,1,X,,0.3896,,,,,,,,,,,
,,,,,R_9S6oNUcHNK5WSUG,001,2025-08-16_11h49.24.932,continuous_performance_test,2024.2.4,Win32,59.88023952,70bab9e1-13ab-42e2-90e4-dce9dd3b1826,5,631.8747,633.5196,space,1,0,24,24,16,1,Q,space,0.4261,,,,,,,,,,,
,,,,,R_9S6oNUcHNK5WSUG,001,2025-08-16_11h49.24.932,continuous_performance_test,2024.2.4,Win32,59.88023952,70bab9e1-13ab-42e2-90e4-dce9dd3b1826,5,633.5209,635.1695,space,1,0,25,25,4,1,E,space,0.417,,,,,,,,,,,
,,,,,R_9S6oNUcHNK5WSUG,001,2025-08-16_11h49.24.932,continuous_performance_test,2024.2.4,Win32,59.88023952,70bab9e1-13ab-42e2-90e4-dce9dd3b1826,5,635.1704,636.9686,space,1,0,26,26,11,1,L,space,0.4524,,,,,,,,,,,
,,,,,R_9S6oNUcHNK5WSUG,001,2025-08-16_11h49.24.932,continuous_performance_test,2024.2.4,Win32,59.88023952,70bab9e1-13ab-42e2-90e4-dce9dd3b1826,5,636.9697,638.6683,space,1,0,27,27,9,1,J,space,0.6864,,,,,,,,,,,
,,,,,R_9S6oNUcHNK5WSUG,001,2025-08-16_11h49.24.932,continuous_performance_test,2024.2.4,Win32,59.88023952,70bab9e1-13ab-42e2-90e4-dce9dd3b1826,5,638.6693,640.6673,,0,0,28,28,2,1,C,space,,,,,,,,,,,,
,,,,,R_9S6oNUcHNK5WSUG,001,2025-08-16_11h49.24.932,continuous_performance_test,2024.2.4,Win32,59.88023952,70bab9e1-13ab-42e2-90e4-dce9dd3b1826,5,640.6683,642.6166,space,1,0,29,29,1,1,B,space,0.418,,,,,,,,,,,
,,,,,R_9S6oNUcHNK5WSUG,001,2025-08-16_11h49.24.932,continuous_performance_test,2024.2.4,Win32,59.88023952,70bab9e1-13ab-42e2-90e4-dce9dd3b1826,5,,,,,,,,,,,,,,642.618,642.6185,,,,642.6188,649.7316,space,7.0895,
