Instructions.started,Instructions.stopped,key_resp.keys,key_resp.rt,key_resp.duration,participant,session,date,expName,psychopyVersion,OS,frameRate,realeye-tester-id,realeye-tester-quality_grade,Trial_noX.started,Trial_noX.stopped,response.keys,response.corr,response.rt,response.duration,trials_noX.thisRepN,trials_noX.thisTrialN,trials_noX.thisN,trials_noX.thisIndex,trials_noX.ran,letter,corrAns,BlockBreak.started,BlockBreak.stopped,key_instruct.keys,key_instruct.rt,key_instruct.duration,End_NoX.started,End_NoX.stopped,key_resp_end_noX.keys,key_resp_end_noX.rt,key_resp_end_noX.duration
0.0005,32.1416,space,32.1144,,R_9s6BccNDmt3Pyxj,001,2025-09-15_15h28.07.180,continuous_performance_test,2024.2.4,Win32,60.24096386,bb6bf4ed-550d-4ffe-a2e3-3f0065705018,2,,,,,,,,,,,,,,,,,,,,,,,
,,,,,R_9s6BccNDmt3Pyxj,001,2025-09-15_15h28.07.180,continuous_performance_test,2024.2.4,Win32,60.24096386,bb6bf4ed-550d-4ffe-a2e3-3f0065705018,2,32.1645,34.1057,space,1,0.2752,,0,0,0,10,1,K,space,,,,,,,,,,
,,,,,R_9s6BccNDmt3Pyxj,001,2025-09-15_15h28.07.180,continuous_performance_test,2024.2.4,Win32,60.24096386,bb6bf4ed-550d-4ffe-a2e3-3f0065705018,2,34.1116,35.8552,space,1,0.7615,,0,1,1,14,1,O,space,,,,,,,,,,
,,,,,R_9s6BccNDmt3Pyxj,001,2025-09-15_15h28.07.180,continuous_performance_test,2024.2.4,Win32,60.24096386,bb6bf4ed-550d-4ffe-a2e3-3f0065705018,2,35.8599,37.855,space,1,0.2308,,0,2,2,13,1,N,space,,,,,,,,,,
,,,,,R_9s6BccNDmt3Pyxj,001,2025-09-15_15h28.07.180,continuous_performance_test,2024.2.4,Win32,60.24096386,bb6bf4ed-550d-4ffe-a2e3-3f0065705018,2,37.8605,39.5553,space,1,0.2787,,0,3,3,22,1,W,space,,,,,,,,,,
,,,,,R_9s6BccNDmt3Pyxj,001,2025-09-15_15h28.07.180,continuous_performance_test,2024.2.4,Win32,60.24096386,bb6bf4ed-550d-4ffe-a2e3-3f0065705018,2,39.5612,41.1054,space,1,0.314,,0,4,4,6,1,G,space,,,,,,,,,,
,,,,,R_9s6BccNDmt3Pyxj,001,2025-09-15_15h28.07.180,continuous_performance_test,2024.2.4,Win32,60.24096386,bb6bf4ed-550d-4ffe-a2e3-3f0065705018,2,41.1108,42.8055,space,1,0.2166,,0,5,5,7,1,H,space,,,,,,,,,,
,,,,,R_9s6BccNDmt3Pyxj,001,2025-09-15_15h28.07.180,continuous_performance_test,2024.2.4,Win32,60.24096386,bb6bf4ed-550d-4ffe-a2e3-3f0065705018,2,42.8109,44.8063,space,0,0.2484,,0,6,6,28,1,X,,,,,,,,,,,
,,,,,R_9s6BccNDmt3Pyxj,001,2025-09-15_15h28.07.180,continuous_performance_test,2024.2.4,Win32,60.24096386,bb6bf4ed-550d-4ffe-a2e3-3f0065705018,2,44.8116,46.3564,space,1,0.6179,,0,7,7,19,1,T,space,,,,,,,,,,
,,,,,R_9s6BccNDmt3Pyxj,001,2025-09-15_15h28.07.180,continuous_performance_test,2024.2.4,Win32,60.24096386,bb6bf4ed-550d-4ffe-a2e3-3f0065705018,2,46.3615,48.1564,space,1,0.2979,,0,8,8,9,1,J,space,,,,,,,,,,
,,,,,R_9s6BccNDmt3Pyxj,001,2025-09-15_15h28.07.180,continuous_performance_test,2024.2.4,Win32,60.24096386,bb6bf4ed-550d-4ffe-a2e3-3f0065705018,2,48.1591,49.8565,space,1,0.2827,,0,9,9,2,1,C,space,,,,,,,,,,
,,,,,R_9s6BccNDmt3Pyxj,001,2025-09-15_15h28.07.180,continuous_performance_test,2024.2.4,Win32,60.24096386,bb6bf4ed-550d-4ffe-a2e3-3f0065705018,2,49.8595,51.8565,,1,,,0,10,10,25,1,X,,,,,,,,,,,
,,,,,R_9s6BccNDmt3Pyxj,001,2025-09-15_15h28.07.180,continuous_performance_test,2024.2.4,Win32,60.24096386,bb6bf4ed-550d-4ffe-a2e3-3f0065705018,2,51.8584,53.5059,space,0,0.4411,,0,11,11,27,1,X,,,,,,,,,,,
,,,,,R_9s6BccNDmt3Pyxj,001,2025-09-15_15h28.07.180,continuous_performance_test,2024.2.4,Win32,60.24096386,bb6bf4ed-550d-4ffe-a2e3-3f0065705018,2,53.5108,55.4063,space,1,0.6801,,0,12,12,23,1,Y,space,,,,,,,,,,
,,,,,R_9s6BccNDmt3Pyxj,001,2025-09-15_15h28.07.180,continuous_performance_test,2024.2.4,Win32,60.24096386,bb6bf4ed-550d-4ffe-a2e3-3f0065705018,2,55.4107,57.1566,space,1,0.2175,,0,13,13,20,1,U,space,,,,,,,,,,
,,,,,R_9s6BccNDmt3Pyxj,001,2025-09-15_15h28.07.180,continuous_performance_test,2024.2.4,Win32,60.24096386,bb6bf4ed-550d-4ffe-a2e3-3f0065705018,2,57.1606,58.7066,space,1,0.21,,0,14,14,5,1,F,space,,,,,,,,,,
,,,,,R_9s6BccNDmt3Pyxj,001,2025-09-15_15h28.07.180,continuous_performance_test,2024.2.4,Win32,60.24096386,bb6bf4ed-550d-4ffe-a2e3-3f0065705018,2,58.7098,60.4567,space,1,0.2268,,0,15,15,18,1,S,space,,,,,,,,,,
,,,,,R_9s6BccNDmt3Pyxj,001,2025-09-15_15h28.07.180,continuous_performance_test,2024.2.4,Win32,60.24096386,bb6bf4ed-550d-4ffe-a2e3-3f0065705018,2,60.4618,62.3066,,0,,,0,16,16,17,1,R,space,,,,,,,,,,
,,,,,R_9s6BccNDmt3Pyxj,001,2025-09-15_15h28.07.180,continuous_performance_test,2024.2.4,Win32,60.24096386,bb6bf4ed-550d-4ffe-a2e3-3f0065705018,2,62.3092,64.1571,,1,,,0,17,17,26,1,X,,,,,,,,,,,
,,,,,R_9s6BccNDmt3Pyxj,001,2025-09-15_15h28.07.180,continuous_performance_test,2024.2.4,Win32,60.24096386,bb6bf4ed-550d-4ffe-a2e3-3f0065705018,2,64.1612,65.807,space,1,0.3787,,0,18,18,24,1,Z,space,,,,,,,,,,
,,,,,R_9s6BccNDmt3Pyxj,001,2025-09-15_15h28.07.180,continuous_performance_test,2024.2.4,Win32,60.24096386,bb6bf4ed-550d-4ffe-a2e3-3f0065705018,2,65.8111,67.7067,space,1,0.2517,,0,19,19,15,1,P,space,,,,,,,,,,
,,,,,R_9s6BccNDmt3Pyxj,001,2025-09-15_15h28.07.180,continuous_performance_test,2024.2.4,Win32,60.24096386,bb6bf4ed-550d-4ffe-a2e3-3f0065705018,2,67.711,69.3569,space,1,0.2316,,0,20,20,4,1,E,space,,,,,,,,,,
,,,,,R_9s6BccNDmt3Pyxj,001,2025-09-15_15h28.07.180,continuous_performance_test,2024.2.4,Win32,60.24096386,bb6bf4ed-550d-4ffe-a2e3-3f0065705018,2,69.3607,71.3575,space,1,0.2979,,0,21,21,16,1,Q,space,,,,,,,,,,
,,,,,R_9s6BccNDmt3Pyxj,001,2025-09-15_15h28.07.180,continuous_performance_test,2024.2.4,Win32,60.24096386,bb6bf4ed-550d-4ffe-a2e3-3f0065705018,2,71.362,72.9573,space,1,0.1664,,0,22,22,3,1,D,space,,,,,,,,,,
,,,,,R_9s6BccNDmt3Pyxj,001,2025-09-15_15h28.07.180,continuous_performance_test,2024.2.4,Win32,60.24096386,bb6bf4ed-550d-4ffe-a2e3-3f0065705018,2,72.9598,74.6572,space,0,0.2489,,0,23,23,29,1,X,,,,,,,,,,,
,,,,,R_9s6BccNDmt3Pyxj,001,2025-09-15_15h28.07.180,continuous_performance_test,2024.2.4,Win32,60.24096386,bb6bf4ed-550d-4ffe-a2e3-3f0065705018,2,74.6618,76.5078,,0,,,0,24,24,0,1,A,space,,,,,,,,,,
,,,,,R_9s6BccNDmt3Pyxj,001,2025-09-15_15h28.07.180,continuous_performance_test,2024.2.4,Win32,60.24096386,bb6bf4ed-550d-4ffe-a2e3-3f0065705018,2,76.5123,78.1577,space,1,0.2139,,0,25,25,11,1,L,space,,,,,,,,,,
,,,,,R_9s6BccNDmt3Pyxj,001,2025-09-15_15h28.07.180,continuous_performance_test,2024.2.4,Win32,60.24096386,bb6bf4ed-550d-4ffe-a2e3-3f0065705018,2,78.1624,79.7575,,0,,,0,26,26,21,1,V,space,,,,,,,,,,
,,,,,R_9s6BccNDmt3Pyxj,001,2025-09-15_15h28.07.180,continuous_performance_test,2024.2.4,Win32,60.24096386,bb6bf4ed-550d-4ffe-a2e3-3f0065705018,2,79.7599,81.4086,space,1,0.1783,,0,27,27,12,1,M,space,,,,,,,,,,
,,,,,R_9s6BccNDmt3Pyxj,001,2025-09-15_15h28.07.180,continuous_performance_test,2024.2.4,Win32,60.24096386,bb6bf4ed-550d-4ffe-a2e3-3f0065705018,2,81.4133,83.1077,space,1,0.0469,,0,28,28,1,1,B,space,,,,,,,,,,
,,,,,R_9s6BccNDmt3Pyxj,001,2025-09-15_15h28.07.180,continuous_performance_test,2024.2.4,Win32,60.24096386,bb6bf4ed-550d-4ffe-a2e3-3f0065705018,2,83.112,84.8077,,0,,,0,29,29,8,1,I,space,,,,,,,,,,
,,,,,R_9s6BccNDmt3Pyxj,001,2025-09-15_15h28.07.180,continuous_performance_test,2024.2.4,Win32,60.24096386,bb6bf4ed-550d-4ffe-a2e3-3f0065705018,2,90.6432,92.3422,space,0,0.387,,0,0,0,26,1,X,,84.8088,90.626,space,5.7933,,,,,,
,,,,,R_9s6BccNDmt3Pyxj,001,2025-09-15_15h28.07.180,continuous_performance_test,2024.2.4,Win32,60.24096386,bb6bf4ed-550d-4ffe-a2e3-3f0065705018,2,92.3464,94.098,,0,,,0,1,1,12,1,M,space,,,,,,,,,,
,,,,,R_9s6BccNDmt3Pyxj,001,2025-09-15_15h28.07.180,continuous_performance_test,2024.2.4,Win32,60.24096386,bb6bf4ed-550d-4ffe-a2e3-3f0065705018,2,94.1003,95.6426,space,1,0.2578,,0,2,2,15,1,P,space,,,,,,,,,,
,,,,,R_9s6BccNDmt3Pyxj,001,2025-09-15_15h28.07.180,continuous_performance_test,2024.2.4,Win32,60.24096386,bb6bf4ed-550d-4ffe-a2e3-3f0065705018,2,95.6468,97.6424,,0,,,0,3,3,14,1,O,space,,,,,,,,,,
,,,,,R_9s6BccNDmt3Pyxj,001,2025-09-15_15h28.07.180,continuous_performance_test,2024.2.4,Win32,60.24096386,bb6bf4ed-550d-4ffe-a2e3-3f0065705018,2,97.6467,99.3429,space,1,0.1395,,0,4,4,4,1,E,space,,,,,,,,,,
,,,,,R_9s6BccNDmt3Pyxj,001,2025-09-15_15h28.07.180,continuous_performance_test,2024.2.4,Win32,60.24096386,bb6bf4ed-550d-4ffe-a2e3-3f0065705018,2,99.3469,101.3428,,1,,,0,5,5,27,1,X,,,,,,,,,,,
,,,,,R_9s6BccNDmt3Pyxj,001,2025-09-15_15h28.07.180,continuous_performance_test,2024.2.4,Win32,60.24096386,bb6bf4ed-550d-4ffe-a2e3-3f0065705018,2,101.3469,103.1464,space,1,0.2694,,0,6,6,10,1,K,space,,,,,,,,,,
,,,,,R_9s6BccNDmt3Pyxj,001,2025-09-15_15h28.07.180,continuous_performance_test,2024.2.4,Win32,60.24096386,bb6bf4ed-550d-4ffe-a2e3-3f0065705018,2,103.1486,104.9964,space,1,0.2944,,0,7,7,5,1,F,space,,,,,,,,,,
,,,,,R_9s6BccNDmt3Pyxj,001,2025-09-15_15h28.07.180,continuous_performance_test,2024.2.4,Win32,60.24096386,bb6bf4ed-550d-4ffe-a2e3-3f0065705018,2,104.9975,106.6929,space,1,0.2998,,0,8,8,9,1,J,space,,,,,,,,,,
,,,,,R_9s6BccNDmt3Pyxj,001,2025-09-15_15h28.07.180,continuous_performance_test,2024.2.4,Win32,60.24096386,bb6bf4ed-550d-4ffe-a2e3-3f0065705018,2,106.6974,108.6937,space,1,0.2179,,0,9,9,6,1,G,space,,,,,,,,,,
,,,,,R_9s6BccNDmt3Pyxj,001,2025-09-15_15h28.07.180,continuous_performance_test,2024.2.4,Win32,60.24096386,bb6bf4ed-550d-4ffe-a2e3-3f0065705018,2,108.698,110.6431,space,1,0.3004,,0,10,10,24,1,Z,space,,,,,,,,,,
,,,,,R_9s6BccNDmt3Pyxj,001,2025-09-15_15h28.07.180,continuous_performance_test,2024.2.4,Win32,60.24096386,bb6bf4ed-550d-4ffe-a2e3-3f0065705018,2,110.6473,112.5435,space,1,0.0148,,0,11,11,1,1,B,space,,,,,,,,,,
,,,,,R_9s6BccNDmt3Pyxj,001,2025-09-15_15h28.07.180,continuous_performance_test,2024.2.4,Win32,60.24096386,bb6bf4ed-550d-4ffe-a2e3-3f0065705018,2,112.5475,114.397,space,0,0.8066,,0,12,12,29,1,X,,,,,,,,,,,
,,,,,R_9s6BccNDmt3Pyxj,001,2025-09-15_15h28.07.180,continuous_performance_test,2024.2.4,Win32,60.24096386,bb6bf4ed-550d-4ffe-a2e3-3f0065705018,2,114.399,115.9434,,0,,,0,13,13,13,1,N,space,,,,,,,,,,
,,,,,R_9s6BccNDmt3Pyxj,001,2025-09-15_15h28.07.180,continuous_performance_test,2024.2.4,Win32,60.24096386,bb6bf4ed-550d-4ffe-a2e3-3f0065705018,2,115.9476,117.5436,space,0,0.3037,,0,14,14,25,1,X,,,,,,,,,,,
,,,,,R_9s6BccNDmt3Pyxj,001,2025-09-15_15h28.07.180,continuous_performance_test,2024.2.4,Win32,60.24096386,bb6bf4ed-550d-4ffe-a2e3-3f0065705018,2,117.5477,119.1937,,0,,,0,15,15,16,1,Q,space,,,,,,,,,,
,,,,,R_9s6BccNDmt3Pyxj,001,2025-09-15_15h28.07.180,continuous_performance_test,2024.2.4,Win32,60.24096386,bb6bf4ed-550d-4ffe-a2e3-3f0065705018,2,119.1978,121.1941,space,1,0.2353,,0,16,16,18,1,S,space,,,,,,,,,,
,,,,,R_9s6BccNDmt3Pyxj,001,2025-09-15_15h28.07.180,continuous_performance_test,2024.2.4,Win32,60.24096386,bb6bf4ed-550d-4ffe-a2e3-3f0065705018,2,121.1979,123.1442,,0,,,0,17,17,2,1,C,space,,,,,,,,,,
,,,,,R_9s6BccNDmt3Pyxj,001,2025-09-15_15h28.07.180,continuous_performance_test,2024.2.4,Win32,60.24096386,bb6bf4ed-550d-4ffe-a2e3-3f0065705018,2,123.148,124.7439,space,1,0.3003,,0,18,18,20,1,U,space,,,,,,,,,,
,,,,,R_9s6BccNDmt3Pyxj,001,2025-09-15_15h28.07.180,continuous_performance_test,2024.2.4,Win32,60.24096386,bb6bf4ed-550d-4ffe-a2e3-3f0065705018,2,124.7481,126.2943,,0,,,0,19,19,0,1,A,space,,,,,,,,,,
,,,,,R_9s6BccNDmt3Pyxj,001,2025-09-15_15h28.07.180,continuous_performance_test,2024.2.4,Win32,60.24096386,bb6bf4ed-550d-4ffe-a2e3-3f0065705018,2,126.2982,128.2444,space,1,0.2562,,0,20,20,23,1,Y,space,,,,,,,,,,
,,,,,R_9s6BccNDmt3Pyxj,001,2025-09-15_15h28.07.180,continuous_performance_test,2024.2.4,Win32,60.24096386,bb6bf4ed-550d-4ffe-a2e3-3f0065705018,2,128.2483,130.0445,space,1,0.3337,,0,21,21,3,1,D,space,,,,,,,,,,
,,,,,R_9s6BccNDmt3Pyxj,001,2025-09-15_15h28.07.180,continuous_performance_test,2024.2.4,Win32,60.24096386,bb6bf4ed-550d-4ffe-a2e3-3f0065705018,2,130.0484,131.7944,space,1,0.2942,,0,22,22,7,1,H,space,,,,,,,,,,
,,,,,R_9s6BccNDmt3Pyxj,001,2025-09-15_15h28.07.180,continuous_performance_test,2024.2.4,Win32,60.24096386,bb6bf4ed-550d-4ffe-a2e3-3f0065705018,2,131.7985,133.3444,space,1,0.2832,,0,23,23,19,1,T,space,,,,,,,,,,
,,,,,R_9s6BccNDmt3Pyxj,001,2025-09-15_15h28.07.180,continuous_performance_test,2024.2.4,Win32,60.24096386,bb6bf4ed-550d-4ffe-a2e3-3f0065705018,2,133.3486,134.9005,space,1,0.3049,,0,24,24,17,1,R,space,,,,,,,,,,
,,,,,R_9s6BccNDmt3Pyxj,001,2025-09-15_15h28.07.180,continuous_performance_test,2024.2.4,Win32,60.24096386,bb6bf4ed-550d-4ffe-a2e3-3f0065705018,2,134.9023,136.4443,space,1,0.5012,,0,25,25,21,1,V,space,,,,,,,,,,
,,,,,R_9s6BccNDmt3Pyxj,001,2025-09-15_15h28.07.180,continuous_performance_test,2024.2.4,Win32,60.24096386,bb6bf4ed-550d-4ffe-a2e3-3f0065705018,2,136.4485,138.4448,space,1,0.4145,,0,26,26,8,1,I,space,,,,,,,,,,
,,,,,R_9s6BccNDmt3Pyxj,001,2025-09-15_15h28.07.180,continuous_performance_test,2024.2.4,Win32,60.24096386,bb6bf4ed-550d-4ffe-a2e3-3f0065705018,2,138.4487,139.9953,space,1,0.3652,,0,27,27,11,1,L,space,,,,,,,,,,
,,,,,R_9s6BccNDmt3Pyxj,001,2025-09-15_15h28.07.180,continuous_performance_test,2024.2.4,Win32,60.24096386,bb6bf4ed-550d-4ffe-a2e3-3f0065705018,2,139.9994,141.5983,space,0,0.1971,,0,28,28,28,1,X,,,,,,,,,,,
,,,,,R_9s6BccNDmt3Pyxj,001,2025-09-15_15h28.07.180,continuous_performance_test,2024.2.4,Win32,60.24096386,bb6bf4ed-550d-4ffe-a2e3-3f0065705018,2,141.6005,143.3501,space,1,0.1935,,0,29,29,22,1,W,space,,,,,,,,,,
,,,,,R_9s6BccNDmt3Pyxj,001,2025-09-15_15h28.07.180,continuous_performance_test,2024.2.4,Win32,60.24096386,bb6bf4ed-550d-4ffe-a2e3-3f0065705018,2,145.5937,147.201,,0,,,0,0,0,9,1,J,space,143.352,145.5844,space,2.2169,,,,,,
,,,,,R_9s6BccNDmt3Pyxj,001,2025-09-15_15h28.07.180,continuous_performance_test,2024.2.4,Win32,60.24096386,bb6bf4ed-550d-4ffe-a2e3-3f0065705018,2,147.203,148.7454,space,1,0.5163,,0,1,1,0,1,A,space,,,,,,,,,,
,,,,,R_9s6BccNDmt3Pyxj,001,2025-09-15_15h28.07.180,continuous_performance_test,2024.2.4,Win32,60.24096386,bb6bf4ed-550d-4ffe-a2e3-3f0065705018,2,148.7495,150.5458,space,1,0.2682,,0,2,2,8,1,I,space,,,,,,,,,,
,,,,,R_9s6BccNDmt3Pyxj,001,2025-09-15_15h28.07.180,continuous_performance_test,2024.2.4,Win32,60.24096386,bb6bf4ed-550d-4ffe-a2e3-3f0065705018,2,150.5498,152.1455,,1,,,0,3,3,28,1,X,,,,,,,,,,,
,,,,,R_9s6BccNDmt3Pyxj,001,2025-09-15_15h28.07.180,continuous_performance_test,2024.2.4,Win32,60.24096386,bb6bf4ed-550d-4ffe-a2e3-3f0065705018,2,152.1497,153.7958,space,1,0.2507,,0,4,4,2,1,C,space,,,,,,,,,,
,,,,,R_9s6BccNDmt3Pyxj,001,2025-09-15_15h28.07.180,continuous_performance_test,2024.2.4,Win32,60.24096386,bb6bf4ed-550d-4ffe-a2e3-3f0065705018,2,153.7993,155.7458,,0,,,0,5,5,3,1,D,space,,,,,,,,,,
,,,,,R_9s6BccNDmt3Pyxj,001,2025-09-15_15h28.07.180,continuous_performance_test,2024.2.4,Win32,60.24096386,bb6bf4ed-550d-4ffe-a2e3-3f0065705018,2,155.7498,157.5955,space,1,0.2502,,0,6,6,18,1,S,space,,,,,,,,,,
,,,,,R_9s6BccNDmt3Pyxj,001,2025-09-15_15h28.07.180,continuous_performance_test,2024.2.4,Win32,60.24096386,bb6bf4ed-550d-4ffe-a2e3-3f0065705018,2,157.6001,159.5954,space,1,0.2848,,0,7,7,24,1,Z,space,,,,,,,,,,
,,,,,R_9s6BccNDmt3Pyxj,001,2025-09-15_15h28.07.180,continuous_performance_test,2024.2.4,Win32,60.24096386,bb6bf4ed-550d-4ffe-a2e3-3f0065705018,2,159.5993,161.346,space,1,0.3305,,0,8,8,10,1,K,space,,,,,,,,,,
,,,,,R_9s6BccNDmt3Pyxj,001,2025-09-15_15h28.07.180,continuous_performance_test,2024.2.4,Win32,60.24096386,bb6bf4ed-550d-4ffe-a2e3-3f0065705018,2,161.3502,162.9461,space,1,0.2856,,0,9,9,14,1,O,space,,,,,,,,,,
,,,,,R_9s6BccNDmt3Pyxj,001,2025-09-15_15h28.07.180,continuous_performance_test,2024.2.4,Win32,60.24096386,bb6bf4ed-550d-4ffe-a2e3-3f0065705018,2,162.95,164.7465,space,0,0.2972,,0,10,10,25,1,X,,,,,,,,,,,
,,,,,R_9s6BccNDmt3Pyxj,001,2025-09-15_15h28.07.180,continuous_performance_test,2024.2.4,Win32,60.24096386,bb6bf4ed-550d-4ffe-a2e3-3f0065705018,2,164.7492,166.346,space,0,0.3354,,0,11,11,29,1,X,,,,,,,,,,,
,,,,,R_9s6BccNDmt3Pyxj,001,2025-09-15_15h28.07.180,continuous_performance_test,2024.2.4,Win32,60.24096386,bb6bf4ed-550d-4ffe-a2e3-3f0065705018,2,166.3507,168.1961,space,1,0.4468,,0,12,12,11,1,L,space,,,,,,,,,,
,,,,,R_9s6BccNDmt3Pyxj,001,2025-09-15_15h28.07.180,continuous_performance_test,2024.2.4,Win32,60.24096386,bb6bf4ed-550d-4ffe-a2e3-3f0065705018,2,168.2002,169.7461,space,0,0.7357,,0,13,13,26,1,X,,,,,,,,,,,
,,,,,R_9s6BccNDmt3Pyxj,001,2025-09-15_15h28.07.180,continuous_performance_test,2024.2.4,Win32,60.24096386,bb6bf4ed-550d-4ffe-a2e3-3f0065705018,2,169.7499,171.4973,,0,,,0,14,14,13,1,N,space,,,,,,,,,,
,,,,,R_9s6BccNDmt3Pyxj,001,2025-09-15_15h28.07.180,continuous_performance_test,2024.2.4,Win32,60.24096386,bb6bf4ed-550d-4ffe-a2e3-3f0065705018,2,171.498,173.1468,,0,,,0,15,15,20,1,U,space,,,,,,,,,,
,,,,,R_9s6BccNDmt3Pyxj,001,2025-09-15_15h28.07.180,continuous_performance_test,2024.2.4,Win32,60.24096386,bb6bf4ed-550d-4ffe-a2e3-3f0065705018,2,173.1509,174.8462,space,1,0.3506,,0,16,16,16,1,Q,space,,,,,,,,,,
,,,,,R_9s6BccNDmt3Pyxj,001,2025-09-15_15h28.07.180,continuous_performance_test,2024.2.4,Win32,60.24096386,bb6bf4ed-550d-4ffe-a2e3-3f0065705018,2,174.8503,176.3986,space,1,0.6324,,0,17,17,23,1,Y,space,,,,,,,,,,
,,,,,R_9s6BccNDmt3Pyxj,001,2025-09-15_15h28.07.180,continuous_performance_test,2024.2.4,Win32,60.24096386,bb6bf4ed-550d-4ffe-a2e3-3f0065705018,2,176.4012,178.1966,space,1,0.4712,,0,18,18,6,1,G,space,,,,,,,,,,
,,,,,R_9s6BccNDmt3Pyxj,001,2025-09-15_15h28.07.180,continuous_performance_test,2024.2.4,Win32,60.24096386,bb6bf4ed-550d-4ffe-a2e3-3f0065705018,2,178.2015,180.0467,space,1,0.4864,,0,19,19,4,1,E,space,,,,,,,,,,
,,,,,R_9s6BccNDmt3Pyxj,001,2025-09-15_15h28.07.180,continuous_performance_test,2024.2.4,Win32,60.24096386,bb6bf4ed-550d-4ffe-a2e3-3f0065705018,2,180.0508,182.0469,space,1,0.2823,,0,20,20,17,1,R,space,,,,,,,,,,
,,,,,R_9s6BccNDmt3Pyxj,001,2025-09-15_15h28.07.180,continuous_performance_test,2024.2.4,Win32,60.24096386,bb6bf4ed-550d-4ffe-a2e3-3f0065705018,2,182.0505,183.9474,space,1,0.6179,,0,21,21,15,1,P,space,,,,,,,,,,
,,,,,R_9s6BccNDmt3Pyxj,001,2025-09-15_15h28.07.180,continuous_performance_test,2024.2.4,Win32,60.24096386,bb6bf4ed-550d-4ffe-a2e3-3f0065705018,2,183.9517,185.6973,space,1,0.601,,0,22,22,12,1,M,space,,,,,,,,,,
,,,,,R_9s6BccNDmt3Pyxj,001,2025-09-15_15h28.07.180,continuous_performance_test,2024.2.4,Win32,60.24096386,bb6bf4ed-550d-4ffe-a2e3-3f0065705018,2,185.703,187.5977,space,1,0.28,,0,23,23,7,1,H,space,,,,,,,,,,
,,,,,R_9s6BccNDmt3Pyxj,001,2025-09-15_15h28.07.180,continuous_performance_test,2024.2.4,Win32,60.24096386,bb6bf4ed-550d-4ffe-a2e3-3f0065705018,2,187.6023,189.2473,space,1,0.2653,,0,24,24,22,1,W,space,,,,,,,,,,
,,,,,R_9s6BccNDmt3Pyxj,001,2025-09-15_15h28.07.180,continuous_performance_test,2024.2.4,Win32,60.24096386,bb6bf4ed-550d-4ffe-a2e3-3f0065705018,2,189.2514,190.8976,space,1,0.4981,,0,25,25,19,1,T,space,,,,,,,,,,
,,,,,R_9s6BccNDmt3Pyxj,001,2025-09-15_15h28.07.180,continuous_performance_test,2024.2.4,Win32,60.24096386,bb6bf4ed-550d-4ffe-a2e3-3f0065705018,2,190.9013,192.6474,space,1,0.3814,,0,26,26,21,1,V,space,,,,,,,,,,
,,,,,R_9s6BccNDmt3Pyxj,001,2025-09-15_15h28.07.180,continuous_performance_test,2024.2.4,Win32,60.24096386,bb6bf4ed-550d-4ffe-a2e3-3f0065705018,2,192.652,194.3975,space,1,0.319,,0,27,27,5,1,F,space,,,,,,,,,,
,,,,,R_9s6BccNDmt3Pyxj,001,2025-09-15_15h28.07.180,continuous_performance_test,2024.2.4,Win32,60.24096386,bb6bf4ed-550d-4ffe-a2e3-3f0065705018,2,194.4023,196.0477,space,1,0.369,,0,28,28,1,1,B,space,,,,,,,,,,
,,,,,R_9s6BccNDmt3Pyxj,001,2025-09-15_15h28.07.180,continuous_performance_test,2024.2.4,Win32,60.24096386,bb6bf4ed-550d-4ffe-a2e3-3f0065705018,2,196.0519,197.8973,,1,,,0,29,29,27,1,X,,,,,,,,,,,
,,,,,R_9s6BccNDmt3Pyxj,001,2025-09-15_15h28.07.180,continuous_performance_test,2024.2.4,Win32,60.24096386,bb6bf4ed-550d-4ffe-a2e3-3f0065705018,2,199.3264,201.1143,space,1,0.5167,,0,0,0,16,1,Q,space,197.8998,199.3147,space,1.4024,,,,,,
,,,,,R_9s6BccNDmt3Pyxj,001,2025-09-15_15h28.07.180,continuous_performance_test,2024.2.4,Win32,60.24096386,bb6bf4ed-550d-4ffe-a2e3-3f0065705018,2,201.1185,202.9652,space,1,0.0358,,0,1,1,3,1,D,space,,,,,,,,,,
,,,,,R_9s6BccNDmt3Pyxj,001,2025-09-15_15h28.07.180,continuous_performance_test,2024.2.4,Win32,60.24096386,bb6bf4ed-550d-4ffe-a2e3-3f0065705018,2,202.9695,204.815,,0,,,0,2,2,18,1,S,space,,,,,,,,,,
,,,,,R_9s6BccNDmt3Pyxj,001,2025-09-15_15h28.07.180,continuous_performance_test,2024.2.4,Win32,60.24096386,bb6bf4ed-550d-4ffe-a2e3-3f0065705018,2,204.8195,206.365,space,1,0.0315,,0,3,3,8,1,I,space,,,,,,,,,,
,,,,,R_9s6BccNDmt3Pyxj,001,2025-09-15_15h28.07.180,continuous_performance_test,2024.2.4,Win32,60.24096386,bb6bf4ed-550d-4ffe-a2e3-3f0065705018,2,206.3692,208.0649,space,1,0.4331,,0,4,4,2,1,C,space,,,,,,,,,,
,,,,,R_9s6BccNDmt3Pyxj,001,2025-09-15_15h28.07.180,continuous_performance_test,2024.2.4,Win32,60.24096386,bb6bf4ed-550d-4ffe-a2e3-3f0065705018,2,208.0691,210.0649,space,1,0.2891,,0,5,5,11,1,L,space,,,,,,,,,,
,,,,,R_9s6BccNDmt3Pyxj,001,2025-09-15_15h28.07.180,continuous_performance_test,2024.2.4,Win32,60.24096386,bb6bf4ed-550d-4ffe-a2e3-3f0065705018,2,210.069,211.6652,space,1,0.3176,,0,6,6,1,1,B,space,,,,,,,,,,
,,,,,R_9s6BccNDmt3Pyxj,001,2025-09-15_15h28.07.180,continuous_performance_test,2024.2.4,Win32,60.24096386,bb6bf4ed-550d-4ffe-a2e3-3f0065705018,2,211.6695,213.3651,space,0,0.1151,,0,7,7,25,1,X,,,,,,,,,,,
,,,,,R_9s6BccNDmt3Pyxj,001,2025-09-15_15h28.07.180,continuous_performance_test,2024.2.4,Win32,60.24096386,bb6bf4ed-550d-4ffe-a2e3-3f0065705018,2,213.3693,215.0652,space,1,0.4804,,0,8,8,7,1,H,space,,,,,,,,,,
,,,,,R_9s6BccNDmt3Pyxj,001,2025-09-15_15h28.07.180,continuous_performance_test,2024.2.4,Win32,60.24096386,bb6bf4ed-550d-4ffe-a2e3-3f0065705018,2,215.0692,216.866,space,1,0.6237,,0,9,9,22,1,W,space,,,,,,,,,,
,,,,,R_9s6BccNDmt3Pyxj,001,2025-09-15_15h28.07.180,continuous_performance_test,2024.2.4,Win32,60.24096386,bb6bf4ed-550d-4ffe-a2e3-3f0065705018,2,216.8702,218.6163,,0,,,0,10,10,17,1,R,space,,,,,,,,,,
,,,,,R_9s6BccNDmt3Pyxj,001,2025-09-15_15h28.07.180,continuous_performance_test,2024.2.4,Win32,60.24096386,bb6bf4ed-550d-4ffe-a2e3-3f0065705018,2,218.6205,220.5161,,0,,,0,11,11,0,1,A,space,,,,,,,,,,
,,,,,R_9s6BccNDmt3Pyxj,001,2025-09-15_15h28.07.180,continuous_performance_test,2024.2.4,Win32,60.24096386,bb6bf4ed-550d-4ffe-a2e3-3f0065705018,2,220.5201,222.4655,space,1,0.7797,,0,12,12,6,1,G,space,,,,,,,,,,
,,,,,R_9s6BccNDmt3Pyxj,001,2025-09-15_15h28.07.180,continuous_performance_test,2024.2.4,Win32,60.24096386,bb6bf4ed-550d-4ffe-a2e3-3f0065705018,2,222.4686,224.3656,space,1,0.3326,,0,13,13,12,1,M,space,,,,,,,,,,
,,,,,R_9s6BccNDmt3Pyxj,001,2025-09-15_15h28.07.180,continuous_performance_test,2024.2.4,Win32,60.24096386,bb6bf4ed-550d-4ffe-a2e3-3f0065705018,2,224.3698,226.3659,,1,,,0,14,14,27,1,X,,,,,,,,,,,
,,,,,R_9s6BccNDmt3Pyxj,001,2025-09-15_15h28.07.180,continuous_performance_test,2024.2.4,Win32,60.24096386,bb6bf4ed-550d-4ffe-a2e3-3f0065705018,2,226.3704,228.3161,space,1,0.3801,,0,15,15,9,1,J,space,,,,,,,,,,
,,,,,R_9s6BccNDmt3Pyxj,001,2025-09-15_15h28.07.180,continuous_performance_test,2024.2.4,Win32,60.24096386,bb6bf4ed-550d-4ffe-a2e3-3f0065705018,2,228.3202,230.0661,space,1,0.6203,,0,16,16,15,1,P,space,,,,,,,,,,
,,,,,R_9s6BccNDmt3Pyxj,001,2025-09-15_15h28.07.180,continuous_performance_test,2024.2.4,Win32,60.24096386,bb6bf4ed-550d-4ffe-a2e3-3f0065705018,2,230.0702,232.0662,,1,,,0,17,17,26,1,X,,,,,,,,,,,
,,,,,R_9s6BccNDmt3Pyxj,001,2025-09-15_15h28.07.180,continuous_performance_test,2024.2.4,Win32,60.24096386,bb6bf4ed-550d-4ffe-a2e3-3f0065705018,2,232.0702,233.6163,space,1,0.334,,0,18,18,24,1,Z,space,,,,,,,,,,
,,,,,R_9s6BccNDmt3Pyxj,001,2025-09-15_15h28.07.180,continuous_performance_test,2024.2.4,Win32,60.24096386,bb6bf4ed-550d-4ffe-a2e3-3f0065705018,2,233.6197,235.6164,space,1,0.0846,,0,19,19,19,1,T,space,,,,,,,,,,
,,,,,R_9s6BccNDmt3Pyxj,001,2025-09-15_15h28.07.180,continuous_performance_test,2024.2.4,Win32,60.24096386,bb6bf4ed-550d-4ffe-a2e3-3f0065705018,2,235.6208,237.6164,,0,,,0,20,20,20,1,U,space,,,,,,,,,,
,,,,,R_9s6BccNDmt3Pyxj,001,2025-09-15_15h28.07.180,continuous_performance_test,2024.2.4,Win32,60.24096386,bb6bf4ed-550d-4ffe-a2e3-3f0065705018,2,237.62,239.6165,space,1,0.517,,0,21,21,14,1,O,space,,,,,,,,,,
,,,,,R_9s6BccNDmt3Pyxj,001,2025-09-15_15h28.07.180,continuous_performance_test,2024.2.4,Win32,60.24096386,bb6bf4ed-550d-4ffe-a2e3-3f0065705018,2,239.6192,241.3666,space,1,0.3478,,0,22,22,10,1,K,space,,,,,,,,,,
,,,,,R_9s6BccNDmt3Pyxj,001,2025-09-15_15h28.07.180,continuous_performance_test,2024.2.4,Win32,60.24096386,bb6bf4ed-550d-4ffe-a2e3-3f0065705018,2,241.3711,243.0672,space,1,0.3028,,0,23,23,5,1,F,space,,,,,,,,,,
,,,,,R_9s6BccNDmt3Pyxj,001,2025-09-15_15h28.07.180,continuous_performance_test,2024.2.4,Win32,60.24096386,bb6bf4ed-550d-4ffe-a2e3-3f0065705018,2,243.0714,244.6669,space,1,0.2653,,0,24,24,21,1,V,space,,,,,,,,,,
,,,,,R_9s6BccNDmt3Pyxj,001,2025-09-15_15h28.07.180,continuous_performance_test,2024.2.4,Win32,60.24096386,bb6bf4ed-550d-4ffe-a2e3-3f0065705018,2,244.6711,246.5677,space,1,0.8632,,0,25,25,23,1,Y,space,,,,,,,,,,
,,,,,R_9s6BccNDmt3Pyxj,001,2025-09-15_15h28.07.180,continuous_performance_test,2024.2.4,Win32,60.24096386,bb6bf4ed-550d-4ffe-a2e3-3f0065705018,2,246.5715,248.4177,space,0,0.281,,0,26,26,28,1,X,,,,,,,,,,,
,,,,,R_9s6BccNDmt3Pyxj,001,2025-09-15_15h28.07.180,continuous_performance_test,2024.2.4,Win32,60.24096386,bb6bf4ed-550d-4ffe-a2e3-3f0065705018,2,248.4223,250.0173,space,1,0.3647,,0,27,27,13,1,N,space,,,,,,,,,,
,,,,,R_9s6BccNDmt3Pyxj,001,2025-09-15_15h28.07.180,continuous_performance_test,2024.2.4,Win32,60.24096386,bb6bf4ed-550d-4ffe-a2e3-3f0065705018,2,250.0211,252.0177,space,0,0.3488,,0,28,28,29,1,X,,,,,,,,,,,
,,,,,R_9s6BccNDmt3Pyxj,001,2025-09-15_15h28.07.180,continuous_performance_test,2024.2.4,Win32,60.24096386,bb6bf4ed-550d-4ffe-a2e3-3f0065705018,2,252.0222,253.8671,space,1,0.4311,,0,29,29,4,1,E,space,,,,,,,,,,
,,,,,R_9s6BccNDmt3Pyxj,001,2025-09-15_15h28.07.180,continuous_performance_test,2024.2.4,Win32,60.24096386,bb6bf4ed-550d-4ffe-a2e3-3f0065705018,2,255.6135,257.3011,space,1,0.5811,,0,0,0,19,1,T,space,253.8699,255.6013,space,1.7205,,,,,,
,,,,,R_9s6BccNDmt3Pyxj,001,2025-09-15_15h28.07.180,continuous_performance_test,2024.2.4,Win32,60.24096386,bb6bf4ed-550d-4ffe-a2e3-3f0065705018,2,257.3054,258.9516,space,1,0.2971,,0,1,1,10,1,K,space,,,,,,,,,,
,,,,,R_9s6BccNDmt3Pyxj,001,2025-09-15_15h28.07.180,continuous_performance_test,2024.2.4,Win32,60.24096386,bb6bf4ed-550d-4ffe-a2e3-3f0065705018,2,258.9562,260.8017,space,0,0.0478,,0,2,2,27,1,X,,,,,,,,,,,
,,,,,R_9s6BccNDmt3Pyxj,001,2025-09-15_15h28.07.180,continuous_performance_test,2024.2.4,Win32,60.24096386,bb6bf4ed-550d-4ffe-a2e3-3f0065705018,2,260.8058,262.6018,space,1,0.366,,0,3,3,9,1,J,space,,,,,,,,,,
,,,,,R_9s6BccNDmt3Pyxj,001,2025-09-15_15h28.07.180,continuous_performance_test,2024.2.4,Win32,60.24096386,bb6bf4ed-550d-4ffe-a2e3-3f0065705018,2,262.6058,264.5014,space,1,0.4124,,0,4,4,24,1,Z,space,,,,,,,,,,
,,,,,R_9s6BccNDmt3Pyxj,001,2025-09-15_15h28.07.180,continuous_performance_test,2024.2.4,Win32,60.24096386,bb6bf4ed-550d-4ffe-a2e3-3f0065705018,2,264.5055,266.3515,space,0,0.3684,,0,5,5,29,1,X,,,,,,,,,,,
,,,,,R_9s6BccNDmt3Pyxj,001,2025-09-15_15h28.07.180,continuous_performance_test,2024.2.4,Win32,60.24096386,bb6bf4ed-550d-4ffe-a2e3-3f0065705018,2,266.3553,267.952,space,1,0.3316,,0,6,6,20,1,U,space,,,,,,,,,,
,,,,,R_9s6BccNDmt3Pyxj,001,2025-09-15_15h28.07.180,continuous_performance_test,2024.2.4,Win32,60.24096386,bb6bf4ed-550d-4ffe-a2e3-3f0065705018,2,267.9567,269.9023,,0,,,0,7,7,1,1,B,space,,,,,,,,,,
,,,,,R_9s6BccNDmt3Pyxj,001,2025-09-15_15h28.07.180,continuous_performance_test,2024.2.4,Win32,60.24096386,bb6bf4ed-550d-4ffe-a2e3-3f0065705018,2,269.9067,271.9018,space,1,0.8647,,0,8,8,5,1,F,space,,,,,,,,,,
,,,,,R_9s6BccNDmt3Pyxj,001,2025-09-15_15h28.07.180,continuous_performance_test,2024.2.4,Win32,60.24096386,bb6bf4ed-550d-4ffe-a2e3-3f0065705018,2,271.9057,273.7521,space,1,0.4615,,0,9,9,16,1,Q,space,,,,,,,,,,
,,,,,R_9s6BccNDmt3Pyxj,001,2025-09-15_15h28.07.180,continuous_performance_test,2024.2.4,Win32,60.24096386,bb6bf4ed-550d-4ffe-a2e3-3f0065705018,2,273.7562,275.5026,space,1,0.1701,,0,10,10,18,1,S,space,,,,,,,,,,
,,,,,R_9s6BccNDmt3Pyxj,001,2025-09-15_15h28.07.180,continuous_performance_test,2024.2.4,Win32,60.24096386,bb6bf4ed-550d-4ffe-a2e3-3f0065705018,2,275.5068,277.403,,0,,,0,11,11,13,1,N,space,,,,,,,,,,
,,,,,R_9s6BccNDmt3Pyxj,001,2025-09-15_15h28.07.180,continuous_performance_test,2024.2.4,Win32,60.24096386,bb6bf4ed-550d-4ffe-a2e3-3f0065705018,2,277.4074,279.2523,,1,,,0,12,12,28,1,X,,,,,,,,,,,
,,,,,R_9s6BccNDmt3Pyxj,001,2025-09-15_15h28.07.180,continuous_performance_test,2024.2.4,Win32,60.24096386,bb6bf4ed-550d-4ffe-a2e3-3f0065705018,2,279.2564,281.1524,space,1,0.7993,,0,13,13,7,1,H,space,,,,,,,,,,
,,,,,R_9s6BccNDmt3Pyxj,001,2025-09-15_15h28.07.180,continuous_performance_test,2024.2.4,Win32,60.24096386,bb6bf4ed-550d-4ffe-a2e3-3f0065705018,2,281.1568,282.7524,space,1,0.5818,,0,14,14,4,1,E,space,,,,,,,,,,
,,,,,R_9s6BccNDmt3Pyxj,001,2025-09-15_15h28.07.180,continuous_performance_test,2024.2.4,Win32,60.24096386,bb6bf4ed-550d-4ffe-a2e3-3f0065705018,2,282.7562,284.4525,space,1,0.6637,,0,15,15,8,1,I,space,,,,,,,,,,
,,,,,R_9s6BccNDmt3Pyxj,001,2025-09-15_15h28.07.180,continuous_performance_test,2024.2.4,Win32,60.24096386,bb6bf4ed-550d-4ffe-a2e3-3f0065705018,2,284.4568,286.3026,space,1,0.404,,0,16,16,12,1,M,space,,,,,,,,,,
,,,,,R_9s6BccNDmt3Pyxj,001,2025-09-15_15h28.07.180,continuous_performance_test,2024.2.4,Win32,60.24096386,bb6bf4ed-550d-4ffe-a2e3-3f0065705018,2,286.3072,288.1529,space,0,0.5816,,0,17,17,26,1,X,,,,,,,,,,,
,,,,,R_9s6BccNDmt3Pyxj,001,2025-09-15_15h28.07.180,continuous_performance_test,2024.2.4,Win32,60.24096386,bb6bf4ed-550d-4ffe-a2e3-3f0065705018,2,288.1572,290.1036,space,1,0.3968,,0,18,18,11,1,L,space,,,,,,,,,,
,,,,,R_9s6BccNDmt3Pyxj,001,2025-09-15_15h28.07.180,continuous_performance_test,2024.2.4,Win32,60.24096386,bb6bf4ed-550d-4ffe-a2e3-3f0065705018,2,290.1076,291.6529,,0,,,0,19,19,0,1,A,space,,,,,,,,,,
,,,,,R_9s6BccNDmt3Pyxj,001,2025-09-15_15h28.07.180,continuous_performance_test,2024.2.4,Win32,60.24096386,bb6bf4ed-550d-4ffe-a2e3-3f0065705018,2,291.6574,293.4028,space,1,0.5018,,0,20,20,21,1,V,space,,,,,,,,,,
,,,,,R_9s6BccNDmt3Pyxj,001,2025-09-15_15h28.07.180,continuous_performance_test,2024.2.4,Win32,60.24096386,bb6bf4ed-550d-4ffe-a2e3-3f0065705018,2,293.4075,295.0031,space,1,0.3464,,0,21,21,15,1,P,space,,,,,,,,,,
,,,,,R_9s6BccNDmt3Pyxj,001,2025-09-15_15h28.07.180,continuous_performance_test,2024.2.4,Win32,60.24096386,bb6bf4ed-550d-4ffe-a2e3-3f0065705018,2,295.0072,296.604,space,1,0.104,,0,22,22,2,1,C,space,,,,,,,,,,
,,,,,R_9s6BccNDmt3Pyxj,001,2025-09-15_15h28.07.180,continuous_performance_test,2024.2.4,Win32,60.24096386,bb6bf4ed-550d-4ffe-a2e3-3f0065705018,2,296.6086,298.1538,,0,,,0,23,23,3,1,D,space,,,,,,,,,,
,,,,,R_9s6BccNDmt3Pyxj,001,2025-09-15_15h28.07.180,continuous_performance_test,2024.2.4,Win32,60.24096386,bb6bf4ed-550d-4ffe-a2e3-3f0065705018,2,298.1574,300.1042,space,1,0.4143,,0,24,24,22,1,W,space,,,,,,,,,,
,,,,,R_9s6BccNDmt3Pyxj,001,2025-09-15_15h28.07.180,continuous_performance_test,2024.2.4,Win32,60.24096386,bb6bf4ed-550d-4ffe-a2e3-3f0065705018,2,300.1084,301.8038,space,1,0.0975,,0,25,25,23,1,Y,space,,,,,,,,,,
,,,,,R_9s6BccNDmt3Pyxj,001,2025-09-15_15h28.07.180,continuous_performance_test,2024.2.4,Win32,60.24096386,bb6bf4ed-550d-4ffe-a2e3-3f0065705018,2,301.8083,303.4535,space,1,0.8987,,0,26,26,6,1,G,space,,,,,,,,,,
,,,,,R_9s6BccNDmt3Pyxj,001,2025-09-15_15h28.07.180,continuous_performance_test,2024.2.4,Win32,60.24096386,bb6bf4ed-550d-4ffe-a2e3-3f0065705018,2,303.4574,305.3037,space,1,0.2976,,0,27,27,17,1,R,space,,,,,,,,,,
,,,,,R_9s6BccNDmt3Pyxj,001,2025-09-15_15h28.07.180,continuous_performance_test,2024.2.4,Win32,60.24096386,bb6bf4ed-550d-4ffe-a2e3-3f0065705018,2,305.3069,307.0544,space,1,0.1335,,0,28,28,14,1,O,space,,,,,,,,,,
,,,,,R_9s6BccNDmt3Pyxj,001,2025-09-15_15h28.07.180,continuous_performance_test,2024.2.4,Win32,60.24096386,bb6bf4ed-550d-4ffe-a2e3-3f0065705018,2,307.0587,309.054,,1,,,0,29,29,25,1,X,,,,,,,,,,,
,,,,,R_9s6BccNDmt3Pyxj,001,2025-09-15_15h28.07.180,continuous_performance_test,2024.2.4,Win32,60.24096386,bb6bf4ed-550d-4ffe-a2e3-3f0065705018,2,310.0806,311.9208,space,1,0.9221,,0,0,0,4,1,E,space,309.0572,310.0709,space,0.9935,,,,,,
,,,,,R_9s6BccNDmt3Pyxj,001,2025-09-15_15h28.07.180,continuous_performance_test,2024.2.4,Win32,60.24096386,bb6bf4ed-550d-4ffe-a2e3-3f0065705018,2,311.9246,313.9209,,0,,,0,1,1,0,1,A,space,,,,,,,,,,
,,,,,R_9s6BccNDmt3Pyxj,001,2025-09-15_15h28.07.180,continuous_performance_test,2024.2.4,Win32,60.24096386,bb6bf4ed-550d-4ffe-a2e3-3f0065705018,2,313.9246,315.771,space,1,0.572,,0,2,2,1,1,B,space,,,,,,,,,,
,,,,,R_9s6BccNDmt3Pyxj,001,2025-09-15_15h28.07.180,continuous_performance_test,2024.2.4,Win32,60.24096386,bb6bf4ed-550d-4ffe-a2e3-3f0065705018,2,315.7751,317.4709,space,1,0.3078,,0,3,3,17,1,R,space,,,,,,,,,,
,,,,,R_9s6BccNDmt3Pyxj,001,2025-09-15_15h28.07.180,continuous_performance_test,2024.2.4,Win32,60.24096386,bb6bf4ed-550d-4ffe-a2e3-3f0065705018,2,317.475,319.4216,space,0,0.9148,,0,4,4,26,1,X,,,,,,,,,,,
,,,,,R_9s6BccNDmt3Pyxj,001,2025-09-15_15h28.07.180,continuous_performance_test,2024.2.4,Win32,60.24096386,bb6bf4ed-550d-4ffe-a2e3-3f0065705018,2,319.4258,321.1713,space,1,0.1988,,0,5,5,22,1,W,space,,,,,,,,,,
,,,,,R_9s6BccNDmt3Pyxj,001,2025-09-15_15h28.07.180,continuous_performance_test,2024.2.4,Win32,60.24096386,bb6bf4ed-550d-4ffe-a2e3-3f0065705018,2,321.1758,323.1715,space,1,0.5551,,0,6,6,10,1,K,space,,,,,,,,,,
,,,,,R_9s6BccNDmt3Pyxj,001,2025-09-15_15h28.07.180,continuous_performance_test,2024.2.4,Win32,60.24096386,bb6bf4ed-550d-4ffe-a2e3-3f0065705018,2,323.1756,325.1212,space,1,0.4978,,0,7,7,3,1,D,space,,,,,,,,,,
,,,,,R_9s6BccNDmt3Pyxj,001,2025-09-15_15h28.07.180,continuous_performance_test,2024.2.4,Win32,60.24096386,bb6bf4ed-550d-4ffe-a2e3-3f0065705018,2,325.1252,327.022,space,1,0.2982,,0,8,8,11,1,L,space,,,,,,,,,,
,,,,,R_9s6BccNDmt3Pyxj,001,2025-09-15_15h28.07.180,continuous_performance_test,2024.2.4,Win32,60.24096386,bb6bf4ed-550d-4ffe-a2e3-3f0065705018,2,327.0255,328.6717,space,1,0.287,,0,9,9,20,1,U,space,,,,,,,,,,
,,,,,R_9s6BccNDmt3Pyxj,001,2025-09-15_15h28.07.180,continuous_performance_test,2024.2.4,Win32,60.24096386,bb6bf4ed-550d-4ffe-a2e3-3f0065705018,2,328.676,330.6223,,0,,,0,10,10,9,1,J,space,,,,,,,,,,
,,,,,R_9s6BccNDmt3Pyxj,001,2025-09-15_15h28.07.180,continuous_performance_test,2024.2.4,Win32,60.24096386,bb6bf4ed-550d-4ffe-a2e3-3f0065705018,2,330.6269,332.172,space,1,0.1137,,0,11,11,2,1,C,space,,,,,,,,,,
,,,,,R_9s6BccNDmt3Pyxj,001,2025-09-15_15h28.07.180,continuous_performance_test,2024.2.4,Win32,60.24096386,bb6bf4ed-550d-4ffe-a2e3-3f0065705018,2,332.1764,333.9719,,0,,,0,12,12,24,1,Z,space,,,,,,,,,,
,,,,,R_9s6BccNDmt3Pyxj,001,2025-09-15_15h28.07.180,continuous_performance_test,2024.2.4,Win32,60.24096386,bb6bf4ed-550d-4ffe-a2e3-3f0065705018,2,333.976,335.972,,0,,,0,13,13,21,1,V,space,,,,,,,,,,
,,,,,R_9s6BccNDmt3Pyxj,001,2025-09-15_15h28.07.180,continuous_performance_test,2024.2.4,Win32,60.24096386,bb6bf4ed-550d-4ffe-a2e3-3f0065705018,2,335.9768,337.8222,space,1,0.2849,,0,14,14,6,1,G,space,,,,,,,,,,
,,,,,R_9s6BccNDmt3Pyxj,001,2025-09-15_15h28.07.180,continuous_performance_test,2024.2.4,Win32,60.24096386,bb6bf4ed-550d-4ffe-a2e3-3f0065705018,2,337.8256,339.3723,space,1,0.257,,0,15,15,16,1,Q,space,,,,,,,,,,
,,,,,R_9s6BccNDmt3Pyxj,001,2025-09-15_15h28.07.180,continuous_performance_test,2024.2.4,Win32,60.24096386,bb6bf4ed-550d-4ffe-a2e3-3f0065705018,2,339.3765,341.2223,space,1,0.4637,,0,16,16,8,1,I,space,,,,,,,,,,
,,,,,R_9s6BccNDmt3Pyxj,001,2025-09-15_15h28.07.180,continuous_performance_test,2024.2.4,Win32,60.24096386,bb6bf4ed-550d-4ffe-a2e3-3f0065705018,2,341.2267,342.773,space,1,0.3333,,0,17,17,18,1,S,space,,,,,,,,,,
,,,,,R_9s6BccNDmt3Pyxj,001,2025-09-15_15h28.07.180,continuous_performance_test,2024.2.4,Win32,60.24096386,bb6bf4ed-550d-4ffe-a2e3-3f0065705018,2,342.7774,344.7226,space,0,0.3299,,0,18,18,25,1,X,,,,,,,,,,,
,,,,,R_9s6BccNDmt3Pyxj,001,2025-09-15_15h28.07.180,continuous_performance_test,2024.2.4,Win32,60.24096386,bb6bf4ed-550d-4ffe-a2e3-3f0065705018,2,344.7267,346.5234,space,1,0.0006,,0,19,19,5,1,F,space,,,,,,,,,,
,,,,,R_9s6BccNDmt3Pyxj,001,2025-09-15_15h28.07.180,continuous_performance_test,2024.2.4,Win32,60.24096386,bb6bf4ed-550d-4ffe-a2e3-3f0065705018,2,346.5275,348.1727,space,1,0.5481,,0,20,20,13,1,N,space,,,,,,,,,,
,,,,,R_9s6BccNDmt3Pyxj,001,2025-09-15_15h28.07.180,continuous_performance_test,2024.2.4,Win32,60.24096386,bb6bf4ed-550d-4ffe-a2e3-3f0065705018,2,348.1767,350.0227,space,1,0.5311,,0,21,21,14,1,O,space,,,,,,,,,,
,,,,,R_9s6BccNDmt3Pyxj,001,2025-09-15_15h28.07.180,continuous_performance_test,2024.2.4,Win32,60.24096386,bb6bf4ed-550d-4ffe-a2e3-3f0065705018,2,350.027,351.723,,1,,,0,22,22,28,1,X,,,,,,,,,,,
,,,,,R_9s6BccNDmt3Pyxj,001,2025-09-15_15h28.07.180,continuous_performance_test,2024.2.4,Win32,60.24096386,bb6bf4ed-550d-4ffe-a2e3-3f0065705018,2,351.7269,353.3732,space,1,0.3571,,0,23,23,7,1,H,space,,,,,,,,,,
,,,,,R_9s6BccNDmt3Pyxj,001,2025-09-15_15h28.07.180,continuous_performance_test,2024.2.4,Win32,60.24096386,bb6bf4ed-550d-4ffe-a2e3-3f0065705018,2,353.3782,355.1738,space,1,0.3139,,0,24,24,15,1,P,space,,,,,,,,,,
,,,,,R_9s6BccNDmt3Pyxj,001,2025-09-15_15h28.07.180,continuous_performance_test,2024.2.4,Win32,60.24096386,bb6bf4ed-550d-4ffe-a2e3-3f0065705018,2,355.1778,356.974,space,1,0.2973,,0,25,25,12,1,M,space,,,,,,,,,,
,,,,,R_9s6BccNDmt3Pyxj,001,2025-09-15_15h28.07.180,continuous_performance_test,2024.2.4,Win32,60.24096386,bb6bf4ed-550d-4ffe-a2e3-3f0065705018,2,356.9784,358.8238,space,1,0.2638,,0,26,26,19,1,T,space,,,,,,,,,,
,,,,,R_9s6BccNDmt3Pyxj,001,2025-09-15_15h28.07.180,continuous_performance_test,2024.2.4,Win32,60.24096386,bb6bf4ed-550d-4ffe-a2e3-3f0065705018,2,358.8277,360.7234,space,0,0.0194,,0,27,27,29,1,X,,,,,,,,,,,
,,,,,R_9s6BccNDmt3Pyxj,001,2025-09-15_15h28.07.180,continuous_performance_test,2024.2.4,Win32,60.24096386,bb6bf4ed-550d-4ffe-a2e3-3f0065705018,2,360.7279,362.7233,space,1,0.3134,,0,28,28,23,1,Y,space,,,,,,,,,,
,,,,,R_9s6BccNDmt3Pyxj,001,2025-09-15_15h28.07.180,continuous_performance_test,2024.2.4,Win32,60.24096386,bb6bf4ed-550d-4ffe-a2e3-3f0065705018,2,362.7262,364.5238,space,0,0.2908,,0,29,29,27,1,X,,,,,,,,,,,
,,,,,R_9s6BccNDmt3Pyxj,001,2025-09-15_15h28.07.180,continuous_performance_test,2024.2.4,Win32,60.24096386,bb6bf4ed-550d-4ffe-a2e3-3f0065705018,2,368.4513,370.1911,,0,,,0,0,0,7,1,H,space,364.5265,368.4403,space,3.8942,,,,,,
,,,,,R_9s6BccNDmt3Pyxj,001,2025-09-15_15h28.07.180,continuous_performance_test,2024.2.4,Win32,60.24096386,bb6bf4ed-550d-4ffe-a2e3-3f0065705018,2,370.1948,371.8415,,1,,,0,1,1,26,1,X,,,,,,,,,,,
,,,,,R_9s6BccNDmt3Pyxj,001,2025-09-15_15h28.07.180,continuous_performance_test,2024.2.4,Win32,60.24096386,bb6bf4ed-550d-4ffe-a2e3-3f0065705018,2,371.8454,373.3908,space,1,0.2,,0,2,2,20,1,U,space,,,,,,,,,,
,,,,,R_9s6BccNDmt3Pyxj,001,2025-09-15_15h28.07.180,continuous_performance_test,2024.2.4,Win32,60.24096386,bb6bf4ed-550d-4ffe-a2e3-3f0065705018,2,373.3944,374.9911,space,1,0.3144,,0,3,3,1,1,B,space,,,,,,,,,,
,,,,,R_9s6BccNDmt3Pyxj,001,2025-09-15_15h28.07.180,continuous_performance_test,2024.2.4,Win32,60.24096386,bb6bf4ed-550d-4ffe-a2e3-3f0065705018,2,374.9951,376.7915,space,1,0.1646,,0,4,4,4,1,E,space,,,,,,,,,,
,,,,,R_9s6BccNDmt3Pyxj,001,2025-09-15_15h28.07.180,continuous_performance_test,2024.2.4,Win32,60.24096386,bb6bf4ed-550d-4ffe-a2e3-3f0065705018,2,376.7957,378.3912,space,1,0.1346,,0,5,5,17,1,R,space,,,,,,,,,,
,,,,,R_9s6BccNDmt3Pyxj,001,2025-09-15_15h28.07.180,continuous_performance_test,2024.2.4,Win32,60.24096386,bb6bf4ed-550d-4ffe-a2e3-3f0065705018,2,378.3952,380.0411,space,1,0.1477,,0,6,6,24,1,Z,space,,,,,,,,,,
,,,,,R_9s6BccNDmt3Pyxj,001,2025-09-15_15h28.07.180,continuous_performance_test,2024.2.4,Win32,60.24096386,bb6bf4ed-550d-4ffe-a2e3-3f0065705018,2,380.0448,381.742,space,1,0.0688,,0,7,7,18,1,S,space,,,,,,,,,,
,,,,,R_9s6BccNDmt3Pyxj,001,2025-09-15_15h28.07.180,continuous_performance_test,2024.2.4,Win32,60.24096386,bb6bf4ed-550d-4ffe-a2e3-3f0065705018,2,381.7464,383.4915,,1,,,0,8,8,28,1,X,,,,,,,,,,,
,,,,,R_9s6BccNDmt3Pyxj,001,2025-09-15_15h28.07.180,continuous_performance_test,2024.2.4,Win32,60.24096386,bb6bf4ed-550d-4ffe-a2e3-3f0065705018,2,383.4954,385.1416,space,1,0.4481,,0,9,9,3,1,D,space,,,,,,,,,,
,,,,,R_9s6BccNDmt3Pyxj,001,2025-09-15_15h28.07.180,continuous_performance_test,2024.2.4,Win32,60.24096386,bb6bf4ed-550d-4ffe-a2e3-3f0065705018,2,385.1455,386.742,space,1,0.4003,,0,10,10,23,1,Y,space,,,,,,,,,,
,,,,,R_9s6BccNDmt3Pyxj,001,2025-09-15_15h28.07.180,continuous_performance_test,2024.2.4,Win32,60.24096386,bb6bf4ed-550d-4ffe-a2e3-3f0065705018,2,386.7464,388.7417,,0,,,0,11,11,14,1,O,space,,,,,,,,,,
,,,,,R_9s6BccNDmt3Pyxj,001,2025-09-15_15h28.07.180,continuous_performance_test,2024.2.4,Win32,60.24096386,bb6bf4ed-550d-4ffe-a2e3-3f0065705018,2,388.7463,390.5418,,1,,,0,12,12,25,1,X,,,,,,,,,,,
,,,,,R_9s6BccNDmt3Pyxj,001,2025-09-15_15h28.07.180,continuous_performance_test,2024.2.4,Win32,60.24096386,bb6bf4ed-550d-4ffe-a2e3-3f0065705018,2,390.5462,392.1419,space,1,0.8185,,0,13,13,0,1,A,space,,,,,,,,,,
,,,,,R_9s6BccNDmt3Pyxj,001,2025-09-15_15h28.07.180,continuous_performance_test,2024.2.4,Win32,60.24096386,bb6bf4ed-550d-4ffe-a2e3-3f0065705018,2,392.1459,393.992,space,1,0.7161,,0,14,14,5,1,F,space,,,,,,,,,,
,,,,,R_9s6BccNDmt3Pyxj,001,2025-09-15_15h28.07.180,continuous_performance_test,2024.2.4,Win32,60.24096386,bb6bf4ed-550d-4ffe-a2e3-3f0065705018,2,393.9968,395.8927,space,1,0.4498,,0,15,15,6,1,G,space,,,,,,,,,,
,,,,,R_9s6BccNDmt3Pyxj,001,2025-09-15_15h28.07.180,continuous_performance_test,2024.2.4,Win32,60.24096386,bb6bf4ed-550d-4ffe-a2e3-3f0065705018,2,395.8968,397.7922,space,1,0.9144,,0,16,16,22,1,W,space,,,,,,,,,,
,,,,,R_9s6BccNDmt3Pyxj,001,2025-09-15_15h28.07.180,continuous_performance_test,2024.2.4,Win32,60.24096386,bb6bf4ed-550d-4ffe-a2e3-3f0065705018,2,397.7961,399.6923,space,1,0.8981,,0,17,17,11,1,L,space,,,,,,,,,,
,,,,,R_9s6BccNDmt3Pyxj,001,2025-09-15_15h28.07.180,continuous_performance_test,2024.2.4,Win32,60.24096386,bb6bf4ed-550d-4ffe-a2e3-3f0065705018,2,399.697,401.5427,space,1,0.0239,,0,18,18,21,1,V,space,,,,,,,,,,
,,,,,R_9s6BccNDmt3Pyxj,001,2025-09-15_15h28.07.180,continuous_performance_test,2024.2.4,Win32,60.24096386,bb6bf4ed-550d-4ffe-a2e3-3f0065705018,2,401.5472,403.4426,space,1,0.3184,,0,19,19,19,1,T,space,,,,,,,,,,
,,,,,R_9s6BccNDmt3Pyxj,001,2025-09-15_15h28.07.180,continuous_performance_test,2024.2.4,Win32,60.24096386,bb6bf4ed-550d-4ffe-a2e3-3f0065705018,2,403.4465,405.1926,space,1,0.0482,,0,20,20,10,1,K,space,,,,,,,,,,
,,,,,R_9s6BccNDmt3Pyxj,001,2025-09-15_15h28.07.180,continuous_performance_test,2024.2.4,Win32,60.24096386,bb6bf4ed-550d-4ffe-a2e3-3f0065705018,2,405.1966,407.0427,,0,,,0,21,21,13,1,N,space,,,,,,,,,,
,,,,,R_9s6BccNDmt3Pyxj,001,2025-09-15_15h28.07.180,continuous_performance_test,2024.2.4,Win32,60.24096386,bb6bf4ed-550d-4ffe-a2e3-3f0065705018,2,407.0464,408.893,space,1,0.369,,0,22,22,16,1,Q,space,,,,,,,,,,
,,,,,R_9s6BccNDmt3Pyxj,001,2025-09-15_15h28.07.180,continuous_performance_test,2024.2.4,Win32,60.24096386,bb6bf4ed-550d-4ffe-a2e3-3f0065705018,2,408.8968,410.6428,space,1,0.4844,,0,23,23,8,1,I,space,,,,,,,,,,
,,,,,R_9s6BccNDmt3Pyxj,001,2025-09-15_15h28.07.180,continuous_performance_test,2024.2.4,Win32,60.24096386,bb6bf4ed-550d-4ffe-a2e3-3f0065705018,2,410.6473,412.293,,0,,,0,24,24,15,1,P,space,,,,,,,,,,
,,,,,R_9s6BccNDmt3Pyxj,001,2025-09-15_15h28.07.180,continuous_performance_test,2024.2.4,Win32,60.24096386,bb6bf4ed-550d-4ffe-a2e3-3f0065705018,2,412.2973,414.0932,space,1,0.3177,,0,25,25,2,1,C,space,,,,,,,,,,
,,,,,R_9s6BccNDmt3Pyxj,001,2025-09-15_15h28.07.180,continuous_performance_test,2024.2.4,Win32,60.24096386,bb6bf4ed-550d-4ffe-a2e3-3f0065705018,2,414.0974,415.944,space,0,0.5252,,0,26,26,27,1,X,,,,,,,,,,,
,,,,,R_9s6BccNDmt3Pyxj,001,2025-09-15_15h28.07.180,continuous_performance_test,2024.2.4,Win32,60.24096386,bb6bf4ed-550d-4ffe-a2e3-3f0065705018,2,415.9478,417.6433,space,0,0.5529,,0,27,27,29,1,X,,,,,,,,,,,
,,,,,R_9s6BccNDmt3Pyxj,001,2025-09-15_15h28.07.180,continuous_performance_test,2024.2.4,Win32,60.24096386,bb6bf4ed-550d-4ffe-a2e3-3f0065705018,2,417.6476,419.4435,space,1,0.3646,,0,28,28,12,1,M,space,,,,,,,,,,
,,,,,R_9s6BccNDmt3Pyxj,001,2025-09-15_15h28.07.180,continuous_performance_test,2024.2.4,Win32,60.24096386,bb6bf4ed-550d-4ffe-a2e3-3f0065705018,2,419.4477,421.2931,,0,,,0,29,29,9,1,J,space,,,,,,,,,,
,,,,,R_9s6BccNDmt3Pyxj,001,2025-09-15_15h28.07.180,continuous_performance_test,2024.2.4,Win32,60.24096386,bb6bf4ed-550d-4ffe-a2e3-3f0065705018,2,421.3229,422.8767,space,1,0.5953,,0,0,0,2,1,C,space,421.2992,421.3141,space,0.0016,,,,,,
,,,,,R_9s6BccNDmt3Pyxj,001,2025-09-15_15h28.07.180,continuous_performance_test,2024.2.4,Win32,60.24096386,bb6bf4ed-550d-4ffe-a2e3-3f0065705018,2,422.8833,424.4168,,0,,,0,1,1,13,1,N,space,,,,,,,,,,
,,,,,R_9s6BccNDmt3Pyxj,001,2025-09-15_15h28.07.180,continuous_performance_test,2024.2.4,Win32,60.24096386,bb6bf4ed-550d-4ffe-a2e3-3f0065705018,2,424.4214,426.2159,space,1,0.6096,,0,2,2,11,1,L,space,,,,,,,,,,
,,,,,R_9s6BccNDmt3Pyxj,001,2025-09-15_15h28.07.180,continuous_performance_test,2024.2.4,Win32,60.24096386,bb6bf4ed-550d-4ffe-a2e3-3f0065705018,2,426.2205,427.8601,space,1,0.693,,0,3,3,9,1,J,space,,,,,,,,,,
,,,,,R_9s6BccNDmt3Pyxj,001,2025-09-15_15h28.07.180,continuous_performance_test,2024.2.4,Win32,60.24096386,bb6bf4ed-550d-4ffe-a2e3-3f0065705018,2,427.8664,429.6103,space,1,0.7842,,0,4,4,6,1,G,space,,,,,,,,,,
,,,,,R_9s6BccNDmt3Pyxj,001,2025-09-15_15h28.07.180,continuous_performance_test,2024.2.4,Win32,60.24096386,bb6bf4ed-550d-4ffe-a2e3-3f0065705018,2,429.6167,471.0006,,0,,,0,5,5,7,1,H,space,,,,,,,,,,
,,,,,R_9s6BccNDmt3Pyxj,001,2025-09-15_15h28.07.180,continuous_performance_test,2024.2.4,Win32,60.24096386,bb6bf4ed-550d-4ffe-a2e3-3f0065705018,2,471.0023,472.5964,,0,,,0,6,6,18,1,S,space,,,,,,,,,,
,,,,,R_9s6BccNDmt3Pyxj,001,2025-09-15_15h28.07.180,continuous_performance_test,2024.2.4,Win32,60.24096386,bb6bf4ed-550d-4ffe-a2e3-3f0065705018,2,472.6024,474.3962,,0,,,0,7,7,19,1,T,space,,,,,,,,,,
,,,,,R_9s6BccNDmt3Pyxj,001,2025-09-15_15h28.07.180,continuous_performance_test,2024.2.4,Win32,60.24096386,bb6bf4ed-550d-4ffe-a2e3-3f0065705018,2,474.4028,476.0463,space,0,0.8784,,0,8,8,29,1,X,,,,,,,,,,,
,,,,,R_9s6BccNDmt3Pyxj,001,2025-09-15_15h28.07.180,continuous_performance_test,2024.2.4,Win32,60.24096386,bb6bf4ed-550d-4ffe-a2e3-3f0065705018,2,476.049,477.7463,,1,,,0,9,9,25,1,X,,,,,,,,,,,
,,,,,R_9s6BccNDmt3Pyxj,001,2025-09-15_15h28.07.180,continuous_performance_test,2024.2.4,Win32,60.24096386,bb6bf4ed-550d-4ffe-a2e3-3f0065705018,2,477.7495,479.6467,,0,,,0,10,10,23,1,Y,space,,,,,,,,,,
,,,,,R_9s6BccNDmt3Pyxj,001,2025-09-15_15h28.07.180,continuous_performance_test,2024.2.4,Win32,60.24096386,bb6bf4ed-550d-4ffe-a2e3-3f0065705018,2,479.6527,481.4468,space,1,0.3835,,0,11,11,1,1,B,space,,,,,,,,,,
,,,,,R_9s6BccNDmt3Pyxj,001,2025-09-15_15h28.07.180,continuous_performance_test,2024.2.4,Win32,60.24096386,bb6bf4ed-550d-4ffe-a2e3-3f0065705018,2,481.4526,483.4472,space,1,0.3032,,0,12,12,20,1,U,space,,,,,,,,,,
,,,,,R_9s6BccNDmt3Pyxj,001,2025-09-15_15h28.07.180,continuous_performance_test,2024.2.4,Win32,60.24096386,bb6bf4ed-550d-4ffe-a2e3-3f0065705018,2,483.4534,485.397,,0,,,0,13,13,14,1,O,space,,,,,,,,,,
,,,,,R_9s6BccNDmt3Pyxj,001,2025-09-15_15h28.07.180,continuous_performance_test,2024.2.4,Win32,60.24096386,bb6bf4ed-550d-4ffe-a2e3-3f0065705018,2,485.4029,487.047,,0,,,0,14,14,3,1,D,space,,,,,,,,,,
,,,,,R_9s6BccNDmt3Pyxj,001,2025-09-15_15h28.07.180,continuous_performance_test,2024.2.4,Win32,60.24096386,bb6bf4ed-550d-4ffe-a2e3-3f0065705018,2,487.0503,488.7971,space,0,0.0155,,0,15,15,27,1,X,,,,,,,,,,,
,,,,,R_9s6BccNDmt3Pyxj,001,2025-09-15_15h28.07.180,continuous_performance_test,2024.2.4,Win32,60.24096386,bb6bf4ed-550d-4ffe-a2e3-3f0065705018,2,488.8032,490.347,space,1,0.335,,0,16,16,21,1,V,space,,,,,,,,,,
,,,,,R_9s6BccNDmt3Pyxj,001,2025-09-15_15h28.07.180,continuous_performance_test,2024.2.4,Win32,60.24096386,bb6bf4ed-550d-4ffe-a2e3-3f0065705018,2,490.353,491.9972,space,1,0.2511,,0,17,17,0,1,A,space,,,,,,,,,,
,,,,,R_9s6BccNDmt3Pyxj,001,2025-09-15_15h28.07.180,continuous_performance_test,2024.2.4,Win32,60.24096386,bb6bf4ed-550d-4ffe-a2e3-3f0065705018,2,492.0038,493.9974,,0,,,0,18,18,10,1,K,space,,,,,,,,,,
,,,,,R_9s6BccNDmt3Pyxj,001,2025-09-15_15h28.07.180,continuous_performance_test,2024.2.4,Win32,60.24096386,bb6bf4ed-550d-4ffe-a2e3-3f0065705018,2,494.003,495.5473,space,1,0.3126,,0,19,19,12,1,M,space,,,,,,,,,,
,,,,,R_9s6BccNDmt3Pyxj,001,2025-09-15_15h28.07.180,continuous_performance_test,2024.2.4,Win32,60.24096386,bb6bf4ed-550d-4ffe-a2e3-3f0065705018,2,495.5519,497.1475,space,1,0.3147,,0,20,20,8,1,I,space,,,,,,,,,,
,,,,,R_9s6BccNDmt3Pyxj,001,2025-09-15_15h28.07.180,continuous_performance_test,2024.2.4,Win32,60.24096386,bb6bf4ed-550d-4ffe-a2e3-3f0065705018,2,497.1523,499.0978,space,0,0.8515,,0,21,21,26,1,X,,,,,,,,,,,
,,,,,R_9s6BccNDmt3Pyxj,001,2025-09-15_15h28.07.180,continuous_performance_test,2024.2.4,Win32,60.24096386,bb6bf4ed-550d-4ffe-a2e3-3f0065705018,2,499.1038,500.7476,space,1,0.8673,,0,22,22,5,1,F,space,,,,,,,,,,
,,,,,R_9s6BccNDmt3Pyxj,001,2025-09-15_15h28.07.180,continuous_performance_test,2024.2.4,Win32,60.24096386,bb6bf4ed-550d-4ffe-a2e3-3f0065705018,2,500.751,502.6479,,1,,,0,23,23,28,1,X,,,,,,,,,,,
,,,,,R_9s6BccNDmt3Pyxj,001,2025-09-15_15h28.07.180,continuous_performance_test,2024.2.4,Win32,60.24096386,bb6bf4ed-550d-4ffe-a2e3-3f0065705018,2,502.6525,504.548,space,1,0.3331,,0,24,24,17,1,R,space,,,,,,,,,,
,,,,,R_9s6BccNDmt3Pyxj,001,2025-09-15_15h28.07.180,continuous_performance_test,2024.2.4,Win32,60.24096386,bb6bf4ed-550d-4ffe-a2e3-3f0065705018,2,504.554,506.5484,space,1,0.8313,,0,25,25,22,1,W,space,,,,,,,,,,
,,,,,R_9s6BccNDmt3Pyxj,001,2025-09-15_15h28.07.180,continuous_performance_test,2024.2.4,Win32,60.24096386,bb6bf4ed-550d-4ffe-a2e3-3f0065705018,2,506.5544,508.3482,space,1,0.5371,,0,26,26,15,1,P,space,,,,,,,,,,
,,,,,R_9s6BccNDmt3Pyxj,001,2025-09-15_15h28.07.180,continuous_performance_test,2024.2.4,Win32,60.24096386,bb6bf4ed-550d-4ffe-a2e3-3f0065705018,2,508.3541,510.2483,space,1,0.2698,,0,27,27,24,1,Z,space,,,,,,,,,,
,,,,,R_9s6BccNDmt3Pyxj,001,2025-09-15_15h28.07.180,continuous_performance_test,2024.2.4,Win32,60.24096386,bb6bf4ed-550d-4ffe-a2e3-3f0065705018,2,510.2543,512.2483,space,1,0.4856,,0,28,28,4,1,E,space,,,,,,,,,,
,,,,,R_9s6BccNDmt3Pyxj,001,2025-09-15_15h28.07.180,continuous_performance_test,2024.2.4,Win32,60.24096386,bb6bf4ed-550d-4ffe-a2e3-3f0065705018,2,512.2536,513.7986,space,1,0.6283,,0,29,29,16,1,Q,space,,,,,,,,,,
,,,,,R_9s6BccNDmt3Pyxj,001,2025-09-15_15h28.07.180,continuous_performance_test,2024.2.4,Win32,60.24096386,bb6bf4ed-550d-4ffe-a2e3-3f0065705018,2,515.5467,517.5487,space,0,0.5819,,0,0,0,27,1,X,,513.8013,515.5322,space,1.7194,,,,,,
,,,,,R_9s6BccNDmt3Pyxj,001,2025-09-15_15h28.07.180,continuous_performance_test,2024.2.4,Win32,60.24096386,bb6bf4ed-550d-4ffe-a2e3-3f0065705018,2,517.5538,519.249,space,1,0.4339,,0,1,1,15,1,P,space,,,,,,,,,,
,,,,,R_9s6BccNDmt3Pyxj,001,2025-09-15_15h28.07.180,continuous_performance_test,2024.2.4,Win32,60.24096386,bb6bf4ed-550d-4ffe-a2e3-3f0065705018,2,519.253,520.9987,space,1,0.3509,,0,2,2,24,1,Z,space,,,,,,,,,,
,,,,,R_9s6BccNDmt3Pyxj,001,2025-09-15_15h28.07.180,continuous_performance_test,2024.2.4,Win32,60.24096386,bb6bf4ed-550d-4ffe-a2e3-3f0065705018,2,521.0029,522.749,space,0,0.0544,,0,3,3,28,1,X,,,,,,,,,,,
,,,,,R_9s6BccNDmt3Pyxj,001,2025-09-15_15h28.07.180,continuous_performance_test,2024.2.4,Win32,60.24096386,bb6bf4ed-550d-4ffe-a2e3-3f0065705018,2,522.754,524.599,,0,,,0,4,4,19,1,T,space,,,,,,,,,,
,,,,,R_9s6BccNDmt3Pyxj,001,2025-09-15_15h28.07.180,continuous_performance_test,2024.2.4,Win32,60.24096386,bb6bf4ed-550d-4ffe-a2e3-3f0065705018,2,524.6061,532.2478,,0,,,0,5,5,12,1,M,space,,,,,,,,,,
,,,,,R_9s6BccNDmt3Pyxj,001,2025-09-15_15h28.07.180,continuous_performance_test,2024.2.4,Win32,60.24096386,bb6bf4ed-550d-4ffe-a2e3-3f0065705018,2,532.2521,533.7897,,0,,,0,6,6,4,1,E,space,,,,,,,,,,
,,,,,R_9s6BccNDmt3Pyxj,001,2025-09-15_15h28.07.180,continuous_performance_test,2024.2.4,Win32,60.24096386,bb6bf4ed-550d-4ffe-a2e3-3f0065705018,2,533.7912,535.4338,,0,,,0,7,7,17,1,R,space,,,,,,,,,,
,,,,,R_9s6BccNDmt3Pyxj,001,2025-09-15_15h28.07.180,continuous_performance_test,2024.2.4,Win32,60.24096386,bb6bf4ed-550d-4ffe-a2e3-3f0065705018,2,535.4397,537.1834,,0,,,0,8,8,2,1,C,space,,,,,,,,,,
,,,,,R_9s6BccNDmt3Pyxj,001,2025-09-15_15h28.07.180,continuous_performance_test,2024.2.4,Win32,60.24096386,bb6bf4ed-550d-4ffe-a2e3-3f0065705018,2,537.1889,538.7335,space,1,0.2975,,0,9,9,16,1,Q,space,,,,,,,,,,
,,,,,R_9s6BccNDmt3Pyxj,001,2025-09-15_15h28.07.180,continuous_performance_test,2024.2.4,Win32,60.24096386,bb6bf4ed-550d-4ffe-a2e3-3f0065705018,2,538.7393,540.5336,space,1,0.3172,,0,10,10,14,1,O,space,,,,,,,,,,
,,,,,R_9s6BccNDmt3Pyxj,001,2025-09-15_15h28.07.180,continuous_performance_test,2024.2.4,Win32,60.24096386,bb6bf4ed-550d-4ffe-a2e3-3f0065705018,2,540.5397,542.1836,space,1,0.3308,,0,11,11,6,1,G,space,,,,,,,,,,
,,,,,R_9s6BccNDmt3Pyxj,001,2025-09-15_15h28.07.180,continuous_performance_test,2024.2.4,Win32,60.24096386,bb6bf4ed-550d-4ffe-a2e3-3f0065705018,2,542.1901,543.9339,space,1,0.3718,,0,12,12,20,1,U,space,,,,,,,,,,
,,,,,R_9s6BccNDmt3Pyxj,001,2025-09-15_15h28.07.180,continuous_performance_test,2024.2.4,Win32,60.24096386,bb6bf4ed-550d-4ffe-a2e3-3f0065705018,2,543.9397,545.9338,,1,,,0,13,13,29,1,X,,,,,,,,,,,
,,,,,R_9s6BccNDmt3Pyxj,001,2025-09-15_15h28.07.180,continuous_performance_test,2024.2.4,Win32,60.24096386,bb6bf4ed-550d-4ffe-a2e3-3f0065705018,2,545.9386,547.784,space,1,0.3151,,0,14,14,9,1,J,space,,,,,,,,,,
,,,,,R_9s6BccNDmt3Pyxj,001,2025-09-15_15h28.07.180,continuous_performance_test,2024.2.4,Win32,60.24096386,bb6bf4ed-550d-4ffe-a2e3-3f0065705018,2,547.7892,549.734,space,0,0.3487,,0,15,15,25,1,X,,,,,,,,,,,
,,,,,R_9s6BccNDmt3Pyxj,001,2025-09-15_15h28.07.180,continuous_performance_test,2024.2.4,Win32,60.24096386,bb6bf4ed-550d-4ffe-a2e3-3f0065705018,2,549.7387,551.4341,,1,,,0,16,16,26,1,X,,,,,,,,,,,
,,,,,R_9s6BccNDmt3Pyxj,001,2025-09-15_15h28.07.180,continuous_performance_test,2024.2.4,Win32,60.24096386,bb6bf4ed-550d-4ffe-a2e3-3f0065705018,2,551.4401,553.2842,space,1,0.3644,,0,17,17,8,1,I,space,,,,,,,,,,
,,,,,R_9s6BccNDmt3Pyxj,001,2025-09-15_15h28.07.180,continuous_performance_test,2024.2.4,Win32,60.24096386,bb6bf4ed-550d-4ffe-a2e3-3f0065705018,2,553.2903,555.2844,space,1,0.3143,,0,18,18,10,1,K,space,,,,,,,,,,
,,,,,R_9s6BccNDmt3Pyxj,001,2025-09-15_15h28.07.180,continuous_performance_test,2024.2.4,Win32,60.24096386,bb6bf4ed-550d-4ffe-a2e3-3f0065705018,2,555.2903,557.1845,space,1,0.3675,,0,19,19,5,1,F,space,,,,,,,,,,
,,,,,R_9s6BccNDmt3Pyxj,001,2025-09-15_15h28.07.180,continuous_performance_test,2024.2.4,Win32,60.24096386,bb6bf4ed-550d-4ffe-a2e3-3f0065705018,2,557.1897,558.9345,space,1,0.2974,,0,20,20,11,1,L,space,,,,,,,,,,
,,,,,R_9s6BccNDmt3Pyxj,001,2025-09-15_15h28.07.180,continuous_performance_test,2024.2.4,Win32,60.24096386,bb6bf4ed-550d-4ffe-a2e3-3f0065705018,2,558.9401,560.7346,space,1,0.2979,,0,21,21,18,1,S,space,,,,,,,,,,
,,,,,R_9s6BccNDmt3Pyxj,001,2025-09-15_15h28.07.180,continuous_performance_test,2024.2.4,Win32,60.24096386,bb6bf4ed-550d-4ffe-a2e3-3f0065705018,2,560.7403,562.6847,space,1,0.936,,0,22,22,23,1,Y,space,,,,,,,,,,
,,,,,R_9s6BccNDmt3Pyxj,001,2025-09-15_15h28.07.180,continuous_performance_test,2024.2.4,Win32,60.24096386,bb6bf4ed-550d-4ffe-a2e3-3f0065705018,2,562.6908,564.2348,space,1,0.4019,,0,23,23,7,1,H,space,,,,,,,,,,
,,,,,R_9s6BccNDmt3Pyxj,001,2025-09-15_15h28.07.180,continuous_performance_test,2024.2.4,Win32,60.24096386,bb6bf4ed-550d-4ffe-a2e3-3f0065705018,2,564.241,565.885,space,1,0.3477,,0,24,24,0,1,A,space,,,,,,,,,,
,,,,,R_9s6BccNDmt3Pyxj,001,2025-09-15_15h28.07.180,continuous_performance_test,2024.2.4,Win32,60.24096386,bb6bf4ed-550d-4ffe-a2e3-3f0065705018,2,565.8909,567.435,space,1,0.2145,,0,25,25,22,1,W,space,,,,,,,,,,
,,,,,R_9s6BccNDmt3Pyxj,001,2025-09-15_15h28.07.180,continuous_performance_test,2024.2.4,Win32,60.24096386,bb6bf4ed-550d-4ffe-a2e3-3f0065705018,2,567.4402,569.0347,space,1,0.1197,,0,26,26,1,1,B,space,,,,,,,,,,
,,,,,R_9s6BccNDmt3Pyxj,001,2025-09-15_15h28.07.180,continuous_performance_test,2024.2.4,Win32,60.24096386,bb6bf4ed-550d-4ffe-a2e3-3f0065705018,2,569.0408,570.7352,space,1,0.5993,,0,27,27,21,1,V,space,,,,,,,,,,
,,,,,R_9s6BccNDmt3Pyxj,001,2025-09-15_15h28.07.180,continuous_performance_test,2024.2.4,Win32,60.24096386,bb6bf4ed-550d-4ffe-a2e3-3f0065705018,2,570.7404,572.2852,space,1,0.4313,,0,28,28,13,1,N,space,,,,,,,,,,
,,,,,R_9s6BccNDmt3Pyxj,001,2025-09-15_15h28.07.180,continuous_performance_test,2024.2.4,Win32,60.24096386,bb6bf4ed-550d-4ffe-a2e3-3f0065705018,2,572.2907,573.8853,space,1,0.63,,0,29,29,3,1,D,space,,,,,,,,,,
,,,,,R_9s6BccNDmt3Pyxj,001,2025-09-15_15h28.07.180,continuous_performance_test,2024.2.4,Win32,60.24096386,bb6bf4ed-550d-4ffe-a2e3-3f0065705018,2,574.95,576.8023,space,1,0.664,,0,0,0,13,1,N,space,573.8879,574.9355,space,1.0313,,,,,,
,,,,,R_9s6BccNDmt3Pyxj,001,2025-09-15_15h28.07.180,continuous_performance_test,2024.2.4,Win32,60.24096386,bb6bf4ed-550d-4ffe-a2e3-3f0065705018,2,576.8081,578.6029,space,1,0.4354,,0,1,1,2,1,C,space,,,,,,,,,,
,,,,,R_9s6BccNDmt3Pyxj,001,2025-09-15_15h28.07.180,continuous_performance_test,2024.2.4,Win32,60.24096386,bb6bf4ed-550d-4ffe-a2e3-3f0065705018,2,578.6093,580.5025,space,1,0.3649,,0,2,2,6,1,G,space,,,,,,,,,,
,,,,,R_9s6BccNDmt3Pyxj,001,2025-09-15_15h28.07.180,continuous_performance_test,2024.2.4,Win32,60.24096386,bb6bf4ed-550d-4ffe-a2e3-3f0065705018,2,580.5086,582.0523,space,1,0.5652,,0,3,3,24,1,Z,space,,,,,,,,,,
,,,,,R_9s6BccNDmt3Pyxj,001,2025-09-15_15h28.07.180,continuous_performance_test,2024.2.4,Win32,60.24096386,bb6bf4ed-550d-4ffe-a2e3-3f0065705018,2,582.0569,583.9528,space,1,0.5977,,0,4,4,19,1,T,space,,,,,,,,,,
,,,,,R_9s6BccNDmt3Pyxj,001,2025-09-15_15h28.07.180,continuous_performance_test,2024.2.4,Win32,60.24096386,bb6bf4ed-550d-4ffe-a2e3-3f0065705018,2,583.9585,585.7026,space,0,0.4997,,0,5,5,27,1,X,,,,,,,,,,,
,,,,,R_9s6BccNDmt3Pyxj,001,2025-09-15_15h28.07.180,continuous_performance_test,2024.2.4,Win32,60.24096386,bb6bf4ed-550d-4ffe-a2e3-3f0065705018,2,585.7087,587.2528,space,1,0.6019,,0,6,6,7,1,H,space,,,,,,,,,,
,,,,,R_9s6BccNDmt3Pyxj,001,2025-09-15_15h28.07.180,continuous_performance_test,2024.2.4,Win32,60.24096386,bb6bf4ed-550d-4ffe-a2e3-3f0065705018,2,587.2588,588.9529,space,1,0.8141,,0,7,7,5,1,F,space,,,,,,,,,,
,,,,,R_9s6BccNDmt3Pyxj,001,2025-09-15_15h28.07.180,continuous_performance_test,2024.2.4,Win32,60.24096386,bb6bf4ed-550d-4ffe-a2e3-3f0065705018,2,588.9579,590.853,space,0,0.4151,,0,8,8,29,1,X,,,,,,,,,,,
,,,,,R_9s6BccNDmt3Pyxj,001,2025-09-15_15h28.07.180,continuous_performance_test,2024.2.4,Win32,60.24096386,bb6bf4ed-550d-4ffe-a2e3-3f0065705018,2,590.8583,592.6531,space,1,0.8709,,0,9,9,1,1,B,space,,,,,,,,,,
,,,,,R_9s6BccNDmt3Pyxj,001,2025-09-15_15h28.07.180,continuous_performance_test,2024.2.4,Win32,60.24096386,bb6bf4ed-550d-4ffe-a2e3-3f0065705018,2,592.6585,594.5531,,1,,,0,10,10,25,1,X,,,,,,,,,,,
,,,,,R_9s6BccNDmt3Pyxj,001,2025-09-15_15h28.07.180,continuous_performance_test,2024.2.4,Win32,60.24096386,bb6bf4ed-550d-4ffe-a2e3-3f0065705018,2,594.5587,596.3035,space,1,0.702,,0,11,11,9,1,J,space,,,,,,,,,,
,,,,,R_9s6BccNDmt3Pyxj,001,2025-09-15_15h28.07.180,continuous_performance_test,2024.2.4,Win32,60.24096386,bb6bf4ed-550d-4ffe-a2e3-3f0065705018,2,596.3096,598.0535,space,1,0.8498,,0,12,12,0,1,A,space,,,,,,,,,,
,,,,,R_9s6BccNDmt3Pyxj,001,2025-09-15_15h28.07.180,continuous_performance_test,2024.2.4,Win32,60.24096386,bb6bf4ed-550d-4ffe-a2e3-3f0065705018,2,598.0593,600.0538,space,1,0.7647,,0,13,13,18,1,S,space,,,,,,,,,,
,,,,,R_9s6BccNDmt3Pyxj,001,2025-09-15_15h28.07.180,continuous_performance_test,2024.2.4,Win32,60.24096386,bb6bf4ed-550d-4ffe-a2e3-3f0065705018,2,600.0593,601.7034,space,1,0.4515,,0,14,14,15,1,P,space,,,,,,,,,,
,,,,,R_9s6BccNDmt3Pyxj,001,2025-09-15_15h28.07.180,continuous_performance_test,2024.2.4,Win32,60.24096386,bb6bf4ed-550d-4ffe-a2e3-3f0065705018,2,601.7089,603.3537,,1,,,0,15,15,26,1,X,,,,,,,,,,,
,,,,,R_9s6BccNDmt3Pyxj,001,2025-09-15_15h28.07.180,continuous_performance_test,2024.2.4,Win32,60.24096386,bb6bf4ed-550d-4ffe-a2e3-3f0065705018,2,603.3598,605.2536,space,1,0.5145,,0,16,16,11,1,L,space,,,,,,,,,,
,,,,,R_9s6BccNDmt3Pyxj,001,2025-09-15_15h28.07.180,continuous_performance_test,2024.2.4,Win32,60.24096386,bb6bf4ed-550d-4ffe-a2e3-3f0065705018,2,605.2587,607.0038,space,1,0.6818,,0,17,17,20,1,U,space,,,,,,,,,,
,,,,,R_9s6BccNDmt3Pyxj,001,2025-09-15_15h28.07.180,continuous_performance_test,2024.2.4,Win32,60.24096386,bb6bf4ed-550d-4ffe-a2e3-3f0065705018,2,607.0095,608.554,space,1,0.3972,,0,18,18,23,1,Y,space,,,,,,,,,,
,,,,,R_9s6BccNDmt3Pyxj,001,2025-09-15_15h28.07.180,continuous_performance_test,2024.2.4,Win32,60.24096386,bb6bf4ed-550d-4ffe-a2e3-3f0065705018,2,608.56,610.1041,space,1,0.3874,,0,19,19,22,1,W,space,,,,,,,,,,
,,,,,R_9s6BccNDmt3Pyxj,001,2025-09-15_15h28.07.180,continuous_performance_test,2024.2.4,Win32,60.24096386,bb6bf4ed-550d-4ffe-a2e3-3f0065705018,2,610.1094,611.7042,space,1,0.4044,,0,20,20,12,1,M,space,,,,,,,,,,
,,,,,R_9s6BccNDmt3Pyxj,001,2025-09-15_15h28.07.180,continuous_performance_test,2024.2.4,Win32,60.24096386,bb6bf4ed-550d-4ffe-a2e3-3f0065705018,2,611.71,613.7044,space,1,0.4495,,0,21,21,21,1,V,space,,,,,,,,,,
,,,,,R_9s6BccNDmt3Pyxj,001,2025-09-15_15h28.07.180,continuous_performance_test,2024.2.4,Win32,60.24096386,bb6bf4ed-550d-4ffe-a2e3-3f0065705018,2,613.7101,615.5044,space,1,0.415,,0,22,22,10,1,K,space,,,,,,,,,,
,,,,,R_9s6BccNDmt3Pyxj,001,2025-09-15_15h28.07.180,continuous_performance_test,2024.2.4,Win32,60.24096386,bb6bf4ed-550d-4ffe-a2e3-3f0065705018,2,615.5101,617.2545,,1,,,0,23,23,28,1,X,,,,,,,,,,,
,,,,,R_9s6BccNDmt3Pyxj,001,2025-09-15_15h28.07.180,continuous_performance_test,2024.2.4,Win32,60.24096386,bb6bf4ed-550d-4ffe-a2e3-3f0065705018,2,617.2604,618.9545,,0,,,0,24,24,17,1,R,space,,,,,,,,,,
,,,,,R_9s6BccNDmt3Pyxj,001,2025-09-15_15h28.07.180,continuous_performance_test,2024.2.4,Win32,60.24096386,bb6bf4ed-550d-4ffe-a2e3-3f0065705018,2,618.9596,620.5047,space,1,0.8368,,0,25,25,8,1,I,space,,,,,,,,,,
,,,,,R_9s6BccNDmt3Pyxj,001,2025-09-15_15h28.07.180,continuous_performance_test,2024.2.4,Win32,60.24096386,bb6bf4ed-550d-4ffe-a2e3-3f0065705018,2,620.5107,622.3047,,0,,,0,26,26,4,1,E,space,,,,,,,,,,
,,,,,R_9s6BccNDmt3Pyxj,001,2025-09-15_15h28.07.180,continuous_performance_test,2024.2.4,Win32,60.24096386,bb6bf4ed-550d-4ffe-a2e3-3f0065705018,2,622.3098,623.9547,space,1,0.5238,,0,27,27,3,1,D,space,,,,,,,,,,
,,,,,R_9s6BccNDmt3Pyxj,001,2025-09-15_15h28.07.180,continuous_performance_test,2024.2.4,Win32,60.24096386,bb6bf4ed-550d-4ffe-a2e3-3f0065705018,2,623.9596,625.6049,,0,,,0,28,28,14,1,O,space,,,,,,,,,,
,,,,,R_9s6BccNDmt3Pyxj,001,2025-09-15_15h28.07.180,continuous_performance_test,2024.2.4,Win32,60.24096386,bb6bf4ed-550d-4ffe-a2e3-3f0065705018,2,625.6099,627.2549,space,1,0.2871,,0,29,29,16,1,Q,space,,,,,,,,,,
,,,,,R_9s6BccNDmt3Pyxj,001,2025-09-15_15h28.07.180,continuous_performance_test,2024.2.4,Win32,60.24096386,bb6bf4ed-550d-4ffe-a2e3-3f0065705018,2,,,,,,,,,,,,,,627.2584,627.2613,,,,627.2617,727.1958,space,99.9116,
