Instructions.started,Instructions.stopped,key_resp.keys,key_resp.rt,key_resp.duration,participant,session,date,expName,psychopyVersion,OS,frameRate,Trial_noX.started,Trial_noX.stopped,response.keys,response.corr,trials_noX.thisRepN,trials_noX.thisTrialN,trials_noX.thisN,trials_noX.thisIndex,trials_noX.ran,letter,corrAns,response.rt,response.duration,BlockBreak.started,BlockBreak.stopped,key_instruct.keys,key_instruct.rt,key_instruct.duration,End_NoX.started,End_NoX.stopped,key_resp_end_noX.keys,key_resp_end_noX.rt,key_resp_end_noX.duration
0,15.111,space,15.061,,R_9sgKSTA7AGzLcUo,001,2025-08-24_19h32.44.756,continuous_performance_test,2024.2.4,MacIntel,29.41176471,,,,,,,,,,,,,,,,,,,,,,,
,,,,,R_9sgKSTA7AGzLcUo,001,2025-08-24_19h32.44.756,continuous_performance_test,2024.2.4,MacIntel,29.41176471,15.13,16.811,,0,0,0,0,11,1,L,space,,,,,,,,,,,,
,,,,,R_9sgKSTA7AGzLcUo,001,2025-08-24_19h32.44.756,continuous_performance_test,2024.2.4,MacIntel,29.41176471,16.816,18.744,,0,0,1,1,8,1,I,space,,,,,,,,,,,,
,,,,,R_9sgKSTA7AGzLcUo,001,2025-08-24_19h32.44.756,continuous_performance_test,2024.2.4,MacIntel,29.41176471,18.748,20.443,space,1,0,2,2,18,1,S,space,0.31,,,,,,,,,,,
,,,,,R_9sgKSTA7AGzLcUo,001,2025-08-24_19h32.44.756,continuous_performance_test,2024.2.4,MacIntel,29.41176471,20.448,22.076,space,1,0,3,3,21,1,V,space,0.279,,,,,,,,,,,
,,,,,R_9sgKSTA7AGzLcUo,001,2025-08-24_19h32.44.756,continuous_performance_test,2024.2.4,MacIntel,29.41176471,22.081,23.877,space,1,0,4,4,22,1,W,space,0.375,,,,,,,,,,,
,,,,,R_9sgKSTA7AGzLcUo,001,2025-08-24_19h32.44.756,continuous_performance_test,2024.2.4,MacIntel,29.41176471,23.882,25.776,space,1,0,5,5,24,1,Z,space,0.226,,,,,,,,,,,
,,,,,R_9sgKSTA7AGzLcUo,001,2025-08-24_19h32.44.756,continuous_performance_test,2024.2.4,MacIntel,29.41176471,25.781,27.509,space,1,0,6,6,0,1,A,space,0.227,,,,,,,,,,,
,,,,,R_9sgKSTA7AGzLcUo,001,2025-08-24_19h32.44.756,continuous_performance_test,2024.2.4,MacIntel,29.41176471,27.513,29.309,space,1,0,7,7,7,1,H,space,0.259,,,,,,,,,,,
,,,,,R_9sgKSTA7AGzLcUo,001,2025-08-24_19h32.44.756,continuous_performance_test,2024.2.4,MacIntel,29.41176471,29.313,31.109,space,1,0,8,8,20,1,U,space,0.232,,,,,,,,,,,
,,,,,R_9sgKSTA7AGzLcUo,001,2025-08-24_19h32.44.756,continuous_performance_test,2024.2.4,MacIntel,29.41176471,31.113,32.71,space,1,0,9,9,13,1,N,space,0.245,,,,,,,,,,,
,,,,,R_9sgKSTA7AGzLcUo,001,2025-08-24_19h32.44.756,continuous_performance_test,2024.2.4,MacIntel,29.41176471,32.714,34.41,space,1,0,10,10,16,1,Q,space,0.28,,,,,,,,,,,
,,,,,R_9sgKSTA7AGzLcUo,001,2025-08-24_19h32.44.756,continuous_performance_test,2024.2.4,MacIntel,29.41176471,34.414,36.043,space,1,0,11,11,3,1,D,space,0.219,,,,,,,,,,,
,,,,,R_9sgKSTA7AGzLcUo,001,2025-08-24_19h32.44.756,continuous_performance_test,2024.2.4,MacIntel,29.41176471,36.048,37.977,space,1,0,12,12,2,1,C,space,0.211,,,,,,,,,,,
,,,,,R_9sgKSTA7AGzLcUo,001,2025-08-24_19h32.44.756,continuous_performance_test,2024.2.4,MacIntel,29.41176471,37.981,39.776,space,1,0,13,13,14,1,O,space,0.178,,,,,,,,,,,
,,,,,R_9sgKSTA7AGzLcUo,001,2025-08-24_19h32.44.756,continuous_performance_test,2024.2.4,MacIntel,29.41176471,39.781,41.71,space,1,0,14,14,15,1,P,space,0.166,,,,,,,,,,,
,,,,,R_9sgKSTA7AGzLcUo,001,2025-08-24_19h32.44.756,continuous_performance_test,2024.2.4,MacIntel,29.41176471,41.714,43.71,,0,0,15,15,12,1,M,space,,,,,,,,,,,,
,,,,,R_9sgKSTA7AGzLcUo,001,2025-08-24_19h32.44.756,continuous_performance_test,2024.2.4,MacIntel,29.41176471,43.714,45.41,space,1,0,16,16,19,1,T,space,0.361,,,,,,,,,,,
,,,,,R_9sgKSTA7AGzLcUo,001,2025-08-24_19h32.44.756,continuous_performance_test,2024.2.4,MacIntel,29.41176471,45.415,47.31,space,0,0,17,17,25,1,X,,0.263,,,,,,,,,,,
,,,,,R_9sgKSTA7AGzLcUo,001,2025-08-24_19h32.44.756,continuous_performance_test,2024.2.4,MacIntel,29.41176471,47.314,49.044,space,1,0,18,18,9,1,J,space,0.294,,,,,,,,,,,
,,,,,R_9sgKSTA7AGzLcUo,001,2025-08-24_19h32.44.756,continuous_performance_test,2024.2.4,MacIntel,29.41176471,49.047,50.944,space,1,0,19,19,10,1,K,space,0.214,,,,,,,,,,,
,,,,,R_9sgKSTA7AGzLcUo,001,2025-08-24_19h32.44.756,continuous_performance_test,2024.2.4,MacIntel,29.41176471,50.947,52.877,space,1,0,20,20,5,1,F,space,0.228,,,,,,,,,,,
,,,,,R_9sgKSTA7AGzLcUo,001,2025-08-24_19h32.44.756,continuous_performance_test,2024.2.4,MacIntel,29.41176471,52.882,54.777,space,1,0,21,21,1,1,B,space,0.216,,,,,,,,,,,
,,,,,R_9sgKSTA7AGzLcUo,001,2025-08-24_19h32.44.756,continuous_performance_test,2024.2.4,MacIntel,29.41176471,54.781,56.477,space,1,0,22,22,17,1,R,space,0.282,,,,,,,,,,,
,,,,,R_9sgKSTA7AGzLcUo,001,2025-08-24_19h32.44.756,continuous_performance_test,2024.2.4,MacIntel,29.41176471,56.481,58.411,space,0,0,23,23,28,1,X,,0.328,,,,,,,,,,,
,,,,,R_9sgKSTA7AGzLcUo,001,2025-08-24_19h32.44.756,continuous_performance_test,2024.2.4,MacIntel,29.41176471,58.414,60.21,space,0,0,24,24,29,1,X,,0.234,,,,,,,,,,,
,,,,,R_9sgKSTA7AGzLcUo,001,2025-08-24_19h32.44.756,continuous_performance_test,2024.2.4,MacIntel,29.41176471,60.214,61.744,space,1,0,25,25,4,1,E,space,0.26,,,,,,,,,,,
,,,,,R_9sgKSTA7AGzLcUo,001,2025-08-24_19h32.44.756,continuous_performance_test,2024.2.4,MacIntel,29.41176471,61.748,63.477,,1,0,26,26,26,1,X,,,,,,,,,,,,,
,,,,,R_9sgKSTA7AGzLcUo,001,2025-08-24_19h32.44.756,continuous_performance_test,2024.2.4,MacIntel,29.41176471,63.479,65.311,space,0,0,27,27,27,1,X,,0.216,,,,,,,,,,,
,,,,,R_9sgKSTA7AGzLcUo,001,2025-08-24_19h32.44.756,continuous_performance_test,2024.2.4,MacIntel,29.41176471,65.314,67.044,space,1,0,28,28,6,1,G,space,0.295,,,,,,,,,,,
,,,,,R_9sgKSTA7AGzLcUo,001,2025-08-24_19h32.44.756,continuous_performance_test,2024.2.4,MacIntel,29.41176471,67.048,68.744,space,1,0,29,29,23,1,Y,space,0.269,,,,,,,,,,,
,,,,,R_9sgKSTA7AGzLcUo,001,2025-08-24_19h32.44.756,continuous_performance_test,2024.2.4,MacIntel,29.41176471,74.354,76.212,space,1,0,0,0,14,1,O,space,0.268,,68.75,74.345,space,5.571,,,,,,
,,,,,R_9sgKSTA7AGzLcUo,001,2025-08-24_19h32.44.756,continuous_performance_test,2024.2.4,MacIntel,29.41176471,76.216,78.012,space,1,0,1,1,23,1,Y,space,0.482,,,,,,,,,,,
,,,,,R_9sgKSTA7AGzLcUo,001,2025-08-24_19h32.44.756,continuous_performance_test,2024.2.4,MacIntel,29.41176471,78.016,79.611,space,0,0,2,2,25,1,X,,0.299,,,,,,,,,,,
,,,,,R_9sgKSTA7AGzLcUo,001,2025-08-24_19h32.44.756,continuous_performance_test,2024.2.4,MacIntel,29.41176471,79.615,81.612,space,1,0,3,3,22,1,W,space,0.246,,,,,,,,,,,
,,,,,R_9sgKSTA7AGzLcUo,001,2025-08-24_19h32.44.756,continuous_performance_test,2024.2.4,MacIntel,29.41176471,81.616,83.545,space,1,0,4,4,5,1,F,space,0.264,,,,,,,,,,,
,,,,,R_9sgKSTA7AGzLcUo,001,2025-08-24_19h32.44.756,continuous_performance_test,2024.2.4,MacIntel,29.41176471,83.549,85.244,space,1,0,5,5,7,1,H,space,0.253,,,,,,,,,,,
,,,,,R_9sgKSTA7AGzLcUo,001,2025-08-24_19h32.44.756,continuous_performance_test,2024.2.4,MacIntel,29.41176471,85.248,86.845,space,0,0,6,6,28,1,X,,0.294,,,,,,,,,,,
,,,,,R_9sgKSTA7AGzLcUo,001,2025-08-24_19h32.44.756,continuous_performance_test,2024.2.4,MacIntel,29.41176471,86.849,88.578,space,1,0,7,7,11,1,L,space,0.001,,,,,,,,,,,
,,,,,R_9sgKSTA7AGzLcUo,001,2025-08-24_19h32.44.756,continuous_performance_test,2024.2.4,MacIntel,29.41176471,88.582,90.479,space,1,0,8,8,3,1,D,space,0.127,,,,,,,,,,,
,,,,,R_9sgKSTA7AGzLcUo,001,2025-08-24_19h32.44.756,continuous_performance_test,2024.2.4,MacIntel,29.41176471,90.482,92.378,space,1,0,9,9,8,1,I,space,0.194,,,,,,,,,,,
,,,,,R_9sgKSTA7AGzLcUo,001,2025-08-24_19h32.44.756,continuous_performance_test,2024.2.4,MacIntel,29.41176471,92.382,94.379,space,1,0,10,10,19,1,T,space,0.186,,,,,,,,,,,
,,,,,R_9sgKSTA7AGzLcUo,001,2025-08-24_19h32.44.756,continuous_performance_test,2024.2.4,MacIntel,29.41176471,94.382,96.112,space,1,0,11,11,20,1,U,space,0.228,,,,,,,,,,,
,,,,,R_9sgKSTA7AGzLcUo,001,2025-08-24_19h32.44.756,continuous_performance_test,2024.2.4,MacIntel,29.41176471,96.115,97.945,space,1,0,12,12,17,1,R,space,0.313,,,,,,,,,,,
,,,,,R_9sgKSTA7AGzLcUo,001,2025-08-24_19h32.44.756,continuous_performance_test,2024.2.4,MacIntel,29.41176471,97.949,99.879,space,0,0,13,13,27,1,X,,0.26,,,,,,,,,,,
,,,,,R_9sgKSTA7AGzLcUo,001,2025-08-24_19h32.44.756,continuous_performance_test,2024.2.4,MacIntel,29.41176471,99.882,101.579,space,1,0,14,14,4,1,E,space,0.284,,,,,,,,,,,
,,,,,R_9sgKSTA7AGzLcUo,001,2025-08-24_19h32.44.756,continuous_performance_test,2024.2.4,MacIntel,29.41176471,101.582,103.479,space,1,0,15,15,12,1,M,space,0.246,,,,,,,,,,,
,,,,,R_9sgKSTA7AGzLcUo,001,2025-08-24_19h32.44.756,continuous_performance_test,2024.2.4,MacIntel,29.41176471,103.487,105.412,space,1,0,16,16,0,1,A,space,0.06,,,,,,,,,,,
,,,,,R_9sgKSTA7AGzLcUo,001,2025-08-24_19h32.44.756,continuous_performance_test,2024.2.4,MacIntel,29.41176471,105.416,107.413,space,1,0,17,17,10,1,K,space,0.003,,,,,,,,,,,
,,,,,R_9sgKSTA7AGzLcUo,001,2025-08-24_19h32.44.756,continuous_performance_test,2024.2.4,MacIntel,29.41176471,107.416,109.212,space,1,0,18,18,15,1,P,space,0.227,,,,,,,,,,,
,,,,,R_9sgKSTA7AGzLcUo,001,2025-08-24_19h32.44.756,continuous_performance_test,2024.2.4,MacIntel,29.41176471,109.216,111.046,space,1,0,19,19,9,1,J,space,0.345,,,,,,,,,,,
,,,,,R_9sgKSTA7AGzLcUo,001,2025-08-24_19h32.44.756,continuous_performance_test,2024.2.4,MacIntel,29.41176471,111.049,112.779,space,1,0,20,20,13,1,N,space,0.279,,,,,,,,,,,
,,,,,R_9sgKSTA7AGzLcUo,001,2025-08-24_19h32.44.756,continuous_performance_test,2024.2.4,MacIntel,29.41176471,112.782,114.479,space,1,0,21,21,21,1,V,space,0.248,,,,,,,,,,,
,,,,,R_9sgKSTA7AGzLcUo,001,2025-08-24_19h32.44.756,continuous_performance_test,2024.2.4,MacIntel,29.41176471,114.482,116.379,space,1,0,22,22,1,1,B,space,0.046,,,,,,,,,,,
,,,,,R_9sgKSTA7AGzLcUo,001,2025-08-24_19h32.44.756,continuous_performance_test,2024.2.4,MacIntel,29.41176471,116.383,118.113,,0,0,23,23,16,1,Q,space,,,,,,,,,,,,
,,,,,R_9sgKSTA7AGzLcUo,001,2025-08-24_19h32.44.756,continuous_performance_test,2024.2.4,MacIntel,29.41176471,118.117,120.046,space,0,0,24,24,26,1,X,,0.261,,,,,,,,,,,
,,,,,R_9sgKSTA7AGzLcUo,001,2025-08-24_19h32.44.756,continuous_performance_test,2024.2.4,MacIntel,29.41176471,120.049,121.679,space,0,0,25,25,29,1,X,,0.055,,,,,,,,,,,
,,,,,R_9sgKSTA7AGzLcUo,001,2025-08-24_19h32.44.756,continuous_performance_test,2024.2.4,MacIntel,29.41176471,121.683,123.613,space,1,0,26,26,24,1,Z,space,0.213,,,,,,,,,,,
,,,,,R_9sgKSTA7AGzLcUo,001,2025-08-24_19h32.44.756,continuous_performance_test,2024.2.4,MacIntel,29.41176471,123.616,125.313,space,1,0,27,27,2,1,C,space,0.26,,,,,,,,,,,
,,,,,R_9sgKSTA7AGzLcUo,001,2025-08-24_19h32.44.756,continuous_performance_test,2024.2.4,MacIntel,29.41176471,125.316,126.846,space,1,0,28,28,6,1,G,space,0.231,,,,,,,,,,,
,,,,,R_9sgKSTA7AGzLcUo,001,2025-08-24_19h32.44.756,continuous_performance_test,2024.2.4,MacIntel,29.41176471,126.849,128.58,space,1,0,29,29,18,1,S,space,0.046,,,,,,,,,,,
,,,,,R_9sgKSTA7AGzLcUo,001,2025-08-24_19h32.44.756,continuous_performance_test,2024.2.4,MacIntel,29.41176471,129.952,131.946,space,1,0,0,0,10,1,K,space,0.363,,128.583,129.946,space,1.328,,,,,,
,,,,,R_9sgKSTA7AGzLcUo,001,2025-08-24_19h32.44.756,continuous_performance_test,2024.2.4,MacIntel,29.41176471,131.95,133.546,space,1,0,1,1,1,1,B,space,0.261,,,,,,,,,,,
,,,,,R_9sgKSTA7AGzLcUo,001,2025-08-24_19h32.44.756,continuous_performance_test,2024.2.4,MacIntel,29.41176471,133.55,135.147,space,0,0,2,2,29,1,X,,0.313,,,,,,,,,,,
,,,,,R_9sgKSTA7AGzLcUo,001,2025-08-24_19h32.44.756,continuous_performance_test,2024.2.4,MacIntel,29.41176471,135.15,136.879,space,1,0,3,3,12,1,M,space,0.222,,,,,,,,,,,
,,,,,R_9sgKSTA7AGzLcUo,001,2025-08-24_19h32.44.756,continuous_performance_test,2024.2.4,MacIntel,29.41176471,136.883,138.513,space,1,0,4,4,3,1,D,space,0.313,,,,,,,,,,,
,,,,,R_9sgKSTA7AGzLcUo,001,2025-08-24_19h32.44.756,continuous_performance_test,2024.2.4,MacIntel,29.41176471,138.518,140.246,space,1,0,5,5,9,1,J,space,0.402,,,,,,,,,,,
,,,,,R_9sgKSTA7AGzLcUo,001,2025-08-24_19h32.44.756,continuous_performance_test,2024.2.4,MacIntel,29.41176471,140.25,141.78,space,1,0,6,6,18,1,S,space,0.336,,,,,,,,,,,
,,,,,R_9sgKSTA7AGzLcUo,001,2025-08-24_19h32.44.756,continuous_performance_test,2024.2.4,MacIntel,29.41176471,141.784,143.48,,0,0,7,7,17,1,R,space,,,,,,,,,,,,
,,,,,R_9sgKSTA7AGzLcUo,001,2025-08-24_19h32.44.756,continuous_performance_test,2024.2.4,MacIntel,29.41176471,143.484,145.213,,0,0,8,8,21,1,V,space,,,,,,,,,,,,
,,,,,R_9sgKSTA7AGzLcUo,001,2025-08-24_19h32.44.756,continuous_performance_test,2024.2.4,MacIntel,29.41176471,145.217,146.913,space,0,0,9,9,27,1,X,,0.229,,,,,,,,,,,
,,,,,R_9sgKSTA7AGzLcUo,001,2025-08-24_19h32.44.756,continuous_performance_test,2024.2.4,MacIntel,29.41176471,146.916,148.713,space,0,0,10,10,28,1,X,,0.277,,,,,,,,,,,
,,,,,R_9sgKSTA7AGzLcUo,001,2025-08-24_19h32.44.756,continuous_performance_test,2024.2.4,MacIntel,29.41176471,148.717,150.247,space,1,0,11,11,22,1,W,space,0.242,,,,,,,,,,,
,,,,,R_9sgKSTA7AGzLcUo,001,2025-08-24_19h32.44.756,continuous_performance_test,2024.2.4,MacIntel,29.41176471,150.251,152.18,space,1,0,12,12,19,1,T,space,0.412,,,,,,,,,,,
,,,,,R_9sgKSTA7AGzLcUo,001,2025-08-24_19h32.44.756,continuous_performance_test,2024.2.4,MacIntel,29.41176471,152.184,154.18,space,1,0,13,13,24,1,Z,space,0.197,,,,,,,,,,,
,,,,,R_9sgKSTA7AGzLcUo,001,2025-08-24_19h32.44.756,continuous_performance_test,2024.2.4,MacIntel,29.41176471,154.184,156.014,space,1,0,14,14,23,1,Y,space,0.38,,,,,,,,,,,
,,,,,R_9sgKSTA7AGzLcUo,001,2025-08-24_19h32.44.756,continuous_performance_test,2024.2.4,MacIntel,29.41176471,156.017,158.014,,0,0,15,15,7,1,H,space,,,,,,,,,,,,
,,,,,R_9sgKSTA7AGzLcUo,001,2025-08-24_19h32.44.756,continuous_performance_test,2024.2.4,MacIntel,29.41176471,158.017,159.813,space,1,0,16,16,15,1,P,space,0.57,,,,,,,,,,,
,,,,,R_9sgKSTA7AGzLcUo,001,2025-08-24_19h32.44.756,continuous_performance_test,2024.2.4,MacIntel,29.41176471,159.817,161.814,space,1,0,17,17,0,1,A,space,0.265,,,,,,,,,,,
,,,,,R_9sgKSTA7AGzLcUo,001,2025-08-24_19h32.44.756,continuous_performance_test,2024.2.4,MacIntel,29.41176471,161.817,163.514,space,1,0,18,18,2,1,C,space,0.563,,,,,,,,,,,
,,,,,R_9sgKSTA7AGzLcUo,001,2025-08-24_19h32.44.756,continuous_performance_test,2024.2.4,MacIntel,29.41176471,163.517,165.447,space,1,0,19,19,20,1,U,space,0.38,,,,,,,,,,,
,,,,,R_9sgKSTA7AGzLcUo,001,2025-08-24_19h32.44.756,continuous_performance_test,2024.2.4,MacIntel,29.41176471,165.451,167.381,space,1,0,20,20,14,1,O,space,0.361,,,,,,,,,,,
,,,,,R_9sgKSTA7AGzLcUo,001,2025-08-24_19h32.44.756,continuous_performance_test,2024.2.4,MacIntel,29.41176471,167.384,169.314,space,1,0,21,21,8,1,I,space,0.379,,,,,,,,,,,
,,,,,R_9sgKSTA7AGzLcUo,001,2025-08-24_19h32.44.756,continuous_performance_test,2024.2.4,MacIntel,29.41176471,169.318,171.048,,1,0,22,22,25,1,X,,,,,,,,,,,,,
,,,,,R_9sgKSTA7AGzLcUo,001,2025-08-24_19h32.44.756,continuous_performance_test,2024.2.4,MacIntel,29.41176471,171.051,172.948,space,1,0,23,23,4,1,E,space,0.075,,,,,,,,,,,
,,,,,R_9sgKSTA7AGzLcUo,001,2025-08-24_19h32.44.756,continuous_performance_test,2024.2.4,MacIntel,29.41176471,172.951,174.581,space,1,0,24,24,5,1,F,space,0.313,,,,,,,,,,,
,,,,,R_9sgKSTA7AGzLcUo,001,2025-08-24_19h32.44.756,continuous_performance_test,2024.2.4,MacIntel,29.41176471,174.584,176.181,space,1,0,25,25,11,1,L,space,0.279,,,,,,,,,,,
,,,,,R_9sgKSTA7AGzLcUo,001,2025-08-24_19h32.44.756,continuous_performance_test,2024.2.4,MacIntel,29.41176471,176.184,177.781,space,1,0,26,26,6,1,G,space,0.295,,,,,,,,,,,
,,,,,R_9sgKSTA7AGzLcUo,001,2025-08-24_19h32.44.756,continuous_performance_test,2024.2.4,MacIntel,29.41176471,177.784,179.415,space,0,0,27,27,26,1,X,,0.247,,,,,,,,,,,
,,,,,R_9sgKSTA7AGzLcUo,001,2025-08-24_19h32.44.756,continuous_performance_test,2024.2.4,MacIntel,29.41176471,179.418,181.115,,0,0,28,28,13,1,N,space,,,,,,,,,,,,
,,,,,R_9sgKSTA7AGzLcUo,001,2025-08-24_19h32.44.756,continuous_performance_test,2024.2.4,MacIntel,29.41176471,181.118,182.748,space,1,0,29,29,16,1,Q,space,0.693,,,,,,,,,,,
,,,,,R_9sgKSTA7AGzLcUo,001,2025-08-24_19h32.44.756,continuous_performance_test,2024.2.4,MacIntel,29.41176471,188.997,190.581,,1,0,0,0,25,1,X,,,,182.751,188.981,space,6.205,,,,,,
,,,,,R_9sgKSTA7AGzLcUo,001,2025-08-24_19h32.44.756,continuous_performance_test,2024.2.4,MacIntel,29.41176471,190.582,192.115,space,1,0,1,1,22,1,W,space,0.278,,,,,,,,,,,
,,,,,R_9sgKSTA7AGzLcUo,001,2025-08-24_19h32.44.756,continuous_performance_test,2024.2.4,MacIntel,29.41176471,192.118,194.015,,0,0,2,2,4,1,E,space,,,,,,,,,,,,
,,,,,R_9sgKSTA7AGzLcUo,001,2025-08-24_19h32.44.756,continuous_performance_test,2024.2.4,MacIntel,29.41176471,194.019,195.949,space,1,0,3,3,14,1,O,space,0.594,,,,,,,,,,,
,,,,,R_9sgKSTA7AGzLcUo,001,2025-08-24_19h32.44.756,continuous_performance_test,2024.2.4,MacIntel,29.41176471,195.952,197.882,,0,0,4,4,10,1,K,space,,,,,,,,,,,,
,,,,,R_9sgKSTA7AGzLcUo,001,2025-08-24_19h32.44.756,continuous_performance_test,2024.2.4,MacIntel,29.41176471,197.885,199.715,space,1,0,5,5,11,1,L,space,0.749,,,,,,,,,,,
,,,,,R_9sgKSTA7AGzLcUo,001,2025-08-24_19h32.44.756,continuous_performance_test,2024.2.4,MacIntel,29.41176471,199.719,201.449,space,0,0,6,6,26,1,X,,0.617,,,,,,,,,,,
,,,,,R_9sgKSTA7AGzLcUo,001,2025-08-24_19h32.44.756,continuous_performance_test,2024.2.4,MacIntel,29.41176471,201.452,203.082,,0,0,7,7,1,1,B,space,,,,,,,,,,,,
,,,,,R_9sgKSTA7AGzLcUo,001,2025-08-24_19h32.44.756,continuous_performance_test,2024.2.4,MacIntel,29.41176471,203.085,204.715,space,1,0,8,8,23,1,Y,space,0.227,,,,,,,,,,,
,,,,,R_9sgKSTA7AGzLcUo,001,2025-08-24_19h32.44.756,continuous_performance_test,2024.2.4,MacIntel,29.41176471,204.719,206.515,space,1,0,9,9,2,1,C,space,0.685,,,,,,,,,,,
,,,,,R_9sgKSTA7AGzLcUo,001,2025-08-24_19h32.44.756,continuous_performance_test,2024.2.4,MacIntel,29.41176471,206.519,208.116,space,1,0,10,10,8,1,I,space,0.682,,,,,,,,,,,
,,,,,R_9sgKSTA7AGzLcUo,001,2025-08-24_19h32.44.756,continuous_performance_test,2024.2.4,MacIntel,29.41176471,208.119,210.049,space,1,0,11,11,12,1,M,space,0.394,,,,,,,,,,,
,,,,,R_9sgKSTA7AGzLcUo,001,2025-08-24_19h32.44.756,continuous_performance_test,2024.2.4,MacIntel,29.41176471,210.052,212.049,space,0,0,12,12,27,1,X,,0.447,,,,,,,,,,,
,,,,,R_9sgKSTA7AGzLcUo,001,2025-08-24_19h32.44.756,continuous_performance_test,2024.2.4,MacIntel,29.41176471,212.052,213.883,space,1,0,13,13,5,1,F,space,0.228,,,,,,,,,,,
,,,,,R_9sgKSTA7AGzLcUo,001,2025-08-24_19h32.44.756,continuous_performance_test,2024.2.4,MacIntel,29.41176471,213.886,215.882,space,1,0,14,14,0,1,A,space,0.447,,,,,,,,,,,
,,,,,R_9sgKSTA7AGzLcUo,001,2025-08-24_19h32.44.756,continuous_performance_test,2024.2.4,MacIntel,29.41176471,215.886,217.716,space,1,0,15,15,17,1,R,space,0.354,,,,,,,,,,,
,,,,,R_9sgKSTA7AGzLcUo,001,2025-08-24_19h32.44.756,continuous_performance_test,2024.2.4,MacIntel,29.41176471,217.719,219.649,space,1,0,16,16,20,1,U,space,0.145,,,,,,,,,,,
,,,,,R_9sgKSTA7AGzLcUo,001,2025-08-24_19h32.44.756,continuous_performance_test,2024.2.4,MacIntel,29.41176471,219.652,221.548,space,1,0,17,17,19,1,T,space,0.464,,,,,,,,,,,
,,,,,R_9sgKSTA7AGzLcUo,001,2025-08-24_19h32.44.756,continuous_performance_test,2024.2.4,MacIntel,29.41176471,221.551,223.483,space,1,0,18,18,3,1,D,space,0.383,,,,,,,,,,,
,,,,,R_9sgKSTA7AGzLcUo,001,2025-08-24_19h32.44.756,continuous_performance_test,2024.2.4,MacIntel,29.41176471,223.486,225.383,space,1,0,19,19,21,1,V,space,0.25,,,,,,,,,,,
,,,,,R_9sgKSTA7AGzLcUo,001,2025-08-24_19h32.44.756,continuous_performance_test,2024.2.4,MacIntel,29.41176471,225.386,227.016,space,1,0,20,20,16,1,Q,space,0.279,,,,,,,,,,,
,,,,,R_9sgKSTA7AGzLcUo,001,2025-08-24_19h32.44.756,continuous_performance_test,2024.2.4,MacIntel,29.41176471,227.019,228.916,space,1,0,21,21,6,1,G,space,0.153,,,,,,,,,,,
,,,,,R_9sgKSTA7AGzLcUo,001,2025-08-24_19h32.44.756,continuous_performance_test,2024.2.4,MacIntel,29.41176471,228.919,230.916,,0,0,22,22,9,1,J,space,,,,,,,,,,,,
,,,,,R_9sgKSTA7AGzLcUo,001,2025-08-24_19h32.44.756,continuous_performance_test,2024.2.4,MacIntel,29.41176471,230.92,232.516,space,1,0,23,23,13,1,N,space,0.098,,,,,,,,,,,
,,,,,R_9sgKSTA7AGzLcUo,001,2025-08-24_19h32.44.756,continuous_performance_test,2024.2.4,MacIntel,29.41176471,232.519,234.416,space,1,0,24,24,15,1,P,space,0.245,,,,,,,,,,,
,,,,,R_9sgKSTA7AGzLcUo,001,2025-08-24_19h32.44.756,continuous_performance_test,2024.2.4,MacIntel,29.41176471,234.42,236.15,space,1,0,25,25,7,1,H,space,0.031,,,,,,,,,,,
,,,,,R_9sgKSTA7AGzLcUo,001,2025-08-24_19h32.44.756,continuous_performance_test,2024.2.4,MacIntel,29.41176471,236.153,238.05,space,1,0,26,26,18,1,S,space,0.378,,,,,,,,,,,
,,,,,R_9sgKSTA7AGzLcUo,001,2025-08-24_19h32.44.756,continuous_performance_test,2024.2.4,MacIntel,29.41176471,238.053,239.983,space,0,0,27,27,29,1,X,,0.213,,,,,,,,,,,
,,,,,R_9sgKSTA7AGzLcUo,001,2025-08-24_19h32.44.756,continuous_performance_test,2024.2.4,MacIntel,29.41176471,239.986,241.917,,1,0,28,28,28,1,X,,,,,,,,,,,,,
,,,,,R_9sgKSTA7AGzLcUo,001,2025-08-24_19h32.44.756,continuous_performance_test,2024.2.4,MacIntel,29.41176471,241.92,243.45,space,1,0,29,29,24,1,Z,space,0.246,,,,,,,,,,,
,,,,,R_9sgKSTA7AGzLcUo,001,2025-08-24_19h32.44.756,continuous_performance_test,2024.2.4,MacIntel,29.41176471,245.257,247.084,,0,0,0,0,18,1,S,space,,,243.453,245.25,space,1.78,,,,,,
,,,,,R_9sgKSTA7AGzLcUo,001,2025-08-24_19h32.44.756,continuous_performance_test,2024.2.4,MacIntel,29.41176471,247.087,248.817,space,1,0,1,1,6,1,G,space,0.284,,,,,,,,,,,
,,,,,R_9sgKSTA7AGzLcUo,001,2025-08-24_19h32.44.756,continuous_performance_test,2024.2.4,MacIntel,29.41176471,248.82,250.45,space,1,0,2,2,16,1,Q,space,0.244,,,,,,,,,,,
,,,,,R_9sgKSTA7AGzLcUo,001,2025-08-24_19h32.44.756,continuous_performance_test,2024.2.4,MacIntel,29.41176471,250.453,252.25,,0,0,3,3,8,1,I,space,,,,,,,,,,,,
,,,,,R_9sgKSTA7AGzLcUo,001,2025-08-24_19h32.44.756,continuous_performance_test,2024.2.4,MacIntel,29.41176471,252.254,253.984,space,1,0,4,4,12,1,M,space,0.011,,,,,,,,,,,
,,,,,R_9sgKSTA7AGzLcUo,001,2025-08-24_19h32.44.756,continuous_performance_test,2024.2.4,MacIntel,29.41176471,253.987,255.684,,0,0,5,5,17,1,R,space,,,,,,,,,,,,
,,,,,R_9sgKSTA7AGzLcUo,001,2025-08-24_19h32.44.756,continuous_performance_test,2024.2.4,MacIntel,29.41176471,255.687,257.384,space,1,0,6,6,10,1,K,space,0.411,,,,,,,,,,,
,,,,,R_9sgKSTA7AGzLcUo,001,2025-08-24_19h32.44.756,continuous_performance_test,2024.2.4,MacIntel,29.41176471,257.387,259.184,space,1,0,7,7,13,1,N,space,0.277,,,,,,,,,,,
,,,,,R_9sgKSTA7AGzLcUo,001,2025-08-24_19h32.44.756,continuous_performance_test,2024.2.4,MacIntel,29.41176471,259.187,260.917,space,1,0,8,8,0,1,A,space,0.213,,,,,,,,,,,
,,,,,R_9sgKSTA7AGzLcUo,001,2025-08-24_19h32.44.756,continuous_performance_test,2024.2.4,MacIntel,29.41176471,260.92,262.551,space,1,0,9,9,19,1,T,space,0.348,,,,,,,,,,,
,,,,,R_9sgKSTA7AGzLcUo,001,2025-08-24_19h32.44.756,continuous_performance_test,2024.2.4,MacIntel,29.41176471,262.554,264.351,space,1,0,10,10,2,1,C,space,0.046,,,,,,,,,,,
,,,,,R_9sgKSTA7AGzLcUo,001,2025-08-24_19h32.44.756,continuous_performance_test,2024.2.4,MacIntel,29.41176471,264.354,266.084,space,1,0,11,11,15,1,P,space,0.246,,,,,,,,,,,
,,,,,R_9sgKSTA7AGzLcUo,001,2025-08-24_19h32.44.756,continuous_performance_test,2024.2.4,MacIntel,29.41176471,266.087,268.084,space,1,0,12,12,21,1,V,space,0.161,,,,,,,,,,,
,,,,,R_9sgKSTA7AGzLcUo,001,2025-08-24_19h32.44.756,continuous_performance_test,2024.2.4,MacIntel,29.41176471,268.087,269.884,space,1,0,13,13,24,1,Z,space,0.213,,,,,,,,,,,
,,,,,R_9sgKSTA7AGzLcUo,001,2025-08-24_19h32.44.756,continuous_performance_test,2024.2.4,MacIntel,29.41176471,269.888,271.717,,0,0,14,14,4,1,E,space,,,,,,,,,,,,
,,,,,R_9sgKSTA7AGzLcUo,001,2025-08-24_19h32.44.756,continuous_performance_test,2024.2.4,MacIntel,29.41176471,271.721,273.618,space,1,0,15,15,14,1,O,space,0.262,,,,,,,,,,,
,,,,,R_9sgKSTA7AGzLcUo,001,2025-08-24_19h32.44.756,continuous_performance_test,2024.2.4,MacIntel,29.41176471,273.621,275.25,space,1,0,16,16,7,1,H,space,0.11,,,,,,,,,,,
,,,,,R_9sgKSTA7AGzLcUo,001,2025-08-24_19h32.44.756,continuous_performance_test,2024.2.4,MacIntel,29.41176471,275.253,277.051,space,1,0,17,17,23,1,Y,space,0.129,,,,,,,,,,,
,,,,,R_9sgKSTA7AGzLcUo,001,2025-08-24_19h32.44.756,continuous_performance_test,2024.2.4,MacIntel,29.41176471,277.054,278.584,space,0,0,18,18,26,1,X,,0.146,,,,,,,,,,,
,,,,,R_9sgKSTA7AGzLcUo,001,2025-08-24_19h32.44.756,continuous_performance_test,2024.2.4,MacIntel,29.41176471,278.588,280.384,,0,0,19,19,11,1,L,space,,,,,,,,,,,,
,,,,,R_9sgKSTA7AGzLcUo,001,2025-08-24_19h32.44.756,continuous_performance_test,2024.2.4,MacIntel,29.41176471,280.388,281.985,space,1,0,20,20,5,1,F,space,0.214,,,,,,,,,,,
,,,,,R_9sgKSTA7AGzLcUo,001,2025-08-24_19h32.44.756,continuous_performance_test,2024.2.4,MacIntel,29.41176471,281.988,283.984,,1,0,21,21,28,1,X,,,,,,,,,,,,,
,,,,,R_9sgKSTA7AGzLcUo,001,2025-08-24_19h32.44.756,continuous_performance_test,2024.2.4,MacIntel,29.41176471,283.987,285.984,,0,0,22,22,1,1,B,space,,,,,,,,,,,,
,,,,,R_9sgKSTA7AGzLcUo,001,2025-08-24_19h32.44.756,continuous_performance_test,2024.2.4,MacIntel,29.41176471,285.988,287.718,space,1,0,23,23,9,1,J,space,0.226,,,,,,,,,,,
,,,,,R_9sgKSTA7AGzLcUo,001,2025-08-24_19h32.44.756,continuous_performance_test,2024.2.4,MacIntel,29.41176471,287.721,289.518,space,0,0,24,24,25,1,X,,0.455,,,,,,,,,,,
,,,,,R_9sgKSTA7AGzLcUo,001,2025-08-24_19h32.44.756,continuous_performance_test,2024.2.4,MacIntel,29.41176471,289.521,291.351,,0,0,25,25,3,1,D,space,,,,,,,,,,,,
,,,,,R_9sgKSTA7AGzLcUo,001,2025-08-24_19h32.44.756,continuous_performance_test,2024.2.4,MacIntel,29.41176471,291.355,292.885,space,0,0,26,26,29,1,X,,0.247,,,,,,,,,,,
,,,,,R_9sgKSTA7AGzLcUo,001,2025-08-24_19h32.44.756,continuous_performance_test,2024.2.4,MacIntel,29.41176471,292.888,294.718,,0,0,27,27,20,1,U,space,,,,,,,,,,,,
,,,,,R_9sgKSTA7AGzLcUo,001,2025-08-24_19h32.44.756,continuous_performance_test,2024.2.4,MacIntel,29.41176471,294.721,296.518,space,1,0,28,28,22,1,W,space,0.086,,,,,,,,,,,
,,,,,R_9sgKSTA7AGzLcUo,001,2025-08-24_19h32.44.756,continuous_performance_test,2024.2.4,MacIntel,29.41176471,296.522,298.352,space,0,0,29,29,27,1,X,,0.581,,,,,,,,,,,
,,,,,R_9sgKSTA7AGzLcUo,001,2025-08-24_19h32.44.756,continuous_performance_test,2024.2.4,MacIntel,29.41176471,301.16,302.752,,0,0,0,0,11,1,L,space,,,298.355,301.152,space,2.754,,,,,,
,,,,,R_9sgKSTA7AGzLcUo,001,2025-08-24_19h32.44.756,continuous_performance_test,2024.2.4,MacIntel,29.41176471,302.755,304.685,,0,0,1,1,22,1,W,space,,,,,,,,,,,,
,,,,,R_9sgKSTA7AGzLcUo,001,2025-08-24_19h32.44.756,continuous_performance_test,2024.2.4,MacIntel,29.41176471,304.688,306.485,,0,0,2,2,14,1,O,space,,,,,,,,,,,,
,,,,,R_9sgKSTA7AGzLcUo,001,2025-08-24_19h32.44.756,continuous_performance_test,2024.2.4,MacIntel,29.41176471,306.488,308.119,space,1,0,3,3,10,1,K,space,0.812,,,,,,,,,,,
,,,,,R_9sgKSTA7AGzLcUo,001,2025-08-24_19h32.44.756,continuous_performance_test,2024.2.4,MacIntel,29.41176471,308.122,309.919,space,0,0,4,4,25,1,X,,0.912,,,,,,,,,,,
,,,,,R_9sgKSTA7AGzLcUo,001,2025-08-24_19h32.44.756,continuous_performance_test,2024.2.4,MacIntel,29.41176471,309.922,311.819,space,1,0,5,5,3,1,D,space,0.797,,,,,,,,,,,
,,,,,R_9sgKSTA7AGzLcUo,001,2025-08-24_19h32.44.756,continuous_performance_test,2024.2.4,MacIntel,29.41176471,311.821,313.619,space,1,0,6,6,20,1,U,space,0.85,,,,,,,,,,,
,,,,,R_9sgKSTA7AGzLcUo,001,2025-08-24_19h32.44.756,continuous_performance_test,2024.2.4,MacIntel,29.41176471,313.622,315.552,space,0,0,7,7,27,1,X,,0.646,,,,,,,,,,,
,,,,,R_9sgKSTA7AGzLcUo,001,2025-08-24_19h32.44.756,continuous_performance_test,2024.2.4,MacIntel,29.41176471,315.556,317.152,space,1,0,8,8,6,1,G,space,0.847,,,,,,,,,,,
,,,,,R_9sgKSTA7AGzLcUo,001,2025-08-24_19h32.44.756,continuous_performance_test,2024.2.4,MacIntel,29.41176471,317.155,318.886,space,1,0,9,9,7,1,H,space,0.855,,,,,,,,,,,
,,,,,R_9sgKSTA7AGzLcUo,001,2025-08-24_19h32.44.756,continuous_performance_test,2024.2.4,MacIntel,29.41176471,318.889,320.586,space,1,0,10,10,0,1,A,space,0.812,,,,,,,,,,,
,,,,,R_9sgKSTA7AGzLcUo,001,2025-08-24_19h32.44.756,continuous_performance_test,2024.2.4,MacIntel,29.41176471,320.588,322.418,space,1,0,11,11,5,1,F,space,0.771,,,,,,,,,,,
,,,,,R_9sgKSTA7AGzLcUo,001,2025-08-24_19h32.44.756,continuous_performance_test,2024.2.4,MacIntel,29.41176471,322.421,324.319,,1,0,12,12,28,1,X,,,,,,,,,,,,,
,,,,,R_9sgKSTA7AGzLcUo,001,2025-08-24_19h32.44.756,continuous_performance_test,2024.2.4,MacIntel,29.41176471,324.323,325.853,,0,0,13,13,18,1,S,space,,,,,,,,,,,,
,,,,,R_9sgKSTA7AGzLcUo,001,2025-08-24_19h32.44.756,continuous_performance_test,2024.2.4,MacIntel,29.41176471,325.856,327.686,,0,0,14,14,19,1,T,space,,,,,,,,,,,,
,,,,,R_9sgKSTA7AGzLcUo,001,2025-08-24_19h32.44.756,continuous_performance_test,2024.2.4,MacIntel,29.41176471,327.689,329.519,,0,0,15,15,13,1,N,space,,,,,,,,,,,,
,,,,,R_9sgKSTA7AGzLcUo,001,2025-08-24_19h32.44.756,continuous_performance_test,2024.2.4,MacIntel,29.41176471,329.522,331.319,,0,0,16,16,9,1,J,space,,,,,,,,,,,,
,,,,,R_9sgKSTA7AGzLcUo,001,2025-08-24_19h32.44.756,continuous_performance_test,2024.2.4,MacIntel,29.41176471,331.322,333.32,,0,0,17,17,12,1,M,space,,,,,,,,,,,,
,,,,,R_9sgKSTA7AGzLcUo,001,2025-08-24_19h32.44.756,continuous_performance_test,2024.2.4,MacIntel,29.41176471,333.322,335.053,,0,0,18,18,1,1,B,space,,,,,,,,,,,,
,,,,,R_9sgKSTA7AGzLcUo,001,2025-08-24_19h32.44.756,continuous_performance_test,2024.2.4,MacIntel,29.41176471,335.056,336.586,,0,0,19,19,16,1,Q,space,,,,,,,,,,,,
,,,,,R_9sgKSTA7AGzLcUo,001,2025-08-24_19h32.44.756,continuous_performance_test,2024.2.4,MacIntel,29.41176471,336.589,338.22,,0,0,20,20,15,1,P,space,,,,,,,,,,,,
,,,,,R_9sgKSTA7AGzLcUo,001,2025-08-24_19h32.44.756,continuous_performance_test,2024.2.4,MacIntel,29.41176471,338.223,339.953,,1,0,21,21,29,1,X,,,,,,,,,,,,,
,,,,,R_9sgKSTA7AGzLcUo,001,2025-08-24_19h32.44.756,continuous_performance_test,2024.2.4,MacIntel,29.41176471,339.956,341.486,,0,0,22,22,17,1,R,space,,,,,,,,,,,,
,,,,,R_9sgKSTA7AGzLcUo,001,2025-08-24_19h32.44.756,continuous_performance_test,2024.2.4,MacIntel,29.41176471,341.49,343.386,,0,0,23,23,21,1,V,space,,,,,,,,,,,,
,,,,,R_9sgKSTA7AGzLcUo,001,2025-08-24_19h32.44.756,continuous_performance_test,2024.2.4,MacIntel,29.41176471,343.39,345.186,,1,0,24,24,26,1,X,,,,,,,,,,,,,
,,,,,R_9sgKSTA7AGzLcUo,001,2025-08-24_19h32.44.756,continuous_performance_test,2024.2.4,MacIntel,29.41176471,345.19,347.12,,0,0,25,25,4,1,E,space,,,,,,,,,,,,
,,,,,R_9sgKSTA7AGzLcUo,001,2025-08-24_19h32.44.756,continuous_performance_test,2024.2.4,MacIntel,29.41176471,347.123,349.053,,0,0,26,26,8,1,I,space,,,,,,,,,,,,
,,,,,R_9sgKSTA7AGzLcUo,001,2025-08-24_19h32.44.756,continuous_performance_test,2024.2.4,MacIntel,29.41176471,349.056,351.053,,0,0,27,27,2,1,C,space,,,,,,,,,,,,
,,,,,R_9sgKSTA7AGzLcUo,001,2025-08-24_19h32.44.756,continuous_performance_test,2024.2.4,MacIntel,29.41176471,351.056,352.587,,0,0,28,28,23,1,Y,space,,,,,,,,,,,,
,,,,,R_9sgKSTA7AGzLcUo,001,2025-08-24_19h32.44.756,continuous_performance_test,2024.2.4,MacIntel,29.41176471,352.59,354.12,,0,0,29,29,24,1,Z,space,,,,,,,,,,,,
,,,,,R_9sgKSTA7AGzLcUo,001,2025-08-24_19h32.44.756,continuous_performance_test,2024.2.4,MacIntel,29.41176471,356.427,358.42,,0,0,0,0,17,1,R,space,,,354.122,356.42,space,2.27,,,,,,
,,,,,R_9sgKSTA7AGzLcUo,001,2025-08-24_19h32.44.756,continuous_performance_test,2024.2.4,MacIntel,29.41176471,358.424,360.02,space,1,0,1,1,24,1,Z,space,0.362,,,,,,,,,,,
,,,,,R_9sgKSTA7AGzLcUo,001,2025-08-24_19h32.44.756,continuous_performance_test,2024.2.4,MacIntel,29.41176471,360.023,361.954,space,1,0,2,2,14,1,O,space,0.863,,,,,,,,,,,
,,,,,R_9sgKSTA7AGzLcUo,001,2025-08-24_19h32.44.756,continuous_performance_test,2024.2.4,MacIntel,29.41176471,361.957,363.854,space,1,0,3,3,9,1,J,space,0.894,,,,,,,,,,,
,,,,,R_9sgKSTA7AGzLcUo,001,2025-08-24_19h32.44.756,continuous_performance_test,2024.2.4,MacIntel,29.41176471,363.857,365.754,space,1,0,4,4,10,1,K,space,0.816,,,,,,,,,,,
,,,,,R_9sgKSTA7AGzLcUo,001,2025-08-24_19h32.44.756,continuous_performance_test,2024.2.4,MacIntel,29.41176471,365.756,367.687,space,1,0,5,5,12,1,M,space,0.754,,,,,,,,,,,
,,,,,R_9sgKSTA7AGzLcUo,001,2025-08-24_19h32.44.756,continuous_performance_test,2024.2.4,MacIntel,29.41176471,367.69,369.52,space,1,0,6,6,16,1,Q,space,0.853,,,,,,,,,,,
,,,,,R_9sgKSTA7AGzLcUo,001,2025-08-24_19h32.44.756,continuous_performance_test,2024.2.4,MacIntel,29.41176471,369.524,371.154,space,1,0,7,7,21,1,V,space,0.32,,,,,,,,,,,
,,,,,R_9sgKSTA7AGzLcUo,001,2025-08-24_19h32.44.756,continuous_performance_test,2024.2.4,MacIntel,29.41176471,371.157,372.787,,0,0,8,8,13,1,N,space,,,,,,,,,,,,
,,,,,R_9sgKSTA7AGzLcUo,001,2025-08-24_19h32.44.756,continuous_performance_test,2024.2.4,MacIntel,29.41176471,372.791,374.587,,0,0,9,9,11,1,L,space,,,,,,,,,,,,
,,,,,R_9sgKSTA7AGzLcUo,001,2025-08-24_19h32.44.756,continuous_performance_test,2024.2.4,MacIntel,29.41176471,374.59,376.587,,1,0,10,10,25,1,X,,,,,,,,,,,,,
,,,,,R_9sgKSTA7AGzLcUo,001,2025-08-24_19h32.44.756,continuous_performance_test,2024.2.4,MacIntel,29.41176471,376.591,378.288,,0,0,11,11,0,1,A,space,,,,,,,,,,,,
,,,,,R_9sgKSTA7AGzLcUo,001,2025-08-24_19h32.44.756,continuous_performance_test,2024.2.4,MacIntel,29.41176471,378.291,380.187,,1,0,12,12,28,1,X,,,,,,,,,,,,,
,,,,,R_9sgKSTA7AGzLcUo,001,2025-08-24_19h32.44.756,continuous_performance_test,2024.2.4,MacIntel,29.41176471,380.19,382.088,,0,0,13,13,3,1,D,space,,,,,,,,,,,,
,,,,,R_9sgKSTA7AGzLcUo,001,2025-08-24_19h32.44.756,continuous_performance_test,2024.2.4,MacIntel,29.41176471,382.091,383.788,,0,0,14,14,6,1,G,space,,,,,,,,,,,,
,,,,,R_9sgKSTA7AGzLcUo,001,2025-08-24_19h32.44.756,continuous_performance_test,2024.2.4,MacIntel,29.41176471,383.791,385.388,,1,0,15,15,27,1,X,,,,,,,,,,,,,
,,,,,R_9sgKSTA7AGzLcUo,001,2025-08-24_19h32.44.756,continuous_performance_test,2024.2.4,MacIntel,29.41176471,385.391,387.088,,0,0,16,16,4,1,E,space,,,,,,,,,,,,
,,,,,R_9sgKSTA7AGzLcUo,001,2025-08-24_19h32.44.756,continuous_performance_test,2024.2.4,MacIntel,29.41176471,387.091,388.921,,0,0,17,17,8,1,I,space,,,,,,,,,,,,
,,,,,R_9sgKSTA7AGzLcUo,001,2025-08-24_19h32.44.756,continuous_performance_test,2024.2.4,MacIntel,29.41176471,388.925,390.921,,0,0,18,18,15,1,P,space,,,,,,,,,,,,
,,,,,R_9sgKSTA7AGzLcUo,001,2025-08-24_19h32.44.756,continuous_performance_test,2024.2.4,MacIntel,29.41176471,390.925,392.621,,0,0,19,19,22,1,W,space,,,,,,,,,,,,
,,,,,R_9sgKSTA7AGzLcUo,001,2025-08-24_19h32.44.756,continuous_performance_test,2024.2.4,MacIntel,29.41176471,392.625,394.455,,0,0,20,20,20,1,U,space,,,,,,,,,,,,
,,,,,R_9sgKSTA7AGzLcUo,001,2025-08-24_19h32.44.756,continuous_performance_test,2024.2.4,MacIntel,29.41176471,394.458,395.988,,0,0,21,21,1,1,B,space,,,,,,,,,,,,
,,,,,R_9sgKSTA7AGzLcUo,001,2025-08-24_19h32.44.756,continuous_performance_test,2024.2.4,MacIntel,29.41176471,395.992,397.988,,0,0,22,22,2,1,C,space,,,,,,,,,,,,
,,,,,R_9sgKSTA7AGzLcUo,001,2025-08-24_19h32.44.756,continuous_performance_test,2024.2.4,MacIntel,29.41176471,397.991,399.722,,1,0,23,23,26,1,X,,,,,,,,,,,,,
,,,,,R_9sgKSTA7AGzLcUo,001,2025-08-24_19h32.44.756,continuous_performance_test,2024.2.4,MacIntel,29.41176471,399.725,401.521,,0,0,24,24,7,1,H,space,,,,,,,,,,,,
,,,,,R_9sgKSTA7AGzLcUo,001,2025-08-24_19h32.44.756,continuous_performance_test,2024.2.4,MacIntel,29.41176471,401.525,403.222,,0,0,25,25,19,1,T,space,,,,,,,,,,,,
,,,,,R_9sgKSTA7AGzLcUo,001,2025-08-24_19h32.44.756,continuous_performance_test,2024.2.4,MacIntel,29.41176471,403.225,404.755,,0,0,26,26,5,1,F,space,,,,,,,,,,,,
,,,,,R_9sgKSTA7AGzLcUo,001,2025-08-24_19h32.44.756,continuous_performance_test,2024.2.4,MacIntel,29.41176471,404.758,406.655,,0,0,27,27,18,1,S,space,,,,,,,,,,,,
,,,,,R_9sgKSTA7AGzLcUo,001,2025-08-24_19h32.44.756,continuous_performance_test,2024.2.4,MacIntel,29.41176471,406.659,408.188,,1,0,28,28,29,1,X,,,,,,,,,,,,,
,,,,,R_9sgKSTA7AGzLcUo,001,2025-08-24_19h32.44.756,continuous_performance_test,2024.2.4,MacIntel,29.41176471,408.191,410.122,,0,0,29,29,23,1,Y,space,,,,,,,,,,,,
,,,,,R_9sgKSTA7AGzLcUo,001,2025-08-24_19h32.44.756,continuous_performance_test,2024.2.4,MacIntel,29.41176471,417.728,419.622,,1,0,0,0,28,1,X,,,,410.125,417.722,space,7.576,,,,,,
,,,,,R_9sgKSTA7AGzLcUo,001,2025-08-24_19h32.44.756,continuous_performance_test,2024.2.4,MacIntel,29.41176471,419.626,421.155,,0,0,1,1,8,1,I,space,,,,,,,,,,,,
,,,,,R_9sgKSTA7AGzLcUo,001,2025-08-24_19h32.44.756,continuous_performance_test,2024.2.4,MacIntel,29.41176471,421.159,422.756,space,1,0,2,2,12,1,M,space,0.899,,,,,,,,,,,
,,,,,R_9sgKSTA7AGzLcUo,001,2025-08-24_19h32.44.756,continuous_performance_test,2024.2.4,MacIntel,29.41176471,422.759,424.589,space,0,0,3,3,26,1,X,,0.746,,,,,,,,,,,
,,,,,R_9sgKSTA7AGzLcUo,001,2025-08-24_19h32.44.756,continuous_performance_test,2024.2.4,MacIntel,29.41176471,424.591,426.322,space,1,0,4,4,15,1,P,space,0.8,,,,,,,,,,,
,,,,,R_9sgKSTA7AGzLcUo,001,2025-08-24_19h32.44.756,continuous_performance_test,2024.2.4,MacIntel,29.41176471,426.326,428.156,space,1,0,5,5,1,1,B,space,0.761,,,,,,,,,,,
,,,,,R_9sgKSTA7AGzLcUo,001,2025-08-24_19h32.44.756,continuous_performance_test,2024.2.4,MacIntel,29.41176471,428.165,429.856,space,1,0,6,6,10,1,K,space,0.811,,,,,,,,,,,
,,,,,R_9sgKSTA7AGzLcUo,001,2025-08-24_19h32.44.756,continuous_performance_test,2024.2.4,MacIntel,29.41176471,429.859,431.756,space,1,0,7,7,22,1,W,space,0.846,,,,,,,,,,,
,,,,,R_9sgKSTA7AGzLcUo,001,2025-08-24_19h32.44.756,continuous_performance_test,2024.2.4,MacIntel,29.41176471,431.759,433.456,space,1,0,8,8,5,1,F,space,0.747,,,,,,,,,,,
,,,,,R_9sgKSTA7AGzLcUo,001,2025-08-24_19h32.44.756,continuous_performance_test,2024.2.4,MacIntel,29.41176471,433.46,435.356,space,0,0,9,9,27,1,X,,0.846,,,,,,,,,,,
,,,,,R_9sgKSTA7AGzLcUo,001,2025-08-24_19h32.44.756,continuous_performance_test,2024.2.4,MacIntel,29.41176471,435.359,437.289,space,1,0,10,10,19,1,T,space,0.746,,,,,,,,,,,
,,,,,R_9sgKSTA7AGzLcUo,001,2025-08-24_19h32.44.756,continuous_performance_test,2024.2.4,MacIntel,29.41176471,437.293,438.989,space,1,0,11,11,14,1,O,space,0.747,,,,,,,,,,,
,,,,,R_9sgKSTA7AGzLcUo,001,2025-08-24_19h32.44.756,continuous_performance_test,2024.2.4,MacIntel,29.41176471,438.993,440.689,,0,0,12,12,7,1,H,space,,,,,,,,,,,,
,,,,,R_9sgKSTA7AGzLcUo,001,2025-08-24_19h32.44.756,continuous_performance_test,2024.2.4,MacIntel,29.41176471,440.692,442.223,,0,0,13,13,0,1,A,space,,,,,,,,,,,,
,,,,,R_9sgKSTA7AGzLcUo,001,2025-08-24_19h32.44.756,continuous_performance_test,2024.2.4,MacIntel,29.41176471,442.226,443.756,,0,0,14,14,20,1,U,space,,,,,,,,,,,,
,,,,,R_9sgKSTA7AGzLcUo,001,2025-08-24_19h32.44.756,continuous_performance_test,2024.2.4,MacIntel,29.41176471,443.759,445.756,,1,0,15,15,25,1,X,,,,,,,,,,,,,
,,,,,R_9sgKSTA7AGzLcUo,001,2025-08-24_19h32.44.756,continuous_performance_test,2024.2.4,MacIntel,29.41176471,445.759,447.756,,0,0,16,16,24,1,Z,space,,,,,,,,,,,,
,,,,,R_9sgKSTA7AGzLcUo,001,2025-08-24_19h32.44.756,continuous_performance_test,2024.2.4,MacIntel,29.41176471,447.759,449.49,,0,0,17,17,3,1,D,space,,,,,,,,,,,,
,,,,,R_9sgKSTA7AGzLcUo,001,2025-08-24_19h32.44.756,continuous_performance_test,2024.2.4,MacIntel,29.41176471,449.493,451.09,,0,0,18,18,4,1,E,space,,,,,,,,,,,,
,,,,,R_9sgKSTA7AGzLcUo,001,2025-08-24_19h32.44.756,continuous_performance_test,2024.2.4,MacIntel,29.41176471,451.092,453.09,,0,0,19,19,9,1,J,space,,,,,,,,,,,,
,,,,,R_9sgKSTA7AGzLcUo,001,2025-08-24_19h32.44.756,continuous_performance_test,2024.2.4,MacIntel,29.41176471,453.093,455.089,,0,0,20,20,21,1,V,space,,,,,,,,,,,,
,,,,,R_9sgKSTA7AGzLcUo,001,2025-08-24_19h32.44.756,continuous_performance_test,2024.2.4,MacIntel,29.41176471,455.093,456.823,,0,0,21,21,13,1,N,space,,,,,,,,,,,,
,,,,,R_9sgKSTA7AGzLcUo,001,2025-08-24_19h32.44.756,continuous_performance_test,2024.2.4,MacIntel,29.41176471,456.826,458.523,,0,0,22,22,18,1,S,space,,,,,,,,,,,,
,,,,,R_9sgKSTA7AGzLcUo,001,2025-08-24_19h32.44.756,continuous_performance_test,2024.2.4,MacIntel,29.41176471,458.527,460.357,,0,0,23,23,2,1,C,space,,,,,,,,,,,,
,,,,,R_9sgKSTA7AGzLcUo,001,2025-08-24_19h32.44.756,continuous_performance_test,2024.2.4,MacIntel,29.41176471,460.36,462.29,,0,0,24,24,17,1,R,space,,,,,,,,,,,,
,,,,,R_9sgKSTA7AGzLcUo,001,2025-08-24_19h32.44.756,continuous_performance_test,2024.2.4,MacIntel,29.41176471,462.293,463.89,,0,0,25,25,23,1,Y,space,,,,,,,,,,,,
,,,,,R_9sgKSTA7AGzLcUo,001,2025-08-24_19h32.44.756,continuous_performance_test,2024.2.4,MacIntel,29.41176471,463.893,465.69,,0,0,26,26,16,1,Q,space,,,,,,,,,,,,
,,,,,R_9sgKSTA7AGzLcUo,001,2025-08-24_19h32.44.756,continuous_performance_test,2024.2.4,MacIntel,29.41176471,465.694,467.39,,0,0,27,27,6,1,G,space,,,,,,,,,,,,
,,,,,R_9sgKSTA7AGzLcUo,001,2025-08-24_19h32.44.756,continuous_performance_test,2024.2.4,MacIntel,29.41176471,467.394,469.324,,1,0,28,28,29,1,X,,,,,,,,,,,,,
,,,,,R_9sgKSTA7AGzLcUo,001,2025-08-24_19h32.44.756,continuous_performance_test,2024.2.4,MacIntel,29.41176471,469.327,471.024,,0,0,29,29,11,1,L,space,,,,,,,,,,,,
,,,,,R_9sgKSTA7AGzLcUo,001,2025-08-24_19h32.44.756,continuous_performance_test,2024.2.4,MacIntel,29.41176471,473.23,474.757,,0,0,0,0,4,1,E,space,,,471.027,473.224,space,2.177,,,,,,
,,,,,R_9sgKSTA7AGzLcUo,001,2025-08-24_19h32.44.756,continuous_performance_test,2024.2.4,MacIntel,29.41176471,474.76,476.291,space,1,0,1,1,6,1,G,space,0.91,,,,,,,,,,,
,,,,,R_9sgKSTA7AGzLcUo,001,2025-08-24_19h32.44.756,continuous_performance_test,2024.2.4,MacIntel,29.41176471,476.294,477.824,space,1,0,2,2,13,1,N,space,0.762,,,,,,,,,,,
,,,,,R_9sgKSTA7AGzLcUo,001,2025-08-24_19h32.44.756,continuous_performance_test,2024.2.4,MacIntel,29.41176471,477.827,479.357,space,1,0,3,3,18,1,S,space,0.881,,,,,,,,,,,
,,,,,R_9sgKSTA7AGzLcUo,001,2025-08-24_19h32.44.756,continuous_performance_test,2024.2.4,MacIntel,29.41176471,479.36,481.258,space,1,0,4,4,7,1,H,space,0.819,,,,,,,,,,,
,,,,,R_9sgKSTA7AGzLcUo,001,2025-08-24_19h32.44.756,continuous_performance_test,2024.2.4,MacIntel,29.41176471,481.26,482.858,space,1,0,5,5,21,1,V,space,0.862,,,,,,,,,,,
,,,,,R_9sgKSTA7AGzLcUo,001,2025-08-24_19h32.44.756,continuous_performance_test,2024.2.4,MacIntel,29.41176471,482.861,484.758,space,0,0,6,6,25,1,X,,0.901,,,,,,,,,,,
,,,,,R_9sgKSTA7AGzLcUo,001,2025-08-24_19h32.44.756,continuous_performance_test,2024.2.4,MacIntel,29.41176471,484.76,486.758,space,0,0,7,7,26,1,X,,0.903,,,,,,,,,,,
,,,,,R_9sgKSTA7AGzLcUo,001,2025-08-24_19h32.44.756,continuous_performance_test,2024.2.4,MacIntel,29.41176471,486.761,488.458,space,1,0,8,8,17,1,R,space,0.762,,,,,,,,,,,
,,,,,R_9sgKSTA7AGzLcUo,001,2025-08-24_19h32.44.756,continuous_performance_test,2024.2.4,MacIntel,29.41176471,488.461,490.058,space,1,0,9,9,14,1,O,space,0.894,,,,,,,,,,,
,,,,,R_9sgKSTA7AGzLcUo,001,2025-08-24_19h32.44.756,continuous_performance_test,2024.2.4,MacIntel,29.41176471,490.061,491.858,space,1,0,10,10,23,1,Y,space,0.847,,,,,,,,,,,
,,,,,R_9sgKSTA7AGzLcUo,001,2025-08-24_19h32.44.756,continuous_performance_test,2024.2.4,MacIntel,29.41176471,491.861,493.758,,1,0,11,11,28,1,X,,,,,,,,,,,,,
,,,,,R_9sgKSTA7AGzLcUo,001,2025-08-24_19h32.44.756,continuous_performance_test,2024.2.4,MacIntel,29.41176471,493.761,495.758,,0,0,12,12,20,1,U,space,,,,,,,,,,,,
,,,,,R_9sgKSTA7AGzLcUo,001,2025-08-24_19h32.44.756,continuous_performance_test,2024.2.4,MacIntel,29.41176471,495.761,497.391,,0,0,13,13,24,1,Z,space,,,,,,,,,,,,
,,,,,R_9sgKSTA7AGzLcUo,001,2025-08-24_19h32.44.756,continuous_performance_test,2024.2.4,MacIntel,29.41176471,497.395,498.991,,0,0,14,14,19,1,T,space,,,,,,,,,,,,
,,,,,R_9sgKSTA7AGzLcUo,001,2025-08-24_19h32.44.756,continuous_performance_test,2024.2.4,MacIntel,29.41176471,498.994,500.625,,0,0,15,15,0,1,A,space,,,,,,,,,,,,
,,,,,R_9sgKSTA7AGzLcUo,001,2025-08-24_19h32.44.756,continuous_performance_test,2024.2.4,MacIntel,29.41176471,500.628,502.458,,0,0,16,16,1,1,B,space,,,,,,,,,,,,
,,,,,R_9sgKSTA7AGzLcUo,001,2025-08-24_19h32.44.756,continuous_performance_test,2024.2.4,MacIntel,29.41176471,502.462,504.292,,0,0,17,17,22,1,W,space,,,,,,,,,,,,
,,,,,R_9sgKSTA7AGzLcUo,001,2025-08-24_19h32.44.756,continuous_performance_test,2024.2.4,MacIntel,29.41176471,504.294,506.091,,0,0,18,18,11,1,L,space,,,,,,,,,,,,
,,,,,R_9sgKSTA7AGzLcUo,001,2025-08-24_19h32.44.756,continuous_performance_test,2024.2.4,MacIntel,29.41176471,506.094,507.625,,0,0,19,19,12,1,M,space,,,,,,,,,,,,
,,,,,R_9sgKSTA7AGzLcUo,001,2025-08-24_19h32.44.756,continuous_performance_test,2024.2.4,MacIntel,29.41176471,507.628,509.358,,0,0,20,20,15,1,P,space,,,,,,,,,,,,
,,,,,R_9sgKSTA7AGzLcUo,001,2025-08-24_19h32.44.756,continuous_performance_test,2024.2.4,MacIntel,29.41176471,509.361,510.892,,0,0,21,21,16,1,Q,space,,,,,,,,,,,,
,,,,,R_9sgKSTA7AGzLcUo,001,2025-08-24_19h32.44.756,continuous_performance_test,2024.2.4,MacIntel,29.41176471,510.895,512.725,,1,0,22,22,27,1,X,,,,,,,,,,,,,
,,,,,R_9sgKSTA7AGzLcUo,001,2025-08-24_19h32.44.756,continuous_performance_test,2024.2.4,MacIntel,29.41176471,512.729,514.659,,0,0,23,23,2,1,C,space,,,,,,,,,,,,
,,,,,R_9sgKSTA7AGzLcUo,001,2025-08-24_19h32.44.756,continuous_performance_test,2024.2.4,MacIntel,29.41176471,514.662,516.192,,0,0,24,24,8,1,I,space,,,,,,,,,,,,
,,,,,R_9sgKSTA7AGzLcUo,001,2025-08-24_19h32.44.756,continuous_performance_test,2024.2.4,MacIntel,29.41176471,516.195,517.792,,0,0,25,25,3,1,D,space,,,,,,,,,,,,
,,,,,R_9sgKSTA7AGzLcUo,001,2025-08-24_19h32.44.756,continuous_performance_test,2024.2.4,MacIntel,29.41176471,517.795,519.392,,0,0,26,26,5,1,F,space,,,,,,,,,,,,
,,,,,R_9sgKSTA7AGzLcUo,001,2025-08-24_19h32.44.756,continuous_performance_test,2024.2.4,MacIntel,29.41176471,519.395,521.125,,1,0,27,27,29,1,X,,,,,,,,,,,,,
,,,,,R_9sgKSTA7AGzLcUo,001,2025-08-24_19h32.44.756,continuous_performance_test,2024.2.4,MacIntel,29.41176471,521.129,522.725,,0,0,28,28,10,1,K,space,,,,,,,,,,,,
,,,,,R_9sgKSTA7AGzLcUo,001,2025-08-24_19h32.44.756,continuous_performance_test,2024.2.4,MacIntel,29.41176471,522.729,524.326,,0,0,29,29,9,1,J,space,,,,,,,,,,,,
,,,,,R_9sgKSTA7AGzLcUo,001,2025-08-24_19h32.44.756,continuous_performance_test,2024.2.4,MacIntel,29.41176471,529.799,531.592,,0,0,0,0,18,1,S,space,,,524.328,529.792,space,5.437,,,,,,
,,,,,R_9sgKSTA7AGzLcUo,001,2025-08-24_19h32.44.756,continuous_performance_test,2024.2.4,MacIntel,29.41176471,531.595,533.325,,0,0,1,1,9,1,J,space,,,,,,,,,,,,
,,,,,R_9sgKSTA7AGzLcUo,001,2025-08-24_19h32.44.756,continuous_performance_test,2024.2.4,MacIntel,29.41176471,533.328,535.325,,1,0,2,2,27,1,X,,,,,,,,,,,,,
,,,,,R_9sgKSTA7AGzLcUo,001,2025-08-24_19h32.44.756,continuous_performance_test,2024.2.4,MacIntel,29.41176471,535.328,537.159,space,0,0,3,3,29,1,X,,0.74,,,,,,,,,,,
,,,,,R_9sgKSTA7AGzLcUo,001,2025-08-24_19h32.44.756,continuous_performance_test,2024.2.4,MacIntel,29.41176471,537.163,538.792,space,1,0,4,4,2,1,C,space,0.807,,,,,,,,,,,
,,,,,R_9sgKSTA7AGzLcUo,001,2025-08-24_19h32.44.756,continuous_performance_test,2024.2.4,MacIntel,29.41176471,538.795,540.326,space,1,0,5,5,21,1,V,space,0.655,,,,,,,,,,,
,,,,,R_9sgKSTA7AGzLcUo,001,2025-08-24_19h32.44.756,continuous_performance_test,2024.2.4,MacIntel,29.41176471,540.329,541.859,space,1,0,6,6,13,1,N,space,0.818,,,,,,,,,,,
,,,,,R_9sgKSTA7AGzLcUo,001,2025-08-24_19h32.44.756,continuous_performance_test,2024.2.4,MacIntel,29.41176471,541.862,543.859,space,1,0,7,7,23,1,Y,space,0.795,,,,,,,,,,,
,,,,,R_9sgKSTA7AGzLcUo,001,2025-08-24_19h32.44.756,continuous_performance_test,2024.2.4,MacIntel,29.41176471,543.862,545.793,space,1,0,8,8,17,1,R,space,0.73,,,,,,,,,,,
,,,,,R_9sgKSTA7AGzLcUo,001,2025-08-24_19h32.44.756,continuous_performance_test,2024.2.4,MacIntel,29.41176471,545.796,547.793,space,1,0,9,9,12,1,M,space,0.745,,,,,,,,,,,
,,,,,R_9sgKSTA7AGzLcUo,001,2025-08-24_19h32.44.756,continuous_performance_test,2024.2.4,MacIntel,29.41176471,547.796,549.726,space,1,0,10,10,16,1,Q,space,0.698,,,,,,,,,,,
,,,,,R_9sgKSTA7AGzLcUo,001,2025-08-24_19h32.44.756,continuous_performance_test,2024.2.4,MacIntel,29.41176471,549.729,551.726,space,1,0,11,11,1,1,B,space,0.816,,,,,,,,,,,
,,,,,R_9sgKSTA7AGzLcUo,001,2025-08-24_19h32.44.756,continuous_performance_test,2024.2.4,MacIntel,29.41176471,551.73,553.659,space,1,0,12,12,8,1,I,space,0.683,,,,,,,,,,,
,,,,,R_9sgKSTA7AGzLcUo,001,2025-08-24_19h32.44.756,continuous_performance_test,2024.2.4,MacIntel,29.41176471,553.662,555.393,space,1,0,13,13,15,1,P,space,0.847,,,,,,,,,,,
,,,,,R_9sgKSTA7AGzLcUo,001,2025-08-24_19h32.44.756,continuous_performance_test,2024.2.4,MacIntel,29.41176471,555.396,557.126,space,1,0,14,14,24,1,Z,space,0.863,,,,,,,,,,,
,,,,,R_9sgKSTA7AGzLcUo,001,2025-08-24_19h32.44.756,continuous_performance_test,2024.2.4,MacIntel,29.41176471,557.13,558.727,space,0,0,15,15,28,1,X,,0.745,,,,,,,,,,,
,,,,,R_9sgKSTA7AGzLcUo,001,2025-08-24_19h32.44.756,continuous_performance_test,2024.2.4,MacIntel,29.41176471,558.73,560.36,space,1,0,16,16,20,1,U,space,0.681,,,,,,,,,,,
,,,,,R_9sgKSTA7AGzLcUo,001,2025-08-24_19h32.44.756,continuous_performance_test,2024.2.4,MacIntel,29.41176471,560.363,562.16,space,1,0,17,17,19,1,T,space,0.696,,,,,,,,,,,
,,,,,R_9sgKSTA7AGzLcUo,001,2025-08-24_19h32.44.756,continuous_performance_test,2024.2.4,MacIntel,29.41176471,562.163,563.76,space,1,0,18,18,11,1,L,space,0.727,,,,,,,,,,,
,,,,,R_9sgKSTA7AGzLcUo,001,2025-08-24_19h32.44.756,continuous_performance_test,2024.2.4,MacIntel,29.41176471,563.762,565.56,space,1,0,19,19,10,1,K,space,0.914,,,,,,,,,,,
,,,,,R_9sgKSTA7AGzLcUo,001,2025-08-24_19h32.44.756,continuous_performance_test,2024.2.4,MacIntel,29.41176471,565.563,567.46,,0,0,20,20,5,1,F,space,,,,,,,,,,,,
,,,,,R_9sgKSTA7AGzLcUo,001,2025-08-24_19h32.44.756,continuous_performance_test,2024.2.4,MacIntel,29.41176471,567.463,569.26,,0,0,21,21,3,1,D,space,,,,,,,,,,,,
,,,,,R_9sgKSTA7AGzLcUo,001,2025-08-24_19h32.44.756,continuous_performance_test,2024.2.4,MacIntel,29.41176471,569.263,570.86,,0,0,22,22,7,1,H,space,,,,,,,,,,,,
,,,,,R_9sgKSTA7AGzLcUo,001,2025-08-24_19h32.44.756,continuous_performance_test,2024.2.4,MacIntel,29.41176471,570.863,572.76,,0,0,23,23,0,1,A,space,,,,,,,,,,,,
,,,,,R_9sgKSTA7AGzLcUo,001,2025-08-24_19h32.44.756,continuous_performance_test,2024.2.4,MacIntel,29.41176471,572.763,574.394,,1,0,24,24,25,1,X,,,,,,,,,,,,,
,,,,,R_9sgKSTA7AGzLcUo,001,2025-08-24_19h32.44.756,continuous_performance_test,2024.2.4,MacIntel,29.41176471,574.397,576.194,,0,0,25,25,4,1,E,space,,,,,,,,,,,,
,,,,,R_9sgKSTA7AGzLcUo,001,2025-08-24_19h32.44.756,continuous_performance_test,2024.2.4,MacIntel,29.41176471,576.197,578.127,,0,0,26,26,6,1,G,space,,,,,,,,,,,,
,,,,,R_9sgKSTA7AGzLcUo,001,2025-08-24_19h32.44.756,continuous_performance_test,2024.2.4,MacIntel,29.41176471,578.131,579.861,,0,0,27,27,22,1,W,space,,,,,,,,,,,,
,,,,,R_9sgKSTA7AGzLcUo,001,2025-08-24_19h32.44.756,continuous_performance_test,2024.2.4,MacIntel,29.41176471,579.863,581.761,,0,0,28,28,14,1,O,space,,,,,,,,,,,,
,,,,,R_9sgKSTA7AGzLcUo,001,2025-08-24_19h32.44.756,continuous_performance_test,2024.2.4,MacIntel,29.41176471,581.764,583.361,,1,0,29,29,26,1,X,,,,,,,,,,,,,
,,,,,R_9sgKSTA7AGzLcUo,001,2025-08-24_19h32.44.756,continuous_performance_test,2024.2.4,MacIntel,29.41176471,,,,,,,,,,,,,,583.364,583.368,,,,583.369,596.961,space,13.572,
