Instructions.started,Instructions.stopped,key_resp.keys,key_resp.rt,key_resp.duration,participant,session,date,expName,psychopyVersion,OS,frameRate,realeye-tester-id,realeye-tester-quality_grade,Trial_noX.started,Trial_noX.stopped,response.keys,response.corr,trials_noX.thisRepN,trials_noX.thisTrialN,trials_noX.thisN,trials_noX.thisIndex,trials_noX.ran,letter,corrAns,response.rt,response.duration,BlockBreak.started,BlockBreak.stopped,key_instruct.keys,key_instruct.rt,key_instruct.duration,End_NoX.started,End_NoX.stopped,key_resp_end_noX.keys,key_resp_end_noX.rt,key_resp_end_noX.duration
0.0003,12.1008,space,12.0785,,R_9uD6qGqxcVynfWM,001,2025-09-13_13h18.55.705,continuous_performance_test,2024.2.4,Win32,59.88023952,ecd45762-a3de-4113-9259-7b2b602ebbc1,5,,,,,,,,,,,,,,,,,,,,,,,
,,,,,R_9uD6qGqxcVynfWM,001,2025-09-13_13h18.55.705,continuous_performance_test,2024.2.4,Win32,59.88023952,ecd45762-a3de-4113-9259-7b2b602ebbc1,5,12.1176,14.1186,,1,0,0,0,28,1,X,,,,,,,,,,,,,
,,,,,R_9uD6qGqxcVynfWM,001,2025-09-13_13h18.55.705,continuous_performance_test,2024.2.4,Win32,59.88023952,ecd45762-a3de-4113-9259-7b2b602ebbc1,5,14.1215,15.9685,space,1,0,1,1,15,1,P,space,0.4031,,,,,,,,,,,
,,,,,R_9uD6qGqxcVynfWM,001,2025-09-13_13h18.55.705,continuous_performance_test,2024.2.4,Win32,59.88023952,ecd45762-a3de-4113-9259-7b2b602ebbc1,5,15.9704,17.6697,,1,0,2,2,29,1,X,,,,,,,,,,,,,
,,,,,R_9uD6qGqxcVynfWM,001,2025-09-13_13h18.55.705,continuous_performance_test,2024.2.4,Win32,59.88023952,ecd45762-a3de-4113-9259-7b2b602ebbc1,5,17.6726,19.2198,space,1,0,3,3,2,1,C,space,0.2843,,,,,,,,,,,
,,,,,R_9uD6qGqxcVynfWM,001,2025-09-13_13h18.55.705,continuous_performance_test,2024.2.4,Win32,59.88023952,ecd45762-a3de-4113-9259-7b2b602ebbc1,5,19.2226,21.1206,space,1,0,4,4,24,1,Z,space,0.2645,,,,,,,,,,,
,,,,,R_9uD6qGqxcVynfWM,001,2025-09-13_13h18.55.705,continuous_performance_test,2024.2.4,Win32,59.88023952,ecd45762-a3de-4113-9259-7b2b602ebbc1,5,21.1229,23.0711,space,1,0,5,5,22,1,W,space,0.3363,,,,,,,,,,,
,,,,,R_9uD6qGqxcVynfWM,001,2025-09-13_13h18.55.705,continuous_performance_test,2024.2.4,Win32,59.88023952,ecd45762-a3de-4113-9259-7b2b602ebbc1,5,23.0736,24.7219,space,1,0,6,6,17,1,R,space,0.2877,,,,,,,,,,,
,,,,,R_9uD6qGqxcVynfWM,001,2025-09-13_13h18.55.705,continuous_performance_test,2024.2.4,Win32,59.88023952,ecd45762-a3de-4113-9259-7b2b602ebbc1,5,24.7246,26.3726,space,1,0,7,7,14,1,O,space,0.4342,,,,,,,,,,,
,,,,,R_9uD6qGqxcVynfWM,001,2025-09-13_13h18.55.705,continuous_performance_test,2024.2.4,Win32,59.88023952,ecd45762-a3de-4113-9259-7b2b602ebbc1,5,26.3748,28.1747,space,1,0,8,8,21,1,V,space,0.2448,,,,,,,,,,,
,,,,,R_9uD6qGqxcVynfWM,001,2025-09-13_13h18.55.705,continuous_performance_test,2024.2.4,Win32,59.88023952,ecd45762-a3de-4113-9259-7b2b602ebbc1,5,28.1764,29.7742,space,1,0,9,9,12,1,M,space,0.2674,,,,,,,,,,,
,,,,,R_9uD6qGqxcVynfWM,001,2025-09-13_13h18.55.705,continuous_performance_test,2024.2.4,Win32,59.88023952,ecd45762-a3de-4113-9259-7b2b602ebbc1,5,29.7767,31.7249,space,1,0,10,10,9,1,J,space,0.3181,,,,,,,,,,,
,,,,,R_9uD6qGqxcVynfWM,001,2025-09-13_13h18.55.705,continuous_performance_test,2024.2.4,Win32,59.88023952,ecd45762-a3de-4113-9259-7b2b602ebbc1,5,31.7269,33.2755,space,1,0,11,11,18,1,S,space,0.2723,,,,,,,,,,,
,,,,,R_9uD6qGqxcVynfWM,001,2025-09-13_13h18.55.705,continuous_performance_test,2024.2.4,Win32,59.88023952,ecd45762-a3de-4113-9259-7b2b602ebbc1,5,33.2776,35.1765,space,1,0,12,12,8,1,I,space,0.2679,,,,,,,,,,,
,,,,,R_9uD6qGqxcVynfWM,001,2025-09-13_13h18.55.705,continuous_performance_test,2024.2.4,Win32,59.88023952,ecd45762-a3de-4113-9259-7b2b602ebbc1,5,35.1792,37.13,space,1,0,13,13,10,1,K,space,0.2347,,,,,,,,,,,
,,,,,R_9uD6qGqxcVynfWM,001,2025-09-13_13h18.55.705,continuous_performance_test,2024.2.4,Win32,59.88023952,ecd45762-a3de-4113-9259-7b2b602ebbc1,5,37.1324,38.8775,space,1,0,14,14,13,1,N,space,0.2284,,,,,,,,,,,
,,,,,R_9uD6qGqxcVynfWM,001,2025-09-13_13h18.55.705,continuous_performance_test,2024.2.4,Win32,59.88023952,ecd45762-a3de-4113-9259-7b2b602ebbc1,5,38.8801,40.8287,space,1,0,15,15,11,1,L,space,0.2567,,,,,,,,,,,
,,,,,R_9uD6qGqxcVynfWM,001,2025-09-13_13h18.55.705,continuous_performance_test,2024.2.4,Win32,59.88023952,ecd45762-a3de-4113-9259-7b2b602ebbc1,5,40.8313,42.4288,space,1,0,16,16,5,1,F,space,0.2349,,,,,,,,,,,
,,,,,R_9uD6qGqxcVynfWM,001,2025-09-13_13h18.55.705,continuous_performance_test,2024.2.4,Win32,59.88023952,ecd45762-a3de-4113-9259-7b2b602ebbc1,5,42.4304,44.2298,space,0,0,17,17,26,1,X,,0.2595,,,,,,,,,,,
,,,,,R_9uD6qGqxcVynfWM,001,2025-09-13_13h18.55.705,continuous_performance_test,2024.2.4,Win32,59.88023952,ecd45762-a3de-4113-9259-7b2b602ebbc1,5,44.2318,45.981,space,1,0,18,18,23,1,Y,space,0.2377,,,,,,,,,,,
,,,,,R_9uD6qGqxcVynfWM,001,2025-09-13_13h18.55.705,continuous_performance_test,2024.2.4,Win32,59.88023952,ecd45762-a3de-4113-9259-7b2b602ebbc1,5,45.9835,47.8812,space,1,0,19,19,4,1,E,space,0.2427,,,,,,,,,,,
,,,,,R_9uD6qGqxcVynfWM,001,2025-09-13_13h18.55.705,continuous_performance_test,2024.2.4,Win32,59.88023952,ecd45762-a3de-4113-9259-7b2b602ebbc1,5,47.8842,49.7317,space,1,0,20,20,6,1,G,space,0.3078,,,,,,,,,,,
,,,,,R_9uD6qGqxcVynfWM,001,2025-09-13_13h18.55.705,continuous_performance_test,2024.2.4,Win32,59.88023952,ecd45762-a3de-4113-9259-7b2b602ebbc1,5,49.7346,51.4827,space,1,0,21,21,0,1,A,space,0.2583,,,,,,,,,,,
,,,,,R_9uD6qGqxcVynfWM,001,2025-09-13_13h18.55.705,continuous_performance_test,2024.2.4,Win32,59.88023952,ecd45762-a3de-4113-9259-7b2b602ebbc1,5,51.4856,53.3334,space,1,0,22,22,16,1,Q,space,0.3276,,,,,,,,,,,
,,,,,R_9uD6qGqxcVynfWM,001,2025-09-13_13h18.55.705,continuous_performance_test,2024.2.4,Win32,59.88023952,ecd45762-a3de-4113-9259-7b2b602ebbc1,5,53.3358,55.1338,space,1,0,23,23,3,1,D,space,0.3128,,,,,,,,,,,
,,,,,R_9uD6qGqxcVynfWM,001,2025-09-13_13h18.55.705,continuous_performance_test,2024.2.4,Win32,59.88023952,ecd45762-a3de-4113-9259-7b2b602ebbc1,5,55.1366,56.7842,space,1,0,24,24,20,1,U,space,0.304,,,,,,,,,,,
,,,,,R_9uD6qGqxcVynfWM,001,2025-09-13_13h18.55.705,continuous_performance_test,2024.2.4,Win32,59.88023952,ecd45762-a3de-4113-9259-7b2b602ebbc1,5,56.7865,58.335,space,0,0,25,25,25,1,X,,0.3338,,,,,,,,,,,
,,,,,R_9uD6qGqxcVynfWM,001,2025-09-13_13h18.55.705,continuous_performance_test,2024.2.4,Win32,59.88023952,ecd45762-a3de-4113-9259-7b2b602ebbc1,5,58.337,59.8861,space,1,0,26,26,1,1,B,space,0.2843,,,,,,,,,,,
,,,,,R_9uD6qGqxcVynfWM,001,2025-09-13_13h18.55.705,continuous_performance_test,2024.2.4,Win32,59.88023952,ecd45762-a3de-4113-9259-7b2b602ebbc1,5,59.8883,61.7868,space,1,0,27,27,19,1,T,space,0.2542,,,,,,,,,,,
,,,,,R_9uD6qGqxcVynfWM,001,2025-09-13_13h18.55.705,continuous_performance_test,2024.2.4,Win32,59.88023952,ecd45762-a3de-4113-9259-7b2b602ebbc1,5,61.7888,63.7877,,1,0,28,28,27,1,X,,,,,,,,,,,,,
,,,,,R_9uD6qGqxcVynfWM,001,2025-09-13_13h18.55.705,continuous_performance_test,2024.2.4,Win32,59.88023952,ecd45762-a3de-4113-9259-7b2b602ebbc1,5,63.7902,65.7384,space,1,0,29,29,7,1,H,space,0.2585,,,,,,,,,,,
,,,,,R_9uD6qGqxcVynfWM,001,2025-09-13_13h18.55.705,continuous_performance_test,2024.2.4,Win32,59.88023952,ecd45762-a3de-4113-9259-7b2b602ebbc1,5,70.947,72.4903,space,1,0,0,0,11,1,L,space,0.4911,,65.7396,70.9405,space,5.1682,,,,,,
,,,,,R_9uD6qGqxcVynfWM,001,2025-09-13_13h18.55.705,continuous_performance_test,2024.2.4,Win32,59.88023952,ecd45762-a3de-4113-9259-7b2b602ebbc1,5,72.4924,74.2909,,1,0,1,1,29,1,X,,,,,,,,,,,,,
,,,,,R_9uD6qGqxcVynfWM,001,2025-09-13_13h18.55.705,continuous_performance_test,2024.2.4,Win32,59.88023952,ecd45762-a3de-4113-9259-7b2b602ebbc1,5,74.2926,75.8915,space,1,0,2,2,3,1,D,space,0.3353,,,,,,,,,,,
,,,,,R_9uD6qGqxcVynfWM,001,2025-09-13_13h18.55.705,continuous_performance_test,2024.2.4,Win32,59.88023952,ecd45762-a3de-4113-9259-7b2b602ebbc1,5,75.8935,77.8424,space,1,0,3,3,6,1,G,space,0.372,,,,,,,,,,,
,,,,,R_9uD6qGqxcVynfWM,001,2025-09-13_13h18.55.705,continuous_performance_test,2024.2.4,Win32,59.88023952,ecd45762-a3de-4113-9259-7b2b602ebbc1,5,77.8443,79.3928,space,0,0,4,4,28,1,X,,0.3255,,,,,,,,,,,
,,,,,R_9uD6qGqxcVynfWM,001,2025-09-13_13h18.55.705,continuous_performance_test,2024.2.4,Win32,59.88023952,ecd45762-a3de-4113-9259-7b2b602ebbc1,5,79.3947,81.1439,space,1,0,5,5,18,1,S,space,0.2907,,,,,,,,,,,
,,,,,R_9uD6qGqxcVynfWM,001,2025-09-13_13h18.55.705,continuous_performance_test,2024.2.4,Win32,59.88023952,ecd45762-a3de-4113-9259-7b2b602ebbc1,5,81.1455,82.6942,space,1,0,6,6,24,1,Z,space,0.3918,,,,,,,,,,,
,,,,,R_9uD6qGqxcVynfWM,001,2025-09-13_13h18.55.705,continuous_performance_test,2024.2.4,Win32,59.88023952,ecd45762-a3de-4113-9259-7b2b602ebbc1,5,82.6961,84.445,space,1,0,7,7,0,1,A,space,0.2375,,,,,,,,,,,
,,,,,R_9uD6qGqxcVynfWM,001,2025-09-13_13h18.55.705,continuous_performance_test,2024.2.4,Win32,59.88023952,ecd45762-a3de-4113-9259-7b2b602ebbc1,5,84.4467,85.9957,space,1,0,8,8,7,1,H,space,0.2231,,,,,,,,,,,
,,,,,R_9uD6qGqxcVynfWM,001,2025-09-13_13h18.55.705,continuous_performance_test,2024.2.4,Win32,59.88023952,ecd45762-a3de-4113-9259-7b2b602ebbc1,5,85.9976,87.7463,space,1,0,9,9,19,1,T,space,0.2577,,,,,,,,,,,
,,,,,R_9uD6qGqxcVynfWM,001,2025-09-13_13h18.55.705,continuous_performance_test,2024.2.4,Win32,59.88023952,ecd45762-a3de-4113-9259-7b2b602ebbc1,5,87.7484,89.4969,space,1,0,10,10,23,1,Y,space,0.2453,,,,,,,,,,,
,,,,,R_9uD6qGqxcVynfWM,001,2025-09-13_13h18.55.705,continuous_performance_test,2024.2.4,Win32,59.88023952,ecd45762-a3de-4113-9259-7b2b602ebbc1,5,89.4987,91.0476,space,1,0,11,11,8,1,I,space,0.2879,,,,,,,,,,,
,,,,,R_9uD6qGqxcVynfWM,001,2025-09-13_13h18.55.705,continuous_performance_test,2024.2.4,Win32,59.88023952,ecd45762-a3de-4113-9259-7b2b602ebbc1,5,91.0497,92.7983,space,1,0,12,12,15,1,P,space,0.2503,,,,,,,,,,,
,,,,,R_9uD6qGqxcVynfWM,001,2025-09-13_13h18.55.705,continuous_performance_test,2024.2.4,Win32,59.88023952,ecd45762-a3de-4113-9259-7b2b602ebbc1,5,92.8001,94.4988,space,1,0,13,13,14,1,O,space,0.2374,,,,,,,,,,,
,,,,,R_9uD6qGqxcVynfWM,001,2025-09-13_13h18.55.705,continuous_performance_test,2024.2.4,Win32,59.88023952,ecd45762-a3de-4113-9259-7b2b602ebbc1,5,94.5005,96.0992,space,1,0,14,14,10,1,K,space,0.2344,,,,,,,,,,,
,,,,,R_9uD6qGqxcVynfWM,001,2025-09-13_13h18.55.705,continuous_performance_test,2024.2.4,Win32,59.88023952,ecd45762-a3de-4113-9259-7b2b602ebbc1,5,96.1013,97.95,space,1,0,15,15,22,1,W,space,0.2507,,,,,,,,,,,
,,,,,R_9uD6qGqxcVynfWM,001,2025-09-13_13h18.55.705,continuous_performance_test,2024.2.4,Win32,59.88023952,ecd45762-a3de-4113-9259-7b2b602ebbc1,5,97.952,99.8508,space,0,0,16,16,27,1,X,,0.2573,,,,,,,,,,,
,,,,,R_9uD6qGqxcVynfWM,001,2025-09-13_13h18.55.705,continuous_performance_test,2024.2.4,Win32,59.88023952,ecd45762-a3de-4113-9259-7b2b602ebbc1,5,99.8525,101.4018,space,1,0,17,17,5,1,F,space,0.3173,,,,,,,,,,,
,,,,,R_9uD6qGqxcVynfWM,001,2025-09-13_13h18.55.705,continuous_performance_test,2024.2.4,Win32,59.88023952,ecd45762-a3de-4113-9259-7b2b602ebbc1,5,101.4037,103.2522,space,1,0,18,18,17,1,R,space,0.284,,,,,,,,,,,
,,,,,R_9uD6qGqxcVynfWM,001,2025-09-13_13h18.55.705,continuous_performance_test,2024.2.4,Win32,59.88023952,ecd45762-a3de-4113-9259-7b2b602ebbc1,5,103.254,105.0029,space,1,0,19,19,20,1,U,space,0.2792,,,,,,,,,,,
,,,,,R_9uD6qGqxcVynfWM,001,2025-09-13_13h18.55.705,continuous_performance_test,2024.2.4,Win32,59.88023952,ecd45762-a3de-4113-9259-7b2b602ebbc1,5,105.0046,106.8535,space,1,0,20,20,4,1,E,space,0.3504,,,,,,,,,,,
,,,,,R_9uD6qGqxcVynfWM,001,2025-09-13_13h18.55.705,continuous_performance_test,2024.2.4,Win32,59.88023952,ecd45762-a3de-4113-9259-7b2b602ebbc1,5,106.8551,108.5041,space,1,0,21,21,16,1,Q,space,0.3031,,,,,,,,,,,
,,,,,R_9uD6qGqxcVynfWM,001,2025-09-13_13h18.55.705,continuous_performance_test,2024.2.4,Win32,59.88023952,ecd45762-a3de-4113-9259-7b2b602ebbc1,5,108.5059,110.505,space,1,0,22,22,21,1,V,space,0.4518,,,,,,,,,,,
,,,,,R_9uD6qGqxcVynfWM,001,2025-09-13_13h18.55.705,continuous_performance_test,2024.2.4,Win32,59.88023952,ecd45762-a3de-4113-9259-7b2b602ebbc1,5,110.507,112.1555,space,1,0,23,23,1,1,B,space,0.3711,,,,,,,,,,,
,,,,,R_9uD6qGqxcVynfWM,001,2025-09-13_13h18.55.705,continuous_performance_test,2024.2.4,Win32,59.88023952,ecd45762-a3de-4113-9259-7b2b602ebbc1,5,112.1572,113.8062,space,1,0,24,24,9,1,J,space,0.3514,,,,,,,,,,,
,,,,,R_9uD6qGqxcVynfWM,001,2025-09-13_13h18.55.705,continuous_performance_test,2024.2.4,Win32,59.88023952,ecd45762-a3de-4113-9259-7b2b602ebbc1,5,113.808,115.4069,space,1,0,25,25,13,1,N,space,0.4518,,,,,,,,,,,
,,,,,R_9uD6qGqxcVynfWM,001,2025-09-13_13h18.55.705,continuous_performance_test,2024.2.4,Win32,59.88023952,ecd45762-a3de-4113-9259-7b2b602ebbc1,5,115.4084,117.2574,space,1,0,26,26,12,1,M,space,0.4065,,,,,,,,,,,
,,,,,R_9uD6qGqxcVynfWM,001,2025-09-13_13h18.55.705,continuous_performance_test,2024.2.4,Win32,59.88023952,ecd45762-a3de-4113-9259-7b2b602ebbc1,5,117.2596,119.2083,space,1,0,27,27,2,1,C,space,0.3376,,,,,,,,,,,
,,,,,R_9uD6qGqxcVynfWM,001,2025-09-13_13h18.55.705,continuous_performance_test,2024.2.4,Win32,59.88023952,ecd45762-a3de-4113-9259-7b2b602ebbc1,5,119.2101,120.7589,,1,0,28,28,26,1,X,,,,,,,,,,,,,
,,,,,R_9uD6qGqxcVynfWM,001,2025-09-13_13h18.55.705,continuous_performance_test,2024.2.4,Win32,59.88023952,ecd45762-a3de-4113-9259-7b2b602ebbc1,5,120.7607,122.5096,,1,0,29,29,25,1,X,,,,,,,,,,,,,
,,,,,R_9uD6qGqxcVynfWM,001,2025-09-13_13h18.55.705,continuous_performance_test,2024.2.4,Win32,59.88023952,ecd45762-a3de-4113-9259-7b2b602ebbc1,5,127.2341,128.8286,space,1,0,0,0,13,1,N,space,0.4874,,122.5112,127.2284,space,4.6906,,,,,,
,,,,,R_9uD6qGqxcVynfWM,001,2025-09-13_13h18.55.705,continuous_performance_test,2024.2.4,Win32,59.88023952,ecd45762-a3de-4113-9259-7b2b602ebbc1,5,128.8307,130.7796,,1,0,1,1,27,1,X,,,,,,,,,,,,,
,,,,,R_9uD6qGqxcVynfWM,001,2025-09-13_13h18.55.705,continuous_performance_test,2024.2.4,Win32,59.88023952,ecd45762-a3de-4113-9259-7b2b602ebbc1,5,130.7812,132.3804,space,1,0,2,2,12,1,M,space,0.3052,,,,,,,,,,,
,,,,,R_9uD6qGqxcVynfWM,001,2025-09-13_13h18.55.705,continuous_performance_test,2024.2.4,Win32,59.88023952,ecd45762-a3de-4113-9259-7b2b602ebbc1,5,132.3824,134.2308,space,1,0,3,3,2,1,C,space,0.3215,,,,,,,,,,,
,,,,,R_9uD6qGqxcVynfWM,001,2025-09-13_13h18.55.705,continuous_performance_test,2024.2.4,Win32,59.88023952,ecd45762-a3de-4113-9259-7b2b602ebbc1,5,134.2325,135.9315,space,1,0,4,4,14,1,O,space,0.2688,,,,,,,,,,,
,,,,,R_9uD6qGqxcVynfWM,001,2025-09-13_13h18.55.705,continuous_performance_test,2024.2.4,Win32,59.88023952,ecd45762-a3de-4113-9259-7b2b602ebbc1,5,135.9333,137.5824,space,1,0,5,5,11,1,L,space,0.2921,,,,,,,,,,,
,,,,,R_9uD6qGqxcVynfWM,001,2025-09-13_13h18.55.705,continuous_performance_test,2024.2.4,Win32,59.88023952,ecd45762-a3de-4113-9259-7b2b602ebbc1,5,137.5845,139.5329,space,1,0,6,6,3,1,D,space,0.3124,,,,,,,,,,,
,,,,,R_9uD6qGqxcVynfWM,001,2025-09-13_13h18.55.705,continuous_performance_test,2024.2.4,Win32,59.88023952,ecd45762-a3de-4113-9259-7b2b602ebbc1,5,139.5345,141.5335,space,1,0,7,7,8,1,I,space,0.3505,,,,,,,,,,,
,,,,,R_9uD6qGqxcVynfWM,001,2025-09-13_13h18.55.705,continuous_performance_test,2024.2.4,Win32,59.88023952,ecd45762-a3de-4113-9259-7b2b602ebbc1,5,141.5351,143.2845,space,1,0,8,8,23,1,Y,space,0.3339,,,,,,,,,,,
,,,,,R_9uD6qGqxcVynfWM,001,2025-09-13_13h18.55.705,continuous_performance_test,2024.2.4,Win32,59.88023952,ecd45762-a3de-4113-9259-7b2b602ebbc1,5,143.2864,145.1849,,1,0,9,9,25,1,X,,,,,,,,,,,,,
,,,,,R_9uD6qGqxcVynfWM,001,2025-09-13_13h18.55.705,continuous_performance_test,2024.2.4,Win32,59.88023952,ecd45762-a3de-4113-9259-7b2b602ebbc1,5,145.1865,147.0357,space,0,0,10,10,26,1,X,,0.3119,,,,,,,,,,,
,,,,,R_9uD6qGqxcVynfWM,001,2025-09-13_13h18.55.705,continuous_performance_test,2024.2.4,Win32,59.88023952,ecd45762-a3de-4113-9259-7b2b602ebbc1,5,147.0376,148.9364,space,1,0,11,11,4,1,E,space,0.3702,,,,,,,,,,,
,,,,,R_9uD6qGqxcVynfWM,001,2025-09-13_13h18.55.705,continuous_performance_test,2024.2.4,Win32,59.88023952,ecd45762-a3de-4113-9259-7b2b602ebbc1,5,148.9386,150.5875,space,1,0,12,12,18,1,S,space,0.25,,,,,,,,,,,
,,,,,R_9uD6qGqxcVynfWM,001,2025-09-13_13h18.55.705,continuous_performance_test,2024.2.4,Win32,59.88023952,ecd45762-a3de-4113-9259-7b2b602ebbc1,5,150.5894,152.3877,space,1,0,13,13,0,1,A,space,0.2448,,,,,,,,,,,
,,,,,R_9uD6qGqxcVynfWM,001,2025-09-13_13h18.55.705,continuous_performance_test,2024.2.4,Win32,59.88023952,ecd45762-a3de-4113-9259-7b2b602ebbc1,5,152.3896,154.3387,space,1,0,14,14,24,1,Z,space,0.302,,,,,,,,,,,
,,,,,R_9uD6qGqxcVynfWM,001,2025-09-13_13h18.55.705,continuous_performance_test,2024.2.4,Win32,59.88023952,ecd45762-a3de-4113-9259-7b2b602ebbc1,5,154.3408,156.2895,space,1,0,15,15,17,1,R,space,0.2887,,,,,,,,,,,
,,,,,R_9uD6qGqxcVynfWM,001,2025-09-13_13h18.55.705,continuous_performance_test,2024.2.4,Win32,59.88023952,ecd45762-a3de-4113-9259-7b2b602ebbc1,5,156.2912,157.8401,space,1,0,16,16,6,1,G,space,0.4703,,,,,,,,,,,
,,,,,R_9uD6qGqxcVynfWM,001,2025-09-13_13h18.55.705,continuous_performance_test,2024.2.4,Win32,59.88023952,ecd45762-a3de-4113-9259-7b2b602ebbc1,5,157.8421,159.6408,,1,0,17,17,28,1,X,,,,,,,,,,,,,
,,,,,R_9uD6qGqxcVynfWM,001,2025-09-13_13h18.55.705,continuous_performance_test,2024.2.4,Win32,59.88023952,ecd45762-a3de-4113-9259-7b2b602ebbc1,5,159.6424,161.3912,space,1,0,18,18,15,1,P,space,0.5914,,,,,,,,,,,
,,,,,R_9uD6qGqxcVynfWM,001,2025-09-13_13h18.55.705,continuous_performance_test,2024.2.4,Win32,59.88023952,ecd45762-a3de-4113-9259-7b2b602ebbc1,5,161.3932,163.2919,space,1,0,19,19,21,1,V,space,0.4585,,,,,,,,,,,
,,,,,R_9uD6qGqxcVynfWM,001,2025-09-13_13h18.55.705,continuous_performance_test,2024.2.4,Win32,59.88023952,ecd45762-a3de-4113-9259-7b2b602ebbc1,5,163.2935,165.0428,space,1,0,20,20,9,1,J,space,0.3552,,,,,,,,,,,
,,,,,R_9uD6qGqxcVynfWM,001,2025-09-13_13h18.55.705,continuous_performance_test,2024.2.4,Win32,59.88023952,ecd45762-a3de-4113-9259-7b2b602ebbc1,5,165.0448,166.6934,space,1,0,21,21,7,1,H,space,0.4336,,,,,,,,,,,
,,,,,R_9uD6qGqxcVynfWM,001,2025-09-13_13h18.55.705,continuous_performance_test,2024.2.4,Win32,59.88023952,ecd45762-a3de-4113-9259-7b2b602ebbc1,5,166.6952,168.2442,space,1,0,22,22,20,1,U,space,0.3123,,,,,,,,,,,
,,,,,R_9uD6qGqxcVynfWM,001,2025-09-13_13h18.55.705,continuous_performance_test,2024.2.4,Win32,59.88023952,ecd45762-a3de-4113-9259-7b2b602ebbc1,5,168.2472,169.8945,space,1,0,23,23,1,1,B,space,0.304,,,,,,,,,,,
,,,,,R_9uD6qGqxcVynfWM,001,2025-09-13_13h18.55.705,continuous_performance_test,2024.2.4,Win32,59.88023952,ecd45762-a3de-4113-9259-7b2b602ebbc1,5,169.896,171.7954,space,1,0,24,24,16,1,Q,space,0.3227,,,,,,,,,,,
,,,,,R_9uD6qGqxcVynfWM,001,2025-09-13_13h18.55.705,continuous_performance_test,2024.2.4,Win32,59.88023952,ecd45762-a3de-4113-9259-7b2b602ebbc1,5,171.7972,173.546,space,1,0,25,25,5,1,F,space,0.3283,,,,,,,,,,,
,,,,,R_9uD6qGqxcVynfWM,001,2025-09-13_13h18.55.705,continuous_performance_test,2024.2.4,Win32,59.88023952,ecd45762-a3de-4113-9259-7b2b602ebbc1,5,173.5477,175.2468,,1,0,26,26,29,1,X,,,,,,,,,,,,,
,,,,,R_9uD6qGqxcVynfWM,001,2025-09-13_13h18.55.705,continuous_performance_test,2024.2.4,Win32,59.88023952,ecd45762-a3de-4113-9259-7b2b602ebbc1,5,175.2488,177.1512,space,1,0,27,27,22,1,W,space,0.4434,,,,,,,,,,,
,,,,,R_9uD6qGqxcVynfWM,001,2025-09-13_13h18.55.705,continuous_performance_test,2024.2.4,Win32,59.88023952,ecd45762-a3de-4113-9259-7b2b602ebbc1,5,177.1526,178.7484,space,1,0,28,28,10,1,K,space,0.3842,,,,,,,,,,,
,,,,,R_9uD6qGqxcVynfWM,001,2025-09-13_13h18.55.705,continuous_performance_test,2024.2.4,Win32,59.88023952,ecd45762-a3de-4113-9259-7b2b602ebbc1,5,178.7501,180.449,space,1,0,29,29,19,1,T,space,0.3059,,,,,,,,,,,
,,,,,R_9uD6qGqxcVynfWM,001,2025-09-13_13h18.55.705,continuous_performance_test,2024.2.4,Win32,59.88023952,ecd45762-a3de-4113-9259-7b2b602ebbc1,5,182.5039,184.2502,space,0,0,0,0,28,1,X,,0.4673,,180.4507,182.4994,space,2.0261,,,,,,
,,,,,R_9uD6qGqxcVynfWM,001,2025-09-13_13h18.55.705,continuous_performance_test,2024.2.4,Win32,59.88023952,ecd45762-a3de-4113-9259-7b2b602ebbc1,5,184.2526,185.9509,space,1,0,1,1,14,1,O,space,0.2944,,,,,,,,,,,
,,,,,R_9uD6qGqxcVynfWM,001,2025-09-13_13h18.55.705,continuous_performance_test,2024.2.4,Win32,59.88023952,ecd45762-a3de-4113-9259-7b2b602ebbc1,5,185.9528,187.8513,space,1,0,2,2,11,1,L,space,0.4219,,,,,,,,,,,
,,,,,R_9uD6qGqxcVynfWM,001,2025-09-13_13h18.55.705,continuous_performance_test,2024.2.4,Win32,59.88023952,ecd45762-a3de-4113-9259-7b2b602ebbc1,5,187.8535,189.8524,space,1,0,3,3,6,1,G,space,0.4851,,,,,,,,,,,
,,,,,R_9uD6qGqxcVynfWM,001,2025-09-13_13h18.55.705,continuous_performance_test,2024.2.4,Win32,59.88023952,ecd45762-a3de-4113-9259-7b2b602ebbc1,5,189.8572,191.7031,,1,0,4,4,29,1,X,,,,,,,,,,,,,
,,,,,R_9uD6qGqxcVynfWM,001,2025-09-13_13h18.55.705,continuous_performance_test,2024.2.4,Win32,59.88023952,ecd45762-a3de-4113-9259-7b2b602ebbc1,5,191.7045,193.2535,,1,0,5,5,26,1,X,,,,,,,,,,,,,
,,,,,R_9uD6qGqxcVynfWM,001,2025-09-13_13h18.55.705,continuous_performance_test,2024.2.4,Win32,59.88023952,ecd45762-a3de-4113-9259-7b2b602ebbc1,5,193.2554,194.9542,space,1,0,6,6,2,1,C,space,0.5801,,,,,,,,,,,
,,,,,R_9uD6qGqxcVynfWM,001,2025-09-13_13h18.55.705,continuous_performance_test,2024.2.4,Win32,59.88023952,ecd45762-a3de-4113-9259-7b2b602ebbc1,5,194.9559,196.6549,space,1,0,7,7,4,1,E,space,0.7249,,,,,,,,,,,
,,,,,R_9uD6qGqxcVynfWM,001,2025-09-13_13h18.55.705,continuous_performance_test,2024.2.4,Win32,59.88023952,ecd45762-a3de-4113-9259-7b2b602ebbc1,5,196.6566,198.4056,space,1,0,8,8,22,1,W,space,0.7591,,,,,,,,,,,
,,,,,R_9uD6qGqxcVynfWM,001,2025-09-13_13h18.55.705,continuous_performance_test,2024.2.4,Win32,59.88023952,ecd45762-a3de-4113-9259-7b2b602ebbc1,5,198.4072,200.2062,space,1,0,9,9,24,1,Z,space,0.7427,,,,,,,,,,,
,,,,,R_9uD6qGqxcVynfWM,001,2025-09-13_13h18.55.705,continuous_performance_test,2024.2.4,Win32,59.88023952,ecd45762-a3de-4113-9259-7b2b602ebbc1,5,200.2079,201.7566,,1,0,10,10,27,1,X,,,,,,,,,,,,,
,,,,,R_9uD6qGqxcVynfWM,001,2025-09-13_13h18.55.705,continuous_performance_test,2024.2.4,Win32,59.88023952,ecd45762-a3de-4113-9259-7b2b602ebbc1,5,201.7582,203.6075,space,1,0,11,11,17,1,R,space,0.5249,,,,,,,,,,,
,,,,,R_9uD6qGqxcVynfWM,001,2025-09-13_13h18.55.705,continuous_performance_test,2024.2.4,Win32,59.88023952,ecd45762-a3de-4113-9259-7b2b602ebbc1,5,203.6092,205.3581,space,1,0,12,12,5,1,F,space,0.7211,,,,,,,,,,,
,,,,,R_9uD6qGqxcVynfWM,001,2025-09-13_13h18.55.705,continuous_performance_test,2024.2.4,Win32,59.88023952,ecd45762-a3de-4113-9259-7b2b602ebbc1,5,205.3596,207.0089,space,1,0,13,13,9,1,J,space,0.7122,,,,,,,,,,,
,,,,,R_9uD6qGqxcVynfWM,001,2025-09-13_13h18.55.705,continuous_performance_test,2024.2.4,Win32,59.88023952,ecd45762-a3de-4113-9259-7b2b602ebbc1,5,207.0106,208.7597,,1,0,14,14,25,1,X,,,,,,,,,,,,,
,,,,,R_9uD6qGqxcVynfWM,001,2025-09-13_13h18.55.705,continuous_performance_test,2024.2.4,Win32,59.88023952,ecd45762-a3de-4113-9259-7b2b602ebbc1,5,208.7614,210.4607,space,1,0,15,15,10,1,K,space,0.4448,,,,,,,,,,,
,,,,,R_9uD6qGqxcVynfWM,001,2025-09-13_13h18.55.705,continuous_performance_test,2024.2.4,Win32,59.88023952,ecd45762-a3de-4113-9259-7b2b602ebbc1,5,210.4626,212.2111,space,1,0,16,16,8,1,I,space,0.6838,,,,,,,,,,,
,,,,,R_9uD6qGqxcVynfWM,001,2025-09-13_13h18.55.705,continuous_performance_test,2024.2.4,Win32,59.88023952,ecd45762-a3de-4113-9259-7b2b602ebbc1,5,212.2132,213.9115,space,1,0,17,17,13,1,N,space,0.6951,,,,,,,,,,,
,,,,,R_9uD6qGqxcVynfWM,001,2025-09-13_13h18.55.705,continuous_performance_test,2024.2.4,Win32,59.88023952,ecd45762-a3de-4113-9259-7b2b602ebbc1,5,213.913,215.8625,space,1,0,18,18,7,1,H,space,0.5093,,,,,,,,,,,
,,,,,R_9uD6qGqxcVynfWM,001,2025-09-13_13h18.55.705,continuous_performance_test,2024.2.4,Win32,59.88023952,ecd45762-a3de-4113-9259-7b2b602ebbc1,5,215.8645,217.5131,space,1,0,19,19,18,1,S,space,0.4608,,,,,,,,,,,
,,,,,R_9uD6qGqxcVynfWM,001,2025-09-13_13h18.55.705,continuous_performance_test,2024.2.4,Win32,59.88023952,ecd45762-a3de-4113-9259-7b2b602ebbc1,5,217.5148,219.2639,space,1,0,20,20,12,1,M,space,0.5178,,,,,,,,,,,
,,,,,R_9uD6qGqxcVynfWM,001,2025-09-13_13h18.55.705,continuous_performance_test,2024.2.4,Win32,59.88023952,ecd45762-a3de-4113-9259-7b2b602ebbc1,5,219.2659,220.9643,space,1,0,21,21,23,1,Y,space,0.3902,,,,,,,,,,,
,,,,,R_9uD6qGqxcVynfWM,001,2025-09-13_13h18.55.705,continuous_performance_test,2024.2.4,Win32,59.88023952,ecd45762-a3de-4113-9259-7b2b602ebbc1,5,220.9661,222.715,space,1,0,22,22,3,1,D,space,0.4505,,,,,,,,,,,
,,,,,R_9uD6qGqxcVynfWM,001,2025-09-13_13h18.55.705,continuous_performance_test,2024.2.4,Win32,59.88023952,ecd45762-a3de-4113-9259-7b2b602ebbc1,5,222.7172,224.4658,space,1,0,23,23,19,1,T,space,0.5036,,,,,,,,,,,
,,,,,R_9uD6qGqxcVynfWM,001,2025-09-13_13h18.55.705,continuous_performance_test,2024.2.4,Win32,59.88023952,ecd45762-a3de-4113-9259-7b2b602ebbc1,5,224.4677,226.1162,space,1,0,24,24,16,1,Q,space,0.5841,,,,,,,,,,,
,,,,,R_9uD6qGqxcVynfWM,001,2025-09-13_13h18.55.705,continuous_performance_test,2024.2.4,Win32,59.88023952,ecd45762-a3de-4113-9259-7b2b602ebbc1,5,226.1181,227.9671,space,1,0,25,25,0,1,A,space,0.4183,,,,,,,,,,,
,,,,,R_9uD6qGqxcVynfWM,001,2025-09-13_13h18.55.705,continuous_performance_test,2024.2.4,Win32,59.88023952,ecd45762-a3de-4113-9259-7b2b602ebbc1,5,227.9692,229.5174,space,1,0,26,26,1,1,B,space,0.4176,,,,,,,,,,,
,,,,,R_9uD6qGqxcVynfWM,001,2025-09-13_13h18.55.705,continuous_performance_test,2024.2.4,Win32,59.88023952,ecd45762-a3de-4113-9259-7b2b602ebbc1,5,229.5194,231.1181,space,1,0,27,27,15,1,P,space,0.4847,,,,,,,,,,,
,,,,,R_9uD6qGqxcVynfWM,001,2025-09-13_13h18.55.705,continuous_performance_test,2024.2.4,Win32,59.88023952,ecd45762-a3de-4113-9259-7b2b602ebbc1,5,231.1203,232.8689,space,1,0,28,28,20,1,U,space,0.4608,,,,,,,,,,,
,,,,,R_9uD6qGqxcVynfWM,001,2025-09-13_13h18.55.705,continuous_performance_test,2024.2.4,Win32,59.88023952,ecd45762-a3de-4113-9259-7b2b602ebbc1,5,232.8709,234.4197,space,1,0,29,29,21,1,V,space,0.3965,,,,,,,,,,,
,,,,,R_9uD6qGqxcVynfWM,001,2025-09-13_13h18.55.705,continuous_performance_test,2024.2.4,Win32,59.88023952,ecd45762-a3de-4113-9259-7b2b602ebbc1,5,240.8439,242.3894,space,1,0,0,0,24,1,Z,space,0.7364,,234.4216,240.839,space,6.3897,,,,,,
,,,,,R_9uD6qGqxcVynfWM,001,2025-09-13_13h18.55.705,continuous_performance_test,2024.2.4,Win32,59.88023952,ecd45762-a3de-4113-9259-7b2b602ebbc1,5,242.3912,244.1904,space,1,0,1,1,17,1,R,space,0.7351,,,,,,,,,,,
,,,,,R_9uD6qGqxcVynfWM,001,2025-09-13_13h18.55.705,continuous_performance_test,2024.2.4,Win32,59.88023952,ecd45762-a3de-4113-9259-7b2b602ebbc1,5,244.1925,245.9912,space,1,0,2,2,16,1,Q,space,0.5287,,,,,,,,,,,
,,,,,R_9uD6qGqxcVynfWM,001,2025-09-13_13h18.55.705,continuous_performance_test,2024.2.4,Win32,59.88023952,ecd45762-a3de-4113-9259-7b2b602ebbc1,5,245.9929,247.942,space,1,0,3,3,10,1,K,space,0.8021,,,,,,,,,,,
,,,,,R_9uD6qGqxcVynfWM,001,2025-09-13_13h18.55.705,continuous_performance_test,2024.2.4,Win32,59.88023952,ecd45762-a3de-4113-9259-7b2b602ebbc1,5,247.9441,249.5928,,1,0,4,4,27,1,X,,,,,,,,,,,,,
,,,,,R_9uD6qGqxcVynfWM,001,2025-09-13_13h18.55.705,continuous_performance_test,2024.2.4,Win32,59.88023952,ecd45762-a3de-4113-9259-7b2b602ebbc1,5,249.5947,251.4432,space,1,0,5,5,0,1,A,space,0.8507,,,,,,,,,,,
,,,,,R_9uD6qGqxcVynfWM,001,2025-09-13_13h18.55.705,continuous_performance_test,2024.2.4,Win32,59.88023952,ecd45762-a3de-4113-9259-7b2b602ebbc1,5,251.4454,253.1441,,1,0,6,6,28,1,X,,,,,,,,,,,,,
,,,,,R_9uD6qGqxcVynfWM,001,2025-09-13_13h18.55.705,continuous_performance_test,2024.2.4,Win32,59.88023952,ecd45762-a3de-4113-9259-7b2b602ebbc1,5,253.1459,254.9455,space,1,0,7,7,9,1,J,space,0.7341,,,,,,,,,,,
,,,,,R_9uD6qGqxcVynfWM,001,2025-09-13_13h18.55.705,continuous_performance_test,2024.2.4,Win32,59.88023952,ecd45762-a3de-4113-9259-7b2b602ebbc1,5,254.9474,256.8453,space,1,0,8,8,19,1,T,space,0.7081,,,,,,,,,,,
,,,,,R_9uD6qGqxcVynfWM,001,2025-09-13_13h18.55.705,continuous_performance_test,2024.2.4,Win32,59.88023952,ecd45762-a3de-4113-9259-7b2b602ebbc1,5,256.8476,258.4454,space,1,0,9,9,2,1,C,space,0.7344,,,,,,,,,,,
,,,,,R_9uD6qGqxcVynfWM,001,2025-09-13_13h18.55.705,continuous_performance_test,2024.2.4,Win32,59.88023952,ecd45762-a3de-4113-9259-7b2b602ebbc1,5,258.4472,260.3461,space,1,0,10,10,8,1,I,space,0.8182,,,,,,,,,,,
,,,,,R_9uD6qGqxcVynfWM,001,2025-09-13_13h18.55.705,continuous_performance_test,2024.2.4,Win32,59.88023952,ecd45762-a3de-4113-9259-7b2b602ebbc1,5,260.3478,262.2471,space,1,0,11,11,22,1,W,space,0.6882,,,,,,,,,,,
,,,,,R_9uD6qGqxcVynfWM,001,2025-09-13_13h18.55.705,continuous_performance_test,2024.2.4,Win32,59.88023952,ecd45762-a3de-4113-9259-7b2b602ebbc1,5,262.2491,264.1976,space,1,0,12,12,6,1,G,space,0.7672,,,,,,,,,,,
,,,,,R_9uD6qGqxcVynfWM,001,2025-09-13_13h18.55.705,continuous_performance_test,2024.2.4,Win32,59.88023952,ecd45762-a3de-4113-9259-7b2b602ebbc1,5,264.1994,265.7984,space,1,0,13,13,7,1,H,space,0.7632,,,,,,,,,,,
,,,,,R_9uD6qGqxcVynfWM,001,2025-09-13_13h18.55.705,continuous_performance_test,2024.2.4,Win32,59.88023952,ecd45762-a3de-4113-9259-7b2b602ebbc1,5,265.8005,267.7989,,1,0,14,14,25,1,X,,,,,,,,,,,,,
,,,,,R_9uD6qGqxcVynfWM,001,2025-09-13_13h18.55.705,continuous_performance_test,2024.2.4,Win32,59.88023952,ecd45762-a3de-4113-9259-7b2b602ebbc1,5,267.8009,269.4996,space,1,0,15,15,15,1,P,space,0.7625,,,,,,,,,,,
,,,,,R_9uD6qGqxcVynfWM,001,2025-09-13_13h18.55.705,continuous_performance_test,2024.2.4,Win32,59.88023952,ecd45762-a3de-4113-9259-7b2b602ebbc1,5,269.5014,271.4507,space,1,0,16,16,23,1,Y,space,0.7581,,,,,,,,,,,
,,,,,R_9uD6qGqxcVynfWM,001,2025-09-13_13h18.55.705,continuous_performance_test,2024.2.4,Win32,59.88023952,ecd45762-a3de-4113-9259-7b2b602ebbc1,5,271.4523,273.2011,space,1,0,17,17,11,1,L,space,0.7508,,,,,,,,,,,
,,,,,R_9uD6qGqxcVynfWM,001,2025-09-13_13h18.55.705,continuous_performance_test,2024.2.4,Win32,59.88023952,ecd45762-a3de-4113-9259-7b2b602ebbc1,5,273.2032,275.1021,space,1,0,18,18,1,1,B,space,0.8017,,,,,,,,,,,
,,,,,R_9uD6qGqxcVynfWM,001,2025-09-13_13h18.55.705,continuous_performance_test,2024.2.4,Win32,59.88023952,ecd45762-a3de-4113-9259-7b2b602ebbc1,5,275.1038,276.8552,space,1,0,19,19,18,1,S,space,0.7048,,,,,,,,,,,
,,,,,R_9uD6qGqxcVynfWM,001,2025-09-13_13h18.55.705,continuous_performance_test,2024.2.4,Win32,59.88023952,ecd45762-a3de-4113-9259-7b2b602ebbc1,5,276.8561,278.5534,space,1,0,20,20,4,1,E,space,0.7506,,,,,,,,,,,
,,,,,R_9uD6qGqxcVynfWM,001,2025-09-13_13h18.55.705,continuous_performance_test,2024.2.4,Win32,59.88023952,ecd45762-a3de-4113-9259-7b2b602ebbc1,5,278.5551,280.1038,space,1,0,21,21,14,1,O,space,0.7674,,,,,,,,,,,
,,,,,R_9uD6qGqxcVynfWM,001,2025-09-13_13h18.55.705,continuous_performance_test,2024.2.4,Win32,59.88023952,ecd45762-a3de-4113-9259-7b2b602ebbc1,5,280.1056,282.0044,space,1,0,22,22,3,1,D,space,0.7703,,,,,,,,,,,
,,,,,R_9uD6qGqxcVynfWM,001,2025-09-13_13h18.55.705,continuous_performance_test,2024.2.4,Win32,59.88023952,ecd45762-a3de-4113-9259-7b2b602ebbc1,5,282.0062,283.9057,,0,0,23,23,21,1,V,space,,,,,,,,,,,,
,,,,,R_9uD6qGqxcVynfWM,001,2025-09-13_13h18.55.705,continuous_performance_test,2024.2.4,Win32,59.88023952,ecd45762-a3de-4113-9259-7b2b602ebbc1,5,283.9073,285.556,space,1,0,24,24,12,1,M,space,0.7847,,,,,,,,,,,
,,,,,R_9uD6qGqxcVynfWM,001,2025-09-13_13h18.55.705,continuous_performance_test,2024.2.4,Win32,59.88023952,ecd45762-a3de-4113-9259-7b2b602ebbc1,5,285.5579,287.3565,,1,0,25,25,26,1,X,,,,,,,,,,,,,
,,,,,R_9uD6qGqxcVynfWM,001,2025-09-13_13h18.55.705,continuous_performance_test,2024.2.4,Win32,59.88023952,ecd45762-a3de-4113-9259-7b2b602ebbc1,5,287.3589,288.9573,space,1,0,26,26,20,1,U,space,0.8203,,,,,,,,,,,
,,,,,R_9uD6qGqxcVynfWM,001,2025-09-13_13h18.55.705,continuous_performance_test,2024.2.4,Win32,59.88023952,ecd45762-a3de-4113-9259-7b2b602ebbc1,5,288.9593,290.7078,space,1,0,27,27,5,1,F,space,0.7229,,,,,,,,,,,
,,,,,R_9uD6qGqxcVynfWM,001,2025-09-13_13h18.55.705,continuous_performance_test,2024.2.4,Win32,59.88023952,ecd45762-a3de-4113-9259-7b2b602ebbc1,5,290.7098,292.3584,,1,0,28,28,29,1,X,,,,,,,,,,,,,
,,,,,R_9uD6qGqxcVynfWM,001,2025-09-13_13h18.55.705,continuous_performance_test,2024.2.4,Win32,59.88023952,ecd45762-a3de-4113-9259-7b2b602ebbc1,5,292.3604,294.2424,space,1,0,29,29,13,1,N,space,0.7694,,,,,,,,,,,
,,,,,R_9uD6qGqxcVynfWM,001,2025-09-13_13h18.55.705,continuous_performance_test,2024.2.4,Win32,59.88023952,ecd45762-a3de-4113-9259-7b2b602ebbc1,5,297.8172,299.6112,,1,0,0,0,27,1,X,,,,294.2444,297.8112,space,3.5378,,,,,,
,,,,,R_9uD6qGqxcVynfWM,001,2025-09-13_13h18.55.705,continuous_performance_test,2024.2.4,Win32,59.88023952,ecd45762-a3de-4113-9259-7b2b602ebbc1,5,299.6132,301.3119,space,1,0,1,1,7,1,H,space,0.6517,,,,,,,,,,,
,,,,,R_9uD6qGqxcVynfWM,001,2025-09-13_13h18.55.705,continuous_performance_test,2024.2.4,Win32,59.88023952,ecd45762-a3de-4113-9259-7b2b602ebbc1,5,301.3136,303.1126,space,1,0,2,2,0,1,A,space,0.7456,,,,,,,,,,,
,,,,,R_9uD6qGqxcVynfWM,001,2025-09-13_13h18.55.705,continuous_performance_test,2024.2.4,Win32,59.88023952,ecd45762-a3de-4113-9259-7b2b602ebbc1,5,303.1144,305.1136,space,1,0,3,3,21,1,V,space,0.685,,,,,,,,,,,
,,,,,R_9uD6qGqxcVynfWM,001,2025-09-13_13h18.55.705,continuous_performance_test,2024.2.4,Win32,59.88023952,ecd45762-a3de-4113-9259-7b2b602ebbc1,5,305.1157,306.7139,space,1,0,4,4,19,1,T,space,0.7382,,,,,,,,,,,
,,,,,R_9uD6qGqxcVynfWM,001,2025-09-13_13h18.55.705,continuous_performance_test,2024.2.4,Win32,59.88023952,ecd45762-a3de-4113-9259-7b2b602ebbc1,5,306.7155,308.3021,,1,0,5,5,26,1,X,,,,,,,,,,,,,
,,,,,R_9uD6qGqxcVynfWM,001,2025-09-13_13h18.55.705,continuous_performance_test,2024.2.4,Win32,59.88023952,ecd45762-a3de-4113-9259-7b2b602ebbc1,5,308.3038,310.0486,space,1,0,6,6,8,1,I,space,0.5029,,,,,,,,,,,
,,,,,R_9uD6qGqxcVynfWM,001,2025-09-13_13h18.55.705,continuous_performance_test,2024.2.4,Win32,59.88023952,ecd45762-a3de-4113-9259-7b2b602ebbc1,5,310.0505,311.7997,,1,0,7,7,25,1,X,,,,,,,,,,,,,
,,,,,R_9uD6qGqxcVynfWM,001,2025-09-13_13h18.55.705,continuous_performance_test,2024.2.4,Win32,59.88023952,ecd45762-a3de-4113-9259-7b2b602ebbc1,5,311.8018,313.75,space,1,0,8,8,18,1,S,space,0.6737,,,,,,,,,,,
,,,,,R_9uD6qGqxcVynfWM,001,2025-09-13_13h18.55.705,continuous_performance_test,2024.2.4,Win32,59.88023952,ecd45762-a3de-4113-9259-7b2b602ebbc1,5,313.7525,315.401,space,1,0,9,9,24,1,Z,space,0.6716,,,,,,,,,,,
,,,,,R_9uD6qGqxcVynfWM,001,2025-09-13_13h18.55.705,continuous_performance_test,2024.2.4,Win32,59.88023952,ecd45762-a3de-4113-9259-7b2b602ebbc1,5,315.4036,317.4015,space,1,0,10,10,10,1,K,space,0.724,,,,,,,,,,,
,,,,,R_9uD6qGqxcVynfWM,001,2025-09-13_13h18.55.705,continuous_performance_test,2024.2.4,Win32,59.88023952,ecd45762-a3de-4113-9259-7b2b602ebbc1,5,317.4041,319.252,space,1,0,11,11,5,1,F,space,0.7853,,,,,,,,,,,
,,,,,R_9uD6qGqxcVynfWM,001,2025-09-13_13h18.55.705,continuous_performance_test,2024.2.4,Win32,59.88023952,ecd45762-a3de-4113-9259-7b2b602ebbc1,5,319.2538,320.8534,space,1,0,12,12,3,1,D,space,0.7747,,,,,,,,,,,
,,,,,R_9uD6qGqxcVynfWM,001,2025-09-13_13h18.55.705,continuous_performance_test,2024.2.4,Win32,59.88023952,ecd45762-a3de-4113-9259-7b2b602ebbc1,5,320.8558,322.504,space,1,0,13,13,15,1,P,space,0.652,,,,,,,,,,,
,,,,,R_9uD6qGqxcVynfWM,001,2025-09-13_13h18.55.705,continuous_performance_test,2024.2.4,Win32,59.88023952,ecd45762-a3de-4113-9259-7b2b602ebbc1,5,322.507,324.1041,space,1,0,14,14,22,1,W,space,0.694,,,,,,,,,,,
,,,,,R_9uD6qGqxcVynfWM,001,2025-09-13_13h18.55.705,continuous_performance_test,2024.2.4,Win32,59.88023952,ecd45762-a3de-4113-9259-7b2b602ebbc1,5,324.1066,325.9048,space,1,0,15,15,12,1,M,space,0.6596,,,,,,,,,,,
,,,,,R_9uD6qGqxcVynfWM,001,2025-09-13_13h18.55.705,continuous_performance_test,2024.2.4,Win32,59.88023952,ecd45762-a3de-4113-9259-7b2b602ebbc1,5,325.9072,327.4556,space,1,0,16,16,23,1,Y,space,0.7046,,,,,,,,,,,
,,,,,R_9uD6qGqxcVynfWM,001,2025-09-13_13h18.55.705,continuous_performance_test,2024.2.4,Win32,59.88023952,ecd45762-a3de-4113-9259-7b2b602ebbc1,5,327.4579,329.3561,,1,0,17,17,28,1,X,,,,,,,,,,,,,
,,,,,R_9uD6qGqxcVynfWM,001,2025-09-13_13h18.55.705,continuous_performance_test,2024.2.4,Win32,59.88023952,ecd45762-a3de-4113-9259-7b2b602ebbc1,5,329.3582,331.0569,space,1,0,18,18,17,1,R,space,0.6045,,,,,,,,,,,
,,,,,R_9uD6qGqxcVynfWM,001,2025-09-13_13h18.55.705,continuous_performance_test,2024.2.4,Win32,59.88023952,ecd45762-a3de-4113-9259-7b2b602ebbc1,5,331.0592,332.7076,space,1,0,19,19,14,1,O,space,0.8078,,,,,,,,,,,
,,,,,R_9uD6qGqxcVynfWM,001,2025-09-13_13h18.55.705,continuous_performance_test,2024.2.4,Win32,59.88023952,ecd45762-a3de-4113-9259-7b2b602ebbc1,5,332.71,334.4081,space,1,0,20,20,16,1,Q,space,0.7047,,,,,,,,,,,
,,,,,R_9uD6qGqxcVynfWM,001,2025-09-13_13h18.55.705,continuous_performance_test,2024.2.4,Win32,59.88023952,ecd45762-a3de-4113-9259-7b2b602ebbc1,5,334.4101,336.3588,space,1,0,21,21,20,1,U,space,0.4851,,,,,,,,,,,
,,,,,R_9uD6qGqxcVynfWM,001,2025-09-13_13h18.55.705,continuous_performance_test,2024.2.4,Win32,59.88023952,ecd45762-a3de-4113-9259-7b2b602ebbc1,5,336.3612,338.2599,space,1,0,22,22,13,1,N,space,0.482,,,,,,,,,,,
,,,,,R_9uD6qGqxcVynfWM,001,2025-09-13_13h18.55.705,continuous_performance_test,2024.2.4,Win32,59.88023952,ecd45762-a3de-4113-9259-7b2b602ebbc1,5,338.2621,339.9605,space,1,0,23,23,11,1,L,space,0.5889,,,,,,,,,,,
,,,,,R_9uD6qGqxcVynfWM,001,2025-09-13_13h18.55.705,continuous_performance_test,2024.2.4,Win32,59.88023952,ecd45762-a3de-4113-9259-7b2b602ebbc1,5,339.9624,341.8115,space,1,0,24,24,9,1,J,space,0.3962,,,,,,,,,,,
,,,,,R_9uD6qGqxcVynfWM,001,2025-09-13_13h18.55.705,continuous_performance_test,2024.2.4,Win32,59.88023952,ecd45762-a3de-4113-9259-7b2b602ebbc1,5,341.8145,343.6618,space,1,0,25,25,2,1,C,space,0.4784,,,,,,,,,,,
,,,,,R_9uD6qGqxcVynfWM,001,2025-09-13_13h18.55.705,continuous_performance_test,2024.2.4,Win32,59.88023952,ecd45762-a3de-4113-9259-7b2b602ebbc1,5,343.6638,345.6629,space,1,0,26,26,1,1,B,space,0.4974,,,,,,,,,,,
,,,,,R_9uD6qGqxcVynfWM,001,2025-09-13_13h18.55.705,continuous_performance_test,2024.2.4,Win32,59.88023952,ecd45762-a3de-4113-9259-7b2b602ebbc1,5,345.6651,347.5132,space,1,0,27,27,6,1,G,space,0.6427,,,,,,,,,,,
,,,,,R_9uD6qGqxcVynfWM,001,2025-09-13_13h18.55.705,continuous_performance_test,2024.2.4,Win32,59.88023952,ecd45762-a3de-4113-9259-7b2b602ebbc1,5,347.5156,349.0639,,1,0,28,28,29,1,X,,,,,,,,,,,,,
,,,,,R_9uD6qGqxcVynfWM,001,2025-09-13_13h18.55.705,continuous_performance_test,2024.2.4,Win32,59.88023952,ecd45762-a3de-4113-9259-7b2b602ebbc1,5,349.0659,350.9147,space,1,0,29,29,4,1,E,space,0.7176,,,,,,,,,,,
,,,,,R_9uD6qGqxcVynfWM,001,2025-09-13_13h18.55.705,continuous_performance_test,2024.2.4,Win32,59.88023952,ecd45762-a3de-4113-9259-7b2b602ebbc1,5,359.5725,361.2687,,0,0,0,0,1,1,B,space,,,350.9162,359.568,space,8.621,,,,,,
,,,,,R_9uD6qGqxcVynfWM,001,2025-09-13_13h18.55.705,continuous_performance_test,2024.2.4,Win32,59.88023952,ecd45762-a3de-4113-9259-7b2b602ebbc1,5,361.2704,362.8692,space,1,0,1,1,2,1,C,space,0.6734,,,,,,,,,,,
,,,,,R_9uD6qGqxcVynfWM,001,2025-09-13_13h18.55.705,continuous_performance_test,2024.2.4,Win32,59.88023952,ecd45762-a3de-4113-9259-7b2b602ebbc1,5,362.8714,364.7201,space,1,0,2,2,10,1,K,space,0.7669,,,,,,,,,,,
,,,,,R_9uD6qGqxcVynfWM,001,2025-09-13_13h18.55.705,continuous_performance_test,2024.2.4,Win32,59.88023952,ecd45762-a3de-4113-9259-7b2b602ebbc1,5,364.7216,366.5707,space,1,0,3,3,4,1,E,space,0.7203,,,,,,,,,,,
,,,,,R_9uD6qGqxcVynfWM,001,2025-09-13_13h18.55.705,continuous_performance_test,2024.2.4,Win32,59.88023952,ecd45762-a3de-4113-9259-7b2b602ebbc1,5,366.5722,368.4213,space,1,0,4,4,8,1,I,space,0.6796,,,,,,,,,,,
,,,,,R_9uD6qGqxcVynfWM,001,2025-09-13_13h18.55.705,continuous_performance_test,2024.2.4,Win32,59.88023952,ecd45762-a3de-4113-9259-7b2b602ebbc1,5,368.4231,370.3719,,1,0,5,5,26,1,X,,,,,,,,,,,,,
,,,,,R_9uD6qGqxcVynfWM,001,2025-09-13_13h18.55.705,continuous_performance_test,2024.2.4,Win32,59.88023952,ecd45762-a3de-4113-9259-7b2b602ebbc1,5,370.3735,372.3728,space,1,0,6,6,24,1,Z,space,0.7636,,,,,,,,,,,
,,,,,R_9uD6qGqxcVynfWM,001,2025-09-13_13h18.55.705,continuous_performance_test,2024.2.4,Win32,59.88023952,ecd45762-a3de-4113-9259-7b2b602ebbc1,5,372.3744,374.0744,space,1,0,7,7,15,1,P,space,0.6587,,,,,,,,,,,
,,,,,R_9uD6qGqxcVynfWM,001,2025-09-13_13h18.55.705,continuous_performance_test,2024.2.4,Win32,59.88023952,ecd45762-a3de-4113-9259-7b2b602ebbc1,5,374.077,375.8749,,1,0,8,8,25,1,X,,,,,,,,,,,,,
,,,,,R_9uD6qGqxcVynfWM,001,2025-09-13_13h18.55.705,continuous_performance_test,2024.2.4,Win32,59.88023952,ecd45762-a3de-4113-9259-7b2b602ebbc1,5,375.8772,377.6257,space,1,0,9,9,9,1,J,space,0.6586,,,,,,,,,,,
,,,,,R_9uD6qGqxcVynfWM,001,2025-09-13_13h18.55.705,continuous_performance_test,2024.2.4,Win32,59.88023952,ecd45762-a3de-4113-9259-7b2b602ebbc1,5,377.6281,379.5762,space,1,0,10,10,20,1,U,space,0.7108,,,,,,,,,,,
,,,,,R_9uD6qGqxcVynfWM,001,2025-09-13_13h18.55.705,continuous_performance_test,2024.2.4,Win32,59.88023952,ecd45762-a3de-4113-9259-7b2b602ebbc1,5,379.5781,381.4771,space,1,0,11,11,7,1,H,space,0.5687,,,,,,,,,,,
,,,,,R_9uD6qGqxcVynfWM,001,2025-09-13_13h18.55.705,continuous_performance_test,2024.2.4,Win32,59.88023952,ecd45762-a3de-4113-9259-7b2b602ebbc1,5,381.479,383.4279,space,1,0,12,12,23,1,Y,space,0.6894,,,,,,,,,,,
,,,,,R_9uD6qGqxcVynfWM,001,2025-09-13_13h18.55.705,continuous_performance_test,2024.2.4,Win32,59.88023952,ecd45762-a3de-4113-9259-7b2b602ebbc1,5,383.43,385.2285,,1,0,13,13,27,1,X,,,,,,,,,,,,,
,,,,,R_9uD6qGqxcVynfWM,001,2025-09-13_13h18.55.705,continuous_performance_test,2024.2.4,Win32,59.88023952,ecd45762-a3de-4113-9259-7b2b602ebbc1,5,385.2307,386.7788,space,1,0,14,14,22,1,W,space,0.6874,,,,,,,,,,,
,,,,,R_9uD6qGqxcVynfWM,001,2025-09-13_13h18.55.705,continuous_performance_test,2024.2.4,Win32,59.88023952,ecd45762-a3de-4113-9259-7b2b602ebbc1,5,386.7807,388.7793,space,1,0,15,15,6,1,G,space,0.8005,,,,,,,,,,,
,,,,,R_9uD6qGqxcVynfWM,001,2025-09-13_13h18.55.705,continuous_performance_test,2024.2.4,Win32,59.88023952,ecd45762-a3de-4113-9259-7b2b602ebbc1,5,388.7812,390.3305,,0,0,16,16,3,1,D,space,,,,,,,,,,,,
,,,,,R_9uD6qGqxcVynfWM,001,2025-09-13_13h18.55.705,continuous_performance_test,2024.2.4,Win32,59.88023952,ecd45762-a3de-4113-9259-7b2b602ebbc1,5,390.3324,392.2314,space,1,0,17,17,11,1,L,space,0.5291,,,,,,,,,,,
,,,,,R_9uD6qGqxcVynfWM,001,2025-09-13_13h18.55.705,continuous_performance_test,2024.2.4,Win32,59.88023952,ecd45762-a3de-4113-9259-7b2b602ebbc1,5,392.2333,394.0811,space,1,0,18,18,19,1,T,space,0.6181,,,,,,,,,,,
,,,,,R_9uD6qGqxcVynfWM,001,2025-09-13_13h18.55.705,continuous_performance_test,2024.2.4,Win32,59.88023952,ecd45762-a3de-4113-9259-7b2b602ebbc1,5,394.0831,395.9322,space,1,0,19,19,21,1,V,space,0.508,,,,,,,,,,,
,,,,,R_9uD6qGqxcVynfWM,001,2025-09-13_13h18.55.705,continuous_performance_test,2024.2.4,Win32,59.88023952,ecd45762-a3de-4113-9259-7b2b602ebbc1,5,395.9348,397.5332,,1,0,20,20,28,1,X,,,,,,,,,,,,,
,,,,,R_9uD6qGqxcVynfWM,001,2025-09-13_13h18.55.705,continuous_performance_test,2024.2.4,Win32,59.88023952,ecd45762-a3de-4113-9259-7b2b602ebbc1,5,397.5352,399.1841,space,1,0,21,21,17,1,R,space,0.5361,,,,,,,,,,,
,,,,,R_9uD6qGqxcVynfWM,001,2025-09-13_13h18.55.705,continuous_performance_test,2024.2.4,Win32,59.88023952,ecd45762-a3de-4113-9259-7b2b602ebbc1,5,399.186,400.884,space,1,0,22,22,12,1,M,space,0.4516,,,,,,,,,,,
,,,,,R_9uD6qGqxcVynfWM,001,2025-09-13_13h18.55.705,continuous_performance_test,2024.2.4,Win32,59.88023952,ecd45762-a3de-4113-9259-7b2b602ebbc1,5,400.8859,402.5352,space,1,0,23,23,13,1,N,space,0.4621,,,,,,,,,,,
,,,,,R_9uD6qGqxcVynfWM,001,2025-09-13_13h18.55.705,continuous_performance_test,2024.2.4,Win32,59.88023952,ecd45762-a3de-4113-9259-7b2b602ebbc1,5,402.5371,404.3858,space,1,0,24,24,14,1,O,space,0.3698,,,,,,,,,,,
,,,,,R_9uD6qGqxcVynfWM,001,2025-09-13_13h18.55.705,continuous_performance_test,2024.2.4,Win32,59.88023952,ecd45762-a3de-4113-9259-7b2b602ebbc1,5,404.3878,406.1857,space,1,0,25,25,5,1,F,space,0.4514,,,,,,,,,,,
,,,,,R_9uD6qGqxcVynfWM,001,2025-09-13_13h18.55.705,continuous_performance_test,2024.2.4,Win32,59.88023952,ecd45762-a3de-4113-9259-7b2b602ebbc1,5,406.1871,407.987,space,1,0,26,26,16,1,Q,space,0.436,,,,,,,,,,,
,,,,,R_9uD6qGqxcVynfWM,001,2025-09-13_13h18.55.705,continuous_performance_test,2024.2.4,Win32,59.88023952,ecd45762-a3de-4113-9259-7b2b602ebbc1,5,407.9883,409.988,space,1,0,27,27,0,1,A,space,0.7024,,,,,,,,,,,
,,,,,R_9uD6qGqxcVynfWM,001,2025-09-13_13h18.55.705,continuous_performance_test,2024.2.4,Win32,59.88023952,ecd45762-a3de-4113-9259-7b2b602ebbc1,5,409.9908,411.6888,,1,0,28,28,29,1,X,,,,,,,,,,,,,
,,,,,R_9uD6qGqxcVynfWM,001,2025-09-13_13h18.55.705,continuous_performance_test,2024.2.4,Win32,59.88023952,ecd45762-a3de-4113-9259-7b2b602ebbc1,5,411.6909,413.6396,space,1,0,29,29,18,1,S,space,0.4443,,,,,,,,,,,
,,,,,R_9uD6qGqxcVynfWM,001,2025-09-13_13h18.55.705,continuous_performance_test,2024.2.4,Win32,59.88023952,ecd45762-a3de-4113-9259-7b2b602ebbc1,5,419.4156,421.4088,space,1,0,0,0,16,1,Q,space,0.5911,,413.6414,419.4081,space,5.7436,,,,,,
,,,,,R_9uD6qGqxcVynfWM,001,2025-09-13_13h18.55.705,continuous_performance_test,2024.2.4,Win32,59.88023952,ecd45762-a3de-4113-9259-7b2b602ebbc1,5,421.4108,423.1101,space,1,0,1,1,4,1,E,space,0.5728,,,,,,,,,,,
,,,,,R_9uD6qGqxcVynfWM,001,2025-09-13_13h18.55.705,continuous_performance_test,2024.2.4,Win32,59.88023952,ecd45762-a3de-4113-9259-7b2b602ebbc1,5,423.1121,424.9104,space,1,0,2,2,23,1,Y,space,0.5782,,,,,,,,,,,
,,,,,R_9uD6qGqxcVynfWM,001,2025-09-13_13h18.55.705,continuous_performance_test,2024.2.4,Win32,59.88023952,ecd45762-a3de-4113-9259-7b2b602ebbc1,5,424.9123,426.511,space,1,0,3,3,19,1,T,space,0.6347,,,,,,,,,,,
,,,,,R_9uD6qGqxcVynfWM,001,2025-09-13_13h18.55.705,continuous_performance_test,2024.2.4,Win32,59.88023952,ecd45762-a3de-4113-9259-7b2b602ebbc1,5,426.5132,428.0618,space,1,0,4,4,14,1,O,space,0.5914,,,,,,,,,,,
,,,,,R_9uD6qGqxcVynfWM,001,2025-09-13_13h18.55.705,continuous_performance_test,2024.2.4,Win32,59.88023952,ecd45762-a3de-4113-9259-7b2b602ebbc1,5,428.0638,430.0622,space,1,0,5,5,8,1,I,space,0.6018,,,,,,,,,,,
,,,,,R_9uD6qGqxcVynfWM,001,2025-09-13_13h18.55.705,continuous_performance_test,2024.2.4,Win32,59.88023952,ecd45762-a3de-4113-9259-7b2b602ebbc1,5,430.0643,431.7631,space,1,0,6,6,12,1,M,space,0.5015,,,,,,,,,,,
,,,,,R_9uD6qGqxcVynfWM,001,2025-09-13_13h18.55.705,continuous_performance_test,2024.2.4,Win32,59.88023952,ecd45762-a3de-4113-9259-7b2b602ebbc1,5,431.7647,433.5135,space,1,0,7,7,0,1,A,space,0.5285,,,,,,,,,,,
,,,,,R_9uD6qGqxcVynfWM,001,2025-09-13_13h18.55.705,continuous_performance_test,2024.2.4,Win32,59.88023952,ecd45762-a3de-4113-9259-7b2b602ebbc1,5,433.5156,435.4648,space,1,0,8,8,17,1,R,space,0.396,,,,,,,,,,,
,,,,,R_9uD6qGqxcVynfWM,001,2025-09-13_13h18.55.705,continuous_performance_test,2024.2.4,Win32,59.88023952,ecd45762-a3de-4113-9259-7b2b602ebbc1,5,435.4667,437.2647,space,1,0,9,9,22,1,W,space,0.3856,,,,,,,,,,,
,,,,,R_9uD6qGqxcVynfWM,001,2025-09-13_13h18.55.705,continuous_performance_test,2024.2.4,Win32,59.88023952,ecd45762-a3de-4113-9259-7b2b602ebbc1,5,437.267,439.166,space,1,0,10,10,2,1,C,space,0.4535,,,,,,,,,,,
,,,,,R_9uD6qGqxcVynfWM,001,2025-09-13_13h18.55.705,continuous_performance_test,2024.2.4,Win32,59.88023952,ecd45762-a3de-4113-9259-7b2b602ebbc1,5,439.168,441.1163,space,1,0,11,11,3,1,D,space,0.377,,,,,,,,,,,
,,,,,R_9uD6qGqxcVynfWM,001,2025-09-13_13h18.55.705,continuous_performance_test,2024.2.4,Win32,59.88023952,ecd45762-a3de-4113-9259-7b2b602ebbc1,5,441.1183,443.1173,space,1,0,12,12,1,1,B,space,0.4087,,,,,,,,,,,
,,,,,R_9uD6qGqxcVynfWM,001,2025-09-13_13h18.55.705,continuous_performance_test,2024.2.4,Win32,59.88023952,ecd45762-a3de-4113-9259-7b2b602ebbc1,5,443.1188,444.9682,,1,0,13,13,28,1,X,,,,,,,,,,,,,
,,,,,R_9uD6qGqxcVynfWM,001,2025-09-13_13h18.55.705,continuous_performance_test,2024.2.4,Win32,59.88023952,ecd45762-a3de-4113-9259-7b2b602ebbc1,5,444.9703,446.9191,space,1,0,14,14,21,1,V,space,0.5183,,,,,,,,,,,
,,,,,R_9uD6qGqxcVynfWM,001,2025-09-13_13h18.55.705,continuous_performance_test,2024.2.4,Win32,59.88023952,ecd45762-a3de-4113-9259-7b2b602ebbc1,5,446.9212,448.8194,,1,0,15,15,29,1,X,,,,,,,,,,,,,
,,,,,R_9uD6qGqxcVynfWM,001,2025-09-13_13h18.55.705,continuous_performance_test,2024.2.4,Win32,59.88023952,ecd45762-a3de-4113-9259-7b2b602ebbc1,5,448.821,450.4705,space,1,0,16,16,5,1,F,space,0.4959,,,,,,,,,,,
,,,,,R_9uD6qGqxcVynfWM,001,2025-09-13_13h18.55.705,continuous_performance_test,2024.2.4,Win32,59.88023952,ecd45762-a3de-4113-9259-7b2b602ebbc1,5,450.4727,452.4211,space,1,0,17,17,7,1,H,space,0.5378,,,,,,,,,,,
,,,,,R_9uD6qGqxcVynfWM,001,2025-09-13_13h18.55.705,continuous_performance_test,2024.2.4,Win32,59.88023952,ecd45762-a3de-4113-9259-7b2b602ebbc1,5,452.4233,453.9718,,1,0,18,18,25,1,X,,,,,,,,,,,,,
,,,,,R_9uD6qGqxcVynfWM,001,2025-09-13_13h18.55.705,continuous_performance_test,2024.2.4,Win32,59.88023952,ecd45762-a3de-4113-9259-7b2b602ebbc1,5,453.9732,455.522,,1,0,19,19,27,1,X,,,,,,,,,,,,,
,,,,,R_9uD6qGqxcVynfWM,001,2025-09-13_13h18.55.705,continuous_performance_test,2024.2.4,Win32,59.88023952,ecd45762-a3de-4113-9259-7b2b602ebbc1,5,455.5239,457.4725,space,1,0,20,20,18,1,S,space,0.4177,,,,,,,,,,,
,,,,,R_9uD6qGqxcVynfWM,001,2025-09-13_13h18.55.705,continuous_performance_test,2024.2.4,Win32,59.88023952,ecd45762-a3de-4113-9259-7b2b602ebbc1,5,457.4747,459.0237,space,1,0,21,21,15,1,P,space,0.5018,,,,,,,,,,,
,,,,,R_9uD6qGqxcVynfWM,001,2025-09-13_13h18.55.705,continuous_performance_test,2024.2.4,Win32,59.88023952,ecd45762-a3de-4113-9259-7b2b602ebbc1,5,459.0258,460.7243,space,1,0,22,22,11,1,L,space,0.6234,,,,,,,,,,,
,,,,,R_9uD6qGqxcVynfWM,001,2025-09-13_13h18.55.705,continuous_performance_test,2024.2.4,Win32,59.88023952,ecd45762-a3de-4113-9259-7b2b602ebbc1,5,460.7263,462.3752,space,1,0,23,23,9,1,J,space,0.4447,,,,,,,,,,,
,,,,,R_9uD6qGqxcVynfWM,001,2025-09-13_13h18.55.705,continuous_performance_test,2024.2.4,Win32,59.88023952,ecd45762-a3de-4113-9259-7b2b602ebbc1,5,462.3805,464.1757,,1,0,24,24,26,1,X,,,,,,,,,,,,,
,,,,,R_9uD6qGqxcVynfWM,001,2025-09-13_13h18.55.705,continuous_performance_test,2024.2.4,Win32,59.88023952,ecd45762-a3de-4113-9259-7b2b602ebbc1,5,464.1776,466.0765,space,1,0,25,25,6,1,G,space,0.5855,,,,,,,,,,,
,,,,,R_9uD6qGqxcVynfWM,001,2025-09-13_13h18.55.705,continuous_performance_test,2024.2.4,Win32,59.88023952,ecd45762-a3de-4113-9259-7b2b602ebbc1,5,466.0786,467.6267,space,1,0,26,26,24,1,Z,space,0.4899,,,,,,,,,,,
,,,,,R_9uD6qGqxcVynfWM,001,2025-09-13_13h18.55.705,continuous_performance_test,2024.2.4,Win32,59.88023952,ecd45762-a3de-4113-9259-7b2b602ebbc1,5,467.6301,469.6277,space,1,0,27,27,20,1,U,space,0.5585,,,,,,,,,,,
,,,,,R_9uD6qGqxcVynfWM,001,2025-09-13_13h18.55.705,continuous_performance_test,2024.2.4,Win32,59.88023952,ecd45762-a3de-4113-9259-7b2b602ebbc1,5,469.63,471.1782,space,1,0,28,28,10,1,K,space,0.5845,,,,,,,,,,,
,,,,,R_9uD6qGqxcVynfWM,001,2025-09-13_13h18.55.705,continuous_performance_test,2024.2.4,Win32,59.88023952,ecd45762-a3de-4113-9259-7b2b602ebbc1,5,471.1807,472.9786,space,1,0,29,29,13,1,N,space,0.6349,,,,,,,,,,,
,,,,,R_9uD6qGqxcVynfWM,001,2025-09-13_13h18.55.705,continuous_performance_test,2024.2.4,Win32,59.88023952,ecd45762-a3de-4113-9259-7b2b602ebbc1,5,478.7897,480.4818,space,1,0,0,0,23,1,Y,space,0.4841,,472.9803,478.7813,space,5.7754,,,,,,
,,,,,R_9uD6qGqxcVynfWM,001,2025-09-13_13h18.55.705,continuous_performance_test,2024.2.4,Win32,59.88023952,ecd45762-a3de-4113-9259-7b2b602ebbc1,5,480.4837,482.1827,space,1,0,1,1,22,1,W,space,0.5098,,,,,,,,,,,
,,,,,R_9uD6qGqxcVynfWM,001,2025-09-13_13h18.55.705,continuous_performance_test,2024.2.4,Win32,59.88023952,ecd45762-a3de-4113-9259-7b2b602ebbc1,5,482.185,483.7831,space,1,0,2,2,1,1,B,space,0.4712,,,,,,,,,,,
,,,,,R_9uD6qGqxcVynfWM,001,2025-09-13_13h18.55.705,continuous_performance_test,2024.2.4,Win32,59.88023952,ecd45762-a3de-4113-9259-7b2b602ebbc1,5,483.785,485.6836,space,1,0,3,3,4,1,E,space,0.3942,,,,,,,,,,,
,,,,,R_9uD6qGqxcVynfWM,001,2025-09-13_13h18.55.705,continuous_performance_test,2024.2.4,Win32,59.88023952,ecd45762-a3de-4113-9259-7b2b602ebbc1,5,485.6855,487.2346,,1,0,4,4,26,1,X,,,,,,,,,,,,,
,,,,,R_9uD6qGqxcVynfWM,001,2025-09-13_13h18.55.705,continuous_performance_test,2024.2.4,Win32,59.88023952,ecd45762-a3de-4113-9259-7b2b602ebbc1,5,487.237,489.0352,space,1,0,5,5,7,1,H,space,0.391,,,,,,,,,,,
,,,,,R_9uD6qGqxcVynfWM,001,2025-09-13_13h18.55.705,continuous_performance_test,2024.2.4,Win32,59.88023952,ecd45762-a3de-4113-9259-7b2b602ebbc1,5,489.037,490.686,space,1,0,6,6,24,1,Z,space,0.4593,,,,,,,,,,,
,,,,,R_9uD6qGqxcVynfWM,001,2025-09-13_13h18.55.705,continuous_performance_test,2024.2.4,Win32,59.88023952,ecd45762-a3de-4113-9259-7b2b602ebbc1,5,490.688,492.6364,space,1,0,7,7,19,1,T,space,0.2953,,,,,,,,,,,
,,,,,R_9uD6qGqxcVynfWM,001,2025-09-13_13h18.55.705,continuous_performance_test,2024.2.4,Win32,59.88023952,ecd45762-a3de-4113-9259-7b2b602ebbc1,5,492.6383,494.3869,space,1,0,8,8,18,1,S,space,0.2848,,,,,,,,,,,
,,,,,R_9uD6qGqxcVynfWM,001,2025-09-13_13h18.55.705,continuous_performance_test,2024.2.4,Win32,59.88023952,ecd45762-a3de-4113-9259-7b2b602ebbc1,5,494.389,496.389,space,0,0,9,9,25,1,X,,0.3713,,,,,,,,,,,
,,,,,R_9uD6qGqxcVynfWM,001,2025-09-13_13h18.55.705,continuous_performance_test,2024.2.4,Win32,59.88023952,ecd45762-a3de-4113-9259-7b2b602ebbc1,5,496.3905,497.9888,space,0,0,10,10,29,1,X,,0.358,,,,,,,,,,,
,,,,,R_9uD6qGqxcVynfWM,001,2025-09-13_13h18.55.705,continuous_performance_test,2024.2.4,Win32,59.88023952,ecd45762-a3de-4113-9259-7b2b602ebbc1,5,497.9907,499.6895,space,1,0,11,11,0,1,A,space,0.602,,,,,,,,,,,
,,,,,R_9uD6qGqxcVynfWM,001,2025-09-13_13h18.55.705,continuous_performance_test,2024.2.4,Win32,59.88023952,ecd45762-a3de-4113-9259-7b2b602ebbc1,5,499.6915,501.3397,space,1,0,12,12,6,1,G,space,0.368,,,,,,,,,,,
,,,,,R_9uD6qGqxcVynfWM,001,2025-09-13_13h18.55.705,continuous_performance_test,2024.2.4,Win32,59.88023952,ecd45762-a3de-4113-9259-7b2b602ebbc1,5,501.342,502.8905,space,1,0,13,13,14,1,O,space,0.3344,,,,,,,,,,,
,,,,,R_9uD6qGqxcVynfWM,001,2025-09-13_13h18.55.705,continuous_performance_test,2024.2.4,Win32,59.88023952,ecd45762-a3de-4113-9259-7b2b602ebbc1,5,502.8924,504.4911,space,1,0,14,14,9,1,J,space,0.3551,,,,,,,,,,,
,,,,,R_9uD6qGqxcVynfWM,001,2025-09-13_13h18.55.705,continuous_performance_test,2024.2.4,Win32,59.88023952,ecd45762-a3de-4113-9259-7b2b602ebbc1,5,504.4932,506.1911,space,1,0,15,15,12,1,M,space,0.3511,,,,,,,,,,,
,,,,,R_9uD6qGqxcVynfWM,001,2025-09-13_13h18.55.705,continuous_performance_test,2024.2.4,Win32,59.88023952,ecd45762-a3de-4113-9259-7b2b602ebbc1,5,506.193,507.792,space,1,0,16,16,20,1,U,space,0.3045,,,,,,,,,,,
,,,,,R_9uD6qGqxcVynfWM,001,2025-09-13_13h18.55.705,continuous_performance_test,2024.2.4,Win32,59.88023952,ecd45762-a3de-4113-9259-7b2b602ebbc1,5,507.7948,509.5932,space,1,0,17,17,2,1,C,space,0.2434,,,,,,,,,,,
,,,,,R_9uD6qGqxcVynfWM,001,2025-09-13_13h18.55.705,continuous_performance_test,2024.2.4,Win32,59.88023952,ecd45762-a3de-4113-9259-7b2b602ebbc1,5,509.5949,511.394,space,1,0,18,18,11,1,L,space,0.2361,,,,,,,,,,,
,,,,,R_9uD6qGqxcVynfWM,001,2025-09-13_13h18.55.705,continuous_performance_test,2024.2.4,Win32,59.88023952,ecd45762-a3de-4113-9259-7b2b602ebbc1,5,511.3961,513.1948,space,1,0,19,19,13,1,N,space,0.3012,,,,,,,,,,,
,,,,,R_9uD6qGqxcVynfWM,001,2025-09-13_13h18.55.705,continuous_performance_test,2024.2.4,Win32,59.88023952,ecd45762-a3de-4113-9259-7b2b602ebbc1,5,513.1968,514.7953,space,0,0,20,20,27,1,X,,0.2676,,,,,,,,,,,
,,,,,R_9uD6qGqxcVynfWM,001,2025-09-13_13h18.55.705,continuous_performance_test,2024.2.4,Win32,59.88023952,ecd45762-a3de-4113-9259-7b2b602ebbc1,5,514.7972,516.596,space,1,0,21,21,17,1,R,space,0.2848,,,,,,,,,,,
,,,,,R_9uD6qGqxcVynfWM,001,2025-09-13_13h18.55.705,continuous_performance_test,2024.2.4,Win32,59.88023952,ecd45762-a3de-4113-9259-7b2b602ebbc1,5,516.5981,518.5468,space,1,0,22,22,5,1,F,space,0.5584,,,,,,,,,,,
,,,,,R_9uD6qGqxcVynfWM,001,2025-09-13_13h18.55.705,continuous_performance_test,2024.2.4,Win32,59.88023952,ecd45762-a3de-4113-9259-7b2b602ebbc1,5,518.549,520.1475,space,1,0,23,23,16,1,Q,space,0.3389,,,,,,,,,,,
,,,,,R_9uD6qGqxcVynfWM,001,2025-09-13_13h18.55.705,continuous_performance_test,2024.2.4,Win32,59.88023952,ecd45762-a3de-4113-9259-7b2b602ebbc1,5,520.1496,522.048,space,1,0,24,24,21,1,V,space,0.3009,,,,,,,,,,,
,,,,,R_9uD6qGqxcVynfWM,001,2025-09-13_13h18.55.705,continuous_performance_test,2024.2.4,Win32,59.88023952,ecd45762-a3de-4113-9259-7b2b602ebbc1,5,522.05,523.899,,1,0,25,25,28,1,X,,,,,,,,,,,,,
,,,,,R_9uD6qGqxcVynfWM,001,2025-09-13_13h18.55.705,continuous_performance_test,2024.2.4,Win32,59.88023952,ecd45762-a3de-4113-9259-7b2b602ebbc1,5,523.901,525.7491,space,1,0,26,26,15,1,P,space,0.3681,,,,,,,,,,,
,,,,,R_9uD6qGqxcVynfWM,001,2025-09-13_13h18.55.705,continuous_performance_test,2024.2.4,Win32,59.88023952,ecd45762-a3de-4113-9259-7b2b602ebbc1,5,525.7513,527.3502,space,1,0,27,27,8,1,I,space,0.2848,,,,,,,,,,,
,,,,,R_9uD6qGqxcVynfWM,001,2025-09-13_13h18.55.705,continuous_performance_test,2024.2.4,Win32,59.88023952,ecd45762-a3de-4113-9259-7b2b602ebbc1,5,527.3524,529.0001,space,1,0,28,28,10,1,K,space,0.433,,,,,,,,,,,
,,,,,R_9uD6qGqxcVynfWM,001,2025-09-13_13h18.55.705,continuous_performance_test,2024.2.4,Win32,59.88023952,ecd45762-a3de-4113-9259-7b2b602ebbc1,5,529.002,530.6014,space,1,0,29,29,3,1,D,space,0.4405,,,,,,,,,,,
,,,,,R_9uD6qGqxcVynfWM,001,2025-09-13_13h18.55.705,continuous_performance_test,2024.2.4,Win32,59.88023952,ecd45762-a3de-4113-9259-7b2b602ebbc1,5,534.1446,535.9867,,1,0,0,0,25,1,X,,,,530.6035,534.1359,space,3.5025,,,,,,
,,,,,R_9uD6qGqxcVynfWM,001,2025-09-13_13h18.55.705,continuous_performance_test,2024.2.4,Win32,59.88023952,ecd45762-a3de-4113-9259-7b2b602ebbc1,5,535.9887,537.5374,space,1,0,1,1,21,1,V,space,0.585,,,,,,,,,,,
,,,,,R_9uD6qGqxcVynfWM,001,2025-09-13_13h18.55.705,continuous_performance_test,2024.2.4,Win32,59.88023952,ecd45762-a3de-4113-9259-7b2b602ebbc1,5,537.5391,539.2382,space,1,0,2,2,17,1,R,space,0.5896,,,,,,,,,,,
,,,,,R_9uD6qGqxcVynfWM,001,2025-09-13_13h18.55.705,continuous_performance_test,2024.2.4,Win32,59.88023952,ecd45762-a3de-4113-9259-7b2b602ebbc1,5,539.2401,540.8885,space,1,0,3,3,6,1,G,space,0.7295,,,,,,,,,,,
,,,,,R_9uD6qGqxcVynfWM,001,2025-09-13_13h18.55.705,continuous_performance_test,2024.2.4,Win32,59.88023952,ecd45762-a3de-4113-9259-7b2b602ebbc1,5,540.8906,542.4395,space,1,0,4,4,8,1,I,space,0.7518,,,,,,,,,,,
,,,,,R_9uD6qGqxcVynfWM,001,2025-09-13_13h18.55.705,continuous_performance_test,2024.2.4,Win32,59.88023952,ecd45762-a3de-4113-9259-7b2b602ebbc1,5,542.4415,544.34,space,1,0,5,5,18,1,S,space,0.7367,,,,,,,,,,,
,,,,,R_9uD6qGqxcVynfWM,001,2025-09-13_13h18.55.705,continuous_performance_test,2024.2.4,Win32,59.88023952,ecd45762-a3de-4113-9259-7b2b602ebbc1,5,544.3422,546.0416,space,1,0,6,6,23,1,Y,space,0.6784,,,,,,,,,,,
,,,,,R_9uD6qGqxcVynfWM,001,2025-09-13_13h18.55.705,continuous_performance_test,2024.2.4,Win32,59.88023952,ecd45762-a3de-4113-9259-7b2b602ebbc1,5,546.0436,547.6412,space,1,0,7,7,22,1,W,space,0.809,,,,,,,,,,,
,,,,,R_9uD6qGqxcVynfWM,001,2025-09-13_13h18.55.705,continuous_performance_test,2024.2.4,Win32,59.88023952,ecd45762-a3de-4113-9259-7b2b602ebbc1,5,547.6433,549.3914,space,1,0,8,8,19,1,T,space,0.8408,,,,,,,,,,,
,,,,,R_9uD6qGqxcVynfWM,001,2025-09-13_13h18.55.705,continuous_performance_test,2024.2.4,Win32,59.88023952,ecd45762-a3de-4113-9259-7b2b602ebbc1,5,549.3931,551.1424,,1,0,9,9,26,1,X,,,,,,,,,,,,,
,,,,,R_9uD6qGqxcVynfWM,001,2025-09-13_13h18.55.705,continuous_performance_test,2024.2.4,Win32,59.88023952,ecd45762-a3de-4113-9259-7b2b602ebbc1,5,551.1444,552.7428,space,1,0,10,10,10,1,K,space,0.6559,,,,,,,,,,,
,,,,,R_9uD6qGqxcVynfWM,001,2025-09-13_13h18.55.705,continuous_performance_test,2024.2.4,Win32,59.88023952,ecd45762-a3de-4113-9259-7b2b602ebbc1,5,552.7449,554.5937,,1,0,11,11,28,1,X,,,,,,,,,,,,,
,,,,,R_9uD6qGqxcVynfWM,001,2025-09-13_13h18.55.705,continuous_performance_test,2024.2.4,Win32,59.88023952,ecd45762-a3de-4113-9259-7b2b602ebbc1,5,554.5956,556.2447,space,1,0,12,12,7,1,H,space,0.5894,,,,,,,,,,,
,,,,,R_9uD6qGqxcVynfWM,001,2025-09-13_13h18.55.705,continuous_performance_test,2024.2.4,Win32,59.88023952,ecd45762-a3de-4113-9259-7b2b602ebbc1,5,556.2462,557.7943,,1,0,13,13,29,1,X,,,,,,,,,,,,,
,,,,,R_9uD6qGqxcVynfWM,001,2025-09-13_13h18.55.705,continuous_performance_test,2024.2.4,Win32,59.88023952,ecd45762-a3de-4113-9259-7b2b602ebbc1,5,557.796,559.346,space,1,0,14,14,2,1,C,space,0.5423,,,,,,,,,,,
,,,,,R_9uD6qGqxcVynfWM,001,2025-09-13_13h18.55.705,continuous_performance_test,2024.2.4,Win32,59.88023952,ecd45762-a3de-4113-9259-7b2b602ebbc1,5,559.3477,561.2967,space,1,0,15,15,11,1,L,space,0.5423,,,,,,,,,,,
,,,,,R_9uD6qGqxcVynfWM,001,2025-09-13_13h18.55.705,continuous_performance_test,2024.2.4,Win32,59.88023952,ecd45762-a3de-4113-9259-7b2b602ebbc1,5,561.2987,563.0973,space,1,0,16,16,5,1,F,space,0.4358,,,,,,,,,,,
,,,,,R_9uD6qGqxcVynfWM,001,2025-09-13_13h18.55.705,continuous_performance_test,2024.2.4,Win32,59.88023952,ecd45762-a3de-4113-9259-7b2b602ebbc1,5,563.0993,565.0978,space,1,0,17,17,0,1,A,space,0.4532,,,,,,,,,,,
,,,,,R_9uD6qGqxcVynfWM,001,2025-09-13_13h18.55.705,continuous_performance_test,2024.2.4,Win32,59.88023952,ecd45762-a3de-4113-9259-7b2b602ebbc1,5,565.0996,567.0489,space,1,0,18,18,3,1,D,space,0.5845,,,,,,,,,,,
,,,,,R_9uD6qGqxcVynfWM,001,2025-09-13_13h18.55.705,continuous_performance_test,2024.2.4,Win32,59.88023952,ecd45762-a3de-4113-9259-7b2b602ebbc1,5,567.0509,568.7995,space,1,0,19,19,20,1,U,space,0.6015,,,,,,,,,,,
,,,,,R_9uD6qGqxcVynfWM,001,2025-09-13_13h18.55.705,continuous_performance_test,2024.2.4,Win32,59.88023952,ecd45762-a3de-4113-9259-7b2b602ebbc1,5,568.8017,570.7998,space,1,0,20,20,9,1,J,space,0.4055,,,,,,,,,,,
,,,,,R_9uD6qGqxcVynfWM,001,2025-09-13_13h18.55.705,continuous_performance_test,2024.2.4,Win32,59.88023952,ecd45762-a3de-4113-9259-7b2b602ebbc1,5,570.8017,572.701,space,1,0,21,21,12,1,M,space,0.4459,,,,,,,,,,,
,,,,,R_9uD6qGqxcVynfWM,001,2025-09-13_13h18.55.705,continuous_performance_test,2024.2.4,Win32,59.88023952,ecd45762-a3de-4113-9259-7b2b602ebbc1,5,572.7034,574.5518,space,1,0,22,22,14,1,O,space,0.4851,,,,,,,,,,,
,,,,,R_9uD6qGqxcVynfWM,001,2025-09-13_13h18.55.705,continuous_performance_test,2024.2.4,Win32,59.88023952,ecd45762-a3de-4113-9259-7b2b602ebbc1,5,574.5537,576.1023,space,1,0,23,23,4,1,E,space,0.7013,,,,,,,,,,,
,,,,,R_9uD6qGqxcVynfWM,001,2025-09-13_13h18.55.705,continuous_performance_test,2024.2.4,Win32,59.88023952,ecd45762-a3de-4113-9259-7b2b602ebbc1,5,576.1044,577.6528,space,1,0,24,24,16,1,Q,space,0.5272,,,,,,,,,,,
,,,,,R_9uD6qGqxcVynfWM,001,2025-09-13_13h18.55.705,continuous_performance_test,2024.2.4,Win32,59.88023952,ecd45762-a3de-4113-9259-7b2b602ebbc1,5,577.6548,579.5036,space,1,0,25,25,1,1,B,space,0.5018,,,,,,,,,,,
,,,,,R_9uD6qGqxcVynfWM,001,2025-09-13_13h18.55.705,continuous_performance_test,2024.2.4,Win32,59.88023952,ecd45762-a3de-4113-9259-7b2b602ebbc1,5,579.5056,581.2043,space,1,0,26,26,24,1,Z,space,0.406,,,,,,,,,,,
,,,,,R_9uD6qGqxcVynfWM,001,2025-09-13_13h18.55.705,continuous_performance_test,2024.2.4,Win32,59.88023952,ecd45762-a3de-4113-9259-7b2b602ebbc1,5,581.2064,583.055,space,1,0,27,27,13,1,N,space,0.4584,,,,,,,,,,,
,,,,,R_9uD6qGqxcVynfWM,001,2025-09-13_13h18.55.705,continuous_performance_test,2024.2.4,Win32,59.88023952,ecd45762-a3de-4113-9259-7b2b602ebbc1,5,583.0571,585.0553,space,1,0,28,28,15,1,P,space,0.3558,,,,,,,,,,,
,,,,,R_9uD6qGqxcVynfWM,001,2025-09-13_13h18.55.705,continuous_performance_test,2024.2.4,Win32,59.88023952,ecd45762-a3de-4113-9259-7b2b602ebbc1,5,585.0575,586.6065,,1,0,29,29,27,1,X,,,,,,,,,,,,,
,,,,,R_9uD6qGqxcVynfWM,001,2025-09-13_13h18.55.705,continuous_performance_test,2024.2.4,Win32,59.88023952,ecd45762-a3de-4113-9259-7b2b602ebbc1,5,,,,,,,,,,,,,,586.6081,586.6089,,,,586.6095,595.6603,space,9.0218,
