Instructions.started,Instructions.stopped,key_resp.keys,key_resp.rt,key_resp.duration,participant,session,date,expName,psychopyVersion,OS,frameRate,realeye-tester-id,realeye-tester-quality_grade,Trial_noX.started,Trial_noX.stopped,response.keys,response.corr,response.rt,response.duration,trials_noX.thisRepN,trials_noX.thisTrialN,trials_noX.thisN,trials_noX.thisIndex,trials_noX.ran,letter,corrAns,BlockBreak.started,BlockBreak.stopped,key_instruct.keys,key_instruct.rt,key_instruct.duration,End_NoX.started,End_NoX.stopped,key_resp_end_noX.keys,key_resp_end_noX.rt,key_resp_end_noX.duration
0.0045,32.546,space,32.4651,,R_9VtLROveNCdRTFv,001,2025-09-01_00h01.26.320,continuous_performance_test,2024.2.4,Win32,14.99250375,527cd0e3-8a26-4b1f-a5ea-dd8e547dfc4e,5,,,,,,,,,,,,,,,,,,,,,,,
,,,,,R_9VtLROveNCdRTFv,001,2025-09-01_00h01.26.320,continuous_performance_test,2024.2.4,Win32,14.99250375,527cd0e3-8a26-4b1f-a5ea-dd8e547dfc4e,5,32.562,34.0672,space,1,0.5531,,0,0,0,4,1,E,space,,,,,,,,,,
,,,,,R_9VtLROveNCdRTFv,001,2025-09-01_00h01.26.320,continuous_performance_test,2024.2.4,Win32,14.99250375,527cd0e3-8a26-4b1f-a5ea-dd8e547dfc4e,5,34.0687,35.766,space,1,0.4071,,0,1,1,0,1,A,space,,,,,,,,,,
,,,,,R_9VtLROveNCdRTFv,001,2025-09-01_00h01.26.320,continuous_performance_test,2024.2.4,Win32,14.99250375,527cd0e3-8a26-4b1f-a5ea-dd8e547dfc4e,5,35.7673,37.6681,space,0,0.3237,,0,2,2,29,1,X,,,,,,,,,,,
,,,,,R_9VtLROveNCdRTFv,001,2025-09-01_00h01.26.320,continuous_performance_test,2024.2.4,Win32,14.99250375,527cd0e3-8a26-4b1f-a5ea-dd8e547dfc4e,5,37.6693,39.336,space,1,0.447,,0,3,3,11,1,L,space,,,,,,,,,,
,,,,,R_9VtLROveNCdRTFv,001,2025-09-01_00h01.26.320,continuous_performance_test,2024.2.4,Win32,14.99250375,527cd0e3-8a26-4b1f-a5ea-dd8e547dfc4e,5,39.3371,41.1019,space,0,0.4109,,0,4,4,28,1,X,,,,,,,,,,,
,,,,,R_9VtLROveNCdRTFv,001,2025-09-01_00h01.26.320,continuous_performance_test,2024.2.4,Win32,14.99250375,527cd0e3-8a26-4b1f-a5ea-dd8e547dfc4e,5,41.1032,42.6961,space,1,0.4654,,0,5,5,10,1,K,space,,,,,,,,,,
,,,,,R_9VtLROveNCdRTFv,001,2025-09-01_00h01.26.320,continuous_performance_test,2024.2.4,Win32,14.99250375,527cd0e3-8a26-4b1f-a5ea-dd8e547dfc4e,5,42.6974,44.449,space,1,0.4704,,0,6,6,24,1,Z,space,,,,,,,,,,
,,,,,R_9VtLROveNCdRTFv,001,2025-09-01_00h01.26.320,continuous_performance_test,2024.2.4,Win32,14.99250375,527cd0e3-8a26-4b1f-a5ea-dd8e547dfc4e,5,44.4503,46.0583,space,1,0.4989,,0,7,7,17,1,R,space,,,,,,,,,,
,,,,,R_9VtLROveNCdRTFv,001,2025-09-01_00h01.26.320,continuous_performance_test,2024.2.4,Win32,14.99250375,527cd0e3-8a26-4b1f-a5ea-dd8e547dfc4e,5,46.0594,47.592,space,1,0.4092,,0,8,8,12,1,M,space,,,,,,,,,,
,,,,,R_9VtLROveNCdRTFv,001,2025-09-01_00h01.26.320,continuous_performance_test,2024.2.4,Win32,14.99250375,527cd0e3-8a26-4b1f-a5ea-dd8e547dfc4e,5,47.5931,49.5917,space,1,0.474,,0,9,9,9,1,J,space,,,,,,,,,,
,,,,,R_9VtLROveNCdRTFv,001,2025-09-01_00h01.26.320,continuous_performance_test,2024.2.4,Win32,14.99250375,527cd0e3-8a26-4b1f-a5ea-dd8e547dfc4e,5,49.5924,51.5147,,1,,,0,10,10,27,1,X,,,,,,,,,,,
,,,,,R_9VtLROveNCdRTFv,001,2025-09-01_00h01.26.320,continuous_performance_test,2024.2.4,Win32,14.99250375,527cd0e3-8a26-4b1f-a5ea-dd8e547dfc4e,5,51.5158,53.5096,space,1,0.4108,,0,11,11,19,1,T,space,,,,,,,,,,
,,,,,R_9VtLROveNCdRTFv,001,2025-09-01_00h01.26.320,continuous_performance_test,2024.2.4,Win32,14.99250375,527cd0e3-8a26-4b1f-a5ea-dd8e547dfc4e,5,53.5106,55.1114,space,1,0.4078,,0,12,12,2,1,C,space,,,,,,,,,,
,,,,,R_9VtLROveNCdRTFv,001,2025-09-01_00h01.26.320,continuous_performance_test,2024.2.4,Win32,14.99250375,527cd0e3-8a26-4b1f-a5ea-dd8e547dfc4e,5,55.1123,56.7112,space,1,0.5701,,0,13,13,7,1,H,space,,,,,,,,,,
,,,,,R_9VtLROveNCdRTFv,001,2025-09-01_00h01.26.320,continuous_performance_test,2024.2.4,Win32,14.99250375,527cd0e3-8a26-4b1f-a5ea-dd8e547dfc4e,5,56.7138,58.7084,space,1,0.405,,0,14,14,6,1,G,space,,,,,,,,,,
,,,,,R_9VtLROveNCdRTFv,001,2025-09-01_00h01.26.320,continuous_performance_test,2024.2.4,Win32,14.99250375,527cd0e3-8a26-4b1f-a5ea-dd8e547dfc4e,5,58.7094,60.4371,space,1,0.4808,,0,15,15,22,1,W,space,,,,,,,,,,
,,,,,R_9VtLROveNCdRTFv,001,2025-09-01_00h01.26.320,continuous_performance_test,2024.2.4,Win32,14.99250375,527cd0e3-8a26-4b1f-a5ea-dd8e547dfc4e,5,60.4381,62.3575,space,1,0.4041,,0,16,16,15,1,P,space,,,,,,,,,,
,,,,,R_9VtLROveNCdRTFv,001,2025-09-01_00h01.26.320,continuous_performance_test,2024.2.4,Win32,14.99250375,527cd0e3-8a26-4b1f-a5ea-dd8e547dfc4e,5,62.3586,64.2096,space,1,0.4712,,0,17,17,21,1,V,space,,,,,,,,,,
,,,,,R_9VtLROveNCdRTFv,001,2025-09-01_00h01.26.320,continuous_performance_test,2024.2.4,Win32,14.99250375,527cd0e3-8a26-4b1f-a5ea-dd8e547dfc4e,5,64.2106,66.0747,space,1,0.4781,,0,18,18,1,1,B,space,,,,,,,,,,
,,,,,R_9VtLROveNCdRTFv,001,2025-09-01_00h01.26.320,continuous_performance_test,2024.2.4,Win32,14.99250375,527cd0e3-8a26-4b1f-a5ea-dd8e547dfc4e,5,66.0758,67.6339,space,1,0.4797,,0,19,19,16,1,Q,space,,,,,,,,,,
,,,,,R_9VtLROveNCdRTFv,001,2025-09-01_00h01.26.320,continuous_performance_test,2024.2.4,Win32,14.99250375,527cd0e3-8a26-4b1f-a5ea-dd8e547dfc4e,5,67.6347,69.3432,space,0,0.4108,,0,20,20,25,1,X,,,,,,,,,,,
,,,,,R_9VtLROveNCdRTFv,001,2025-09-01_00h01.26.320,continuous_performance_test,2024.2.4,Win32,14.99250375,527cd0e3-8a26-4b1f-a5ea-dd8e547dfc4e,5,69.3443,71.2611,space,1,0.4002,,0,21,21,23,1,Y,space,,,,,,,,,,
,,,,,R_9VtLROveNCdRTFv,001,2025-09-01_00h01.26.320,continuous_performance_test,2024.2.4,Win32,14.99250375,527cd0e3-8a26-4b1f-a5ea-dd8e547dfc4e,5,71.2622,72.7883,space,1,0.4748,,0,22,22,13,1,N,space,,,,,,,,,,
,,,,,R_9VtLROveNCdRTFv,001,2025-09-01_00h01.26.320,continuous_performance_test,2024.2.4,Win32,14.99250375,527cd0e3-8a26-4b1f-a5ea-dd8e547dfc4e,5,72.7893,74.7822,space,1,0.5364,,0,23,23,8,1,I,space,,,,,,,,,,
,,,,,R_9VtLROveNCdRTFv,001,2025-09-01_00h01.26.320,continuous_performance_test,2024.2.4,Win32,14.99250375,527cd0e3-8a26-4b1f-a5ea-dd8e547dfc4e,5,74.7833,76.6333,space,1,0.4935,,0,24,24,14,1,O,space,,,,,,,,,,
,,,,,R_9VtLROveNCdRTFv,001,2025-09-01_00h01.26.320,continuous_performance_test,2024.2.4,Win32,14.99250375,527cd0e3-8a26-4b1f-a5ea-dd8e547dfc4e,5,76.6343,78.5995,space,1,0.4125,,0,25,25,3,1,D,space,,,,,,,,,,
,,,,,R_9VtLROveNCdRTFv,001,2025-09-01_00h01.26.320,continuous_performance_test,2024.2.4,Win32,14.99250375,527cd0e3-8a26-4b1f-a5ea-dd8e547dfc4e,5,78.6007,80.457,space,1,0.4138,,0,26,26,18,1,S,space,,,,,,,,,,
,,,,,R_9VtLROveNCdRTFv,001,2025-09-01_00h01.26.320,continuous_performance_test,2024.2.4,Win32,14.99250375,527cd0e3-8a26-4b1f-a5ea-dd8e547dfc4e,5,80.4581,82.3233,space,1,0.4093,,0,27,27,20,1,U,space,,,,,,,,,,
,,,,,R_9VtLROveNCdRTFv,001,2025-09-01_00h01.26.320,continuous_performance_test,2024.2.4,Win32,14.99250375,527cd0e3-8a26-4b1f-a5ea-dd8e547dfc4e,5,82.3244,84.1305,space,1,0.4767,,0,28,28,5,1,F,space,,,,,,,,,,
,,,,,R_9VtLROveNCdRTFv,001,2025-09-01_00h01.26.320,continuous_performance_test,2024.2.4,Win32,14.99250375,527cd0e3-8a26-4b1f-a5ea-dd8e547dfc4e,5,84.1312,85.9513,,1,,,0,29,29,26,1,X,,,,,,,,,,,
,,,,,R_9VtLROveNCdRTFv,001,2025-09-01_00h01.26.320,continuous_performance_test,2024.2.4,Win32,14.99250375,527cd0e3-8a26-4b1f-a5ea-dd8e547dfc4e,5,100.914,102.4439,space,1,0.4832,,0,0,0,16,1,Q,space,85.952,100.9088,,,,,,,,
,,,,,R_9VtLROveNCdRTFv,001,2025-09-01_00h01.26.320,continuous_performance_test,2024.2.4,Win32,14.99250375,527cd0e3-8a26-4b1f-a5ea-dd8e547dfc4e,5,102.4454,104.0619,space,1,0.4546,,0,1,1,18,1,S,space,,,,,,,,,,
,,,,,R_9VtLROveNCdRTFv,001,2025-09-01_00h01.26.320,continuous_performance_test,2024.2.4,Win32,14.99250375,527cd0e3-8a26-4b1f-a5ea-dd8e547dfc4e,5,104.0627,105.6501,space,1,0.4458,,0,2,2,1,1,B,space,,,,,,,,,,
,,,,,R_9VtLROveNCdRTFv,001,2025-09-01_00h01.26.320,continuous_performance_test,2024.2.4,Win32,14.99250375,527cd0e3-8a26-4b1f-a5ea-dd8e547dfc4e,5,105.6508,107.4282,space,1,0.3878,,0,3,3,15,1,P,space,,,,,,,,,,
,,,,,R_9VtLROveNCdRTFv,001,2025-09-01_00h01.26.320,continuous_performance_test,2024.2.4,Win32,14.99250375,527cd0e3-8a26-4b1f-a5ea-dd8e547dfc4e,5,107.4289,109.2555,space,1,0.3838,,0,4,4,9,1,J,space,,,,,,,,,,
,,,,,R_9VtLROveNCdRTFv,001,2025-09-01_00h01.26.320,continuous_performance_test,2024.2.4,Win32,14.99250375,527cd0e3-8a26-4b1f-a5ea-dd8e547dfc4e,5,109.2561,110.8402,space,1,0.449,,0,5,5,4,1,E,space,,,,,,,,,,
,,,,,R_9VtLROveNCdRTFv,001,2025-09-01_00h01.26.320,continuous_performance_test,2024.2.4,Win32,14.99250375,527cd0e3-8a26-4b1f-a5ea-dd8e547dfc4e,5,110.841,112.4811,space,1,0.3832,,0,6,6,13,1,N,space,,,,,,,,,,
,,,,,R_9VtLROveNCdRTFv,001,2025-09-01_00h01.26.320,continuous_performance_test,2024.2.4,Win32,14.99250375,527cd0e3-8a26-4b1f-a5ea-dd8e547dfc4e,5,112.482,114.0811,space,1,0.4077,,0,7,7,20,1,U,space,,,,,,,,,,
,,,,,R_9VtLROveNCdRTFv,001,2025-09-01_00h01.26.320,continuous_performance_test,2024.2.4,Win32,14.99250375,527cd0e3-8a26-4b1f-a5ea-dd8e547dfc4e,5,114.0819,115.8863,space,1,0.3957,,0,8,8,24,1,Z,space,,,,,,,,,,
,,,,,R_9VtLROveNCdRTFv,001,2025-09-01_00h01.26.320,continuous_performance_test,2024.2.4,Win32,14.99250375,527cd0e3-8a26-4b1f-a5ea-dd8e547dfc4e,5,115.8872,117.8966,space,1,0.455,,0,9,9,2,1,C,space,,,,,,,,,,
,,,,,R_9VtLROveNCdRTFv,001,2025-09-01_00h01.26.320,continuous_performance_test,2024.2.4,Win32,14.99250375,527cd0e3-8a26-4b1f-a5ea-dd8e547dfc4e,5,117.898,119.5346,space,1,0.5061,,0,10,10,10,1,K,space,,,,,,,,,,
,,,,,R_9VtLROveNCdRTFv,001,2025-09-01_00h01.26.320,continuous_performance_test,2024.2.4,Win32,14.99250375,527cd0e3-8a26-4b1f-a5ea-dd8e547dfc4e,5,119.5354,121.2613,space,1,0.3902,,0,11,11,7,1,H,space,,,,,,,,,,
,,,,,R_9VtLROveNCdRTFv,001,2025-09-01_00h01.26.320,continuous_performance_test,2024.2.4,Win32,14.99250375,527cd0e3-8a26-4b1f-a5ea-dd8e547dfc4e,5,121.2621,123.0917,,1,,,0,12,12,25,1,X,,,,,,,,,,,
,,,,,R_9VtLROveNCdRTFv,001,2025-09-01_00h01.26.320,continuous_performance_test,2024.2.4,Win32,14.99250375,527cd0e3-8a26-4b1f-a5ea-dd8e547dfc4e,5,123.0923,124.7476,space,1,0.4154,,0,13,13,0,1,A,space,,,,,,,,,,
,,,,,R_9VtLROveNCdRTFv,001,2025-09-01_00h01.26.320,continuous_performance_test,2024.2.4,Win32,14.99250375,527cd0e3-8a26-4b1f-a5ea-dd8e547dfc4e,5,124.7488,126.2778,space,0,0.3552,,0,14,14,28,1,X,,,,,,,,,,,
,,,,,R_9VtLROveNCdRTFv,001,2025-09-01_00h01.26.320,continuous_performance_test,2024.2.4,Win32,14.99250375,527cd0e3-8a26-4b1f-a5ea-dd8e547dfc4e,5,126.2785,128.0512,space,1,0.4244,,0,15,15,14,1,O,space,,,,,,,,,,
,,,,,R_9VtLROveNCdRTFv,001,2025-09-01_00h01.26.320,continuous_performance_test,2024.2.4,Win32,14.99250375,527cd0e3-8a26-4b1f-a5ea-dd8e547dfc4e,5,128.0519,129.5848,space,1,0.4522,,0,16,16,17,1,R,space,,,,,,,,,,
,,,,,R_9VtLROveNCdRTFv,001,2025-09-01_00h01.26.320,continuous_performance_test,2024.2.4,Win32,14.99250375,527cd0e3-8a26-4b1f-a5ea-dd8e547dfc4e,5,129.5855,131.4414,space,1,0.3971,,0,17,17,3,1,D,space,,,,,,,,,,
,,,,,R_9VtLROveNCdRTFv,001,2025-09-01_00h01.26.320,continuous_performance_test,2024.2.4,Win32,14.99250375,527cd0e3-8a26-4b1f-a5ea-dd8e547dfc4e,5,131.4422,133.1697,,1,,,0,18,18,27,1,X,,,,,,,,,,,
,,,,,R_9VtLROveNCdRTFv,001,2025-09-01_00h01.26.320,continuous_performance_test,2024.2.4,Win32,14.99250375,527cd0e3-8a26-4b1f-a5ea-dd8e547dfc4e,5,133.1703,134.7674,,1,,,0,19,19,29,1,X,,,,,,,,,,,
,,,,,R_9VtLROveNCdRTFv,001,2025-09-01_00h01.26.320,continuous_performance_test,2024.2.4,Win32,14.99250375,527cd0e3-8a26-4b1f-a5ea-dd8e547dfc4e,5,134.7682,136.5243,space,1,0.4303,,0,20,20,19,1,T,space,,,,,,,,,,
,,,,,R_9VtLROveNCdRTFv,001,2025-09-01_00h01.26.320,continuous_performance_test,2024.2.4,Win32,14.99250375,527cd0e3-8a26-4b1f-a5ea-dd8e547dfc4e,5,136.5249,138.1192,space,1,0.4679,,0,21,21,11,1,L,space,,,,,,,,,,
,,,,,R_9VtLROveNCdRTFv,001,2025-09-01_00h01.26.320,continuous_performance_test,2024.2.4,Win32,14.99250375,527cd0e3-8a26-4b1f-a5ea-dd8e547dfc4e,5,138.1198,139.9262,space,1,0.4535,,0,22,22,5,1,F,space,,,,,,,,,,
,,,,,R_9VtLROveNCdRTFv,001,2025-09-01_00h01.26.320,continuous_performance_test,2024.2.4,Win32,14.99250375,527cd0e3-8a26-4b1f-a5ea-dd8e547dfc4e,5,139.9269,141.8474,space,1,0.3956,,0,23,23,6,1,G,space,,,,,,,,,,
,,,,,R_9VtLROveNCdRTFv,001,2025-09-01_00h01.26.320,continuous_performance_test,2024.2.4,Win32,14.99250375,527cd0e3-8a26-4b1f-a5ea-dd8e547dfc4e,5,141.8481,143.4356,space,1,0.3423,,0,24,24,21,1,V,space,,,,,,,,,,
,,,,,R_9VtLROveNCdRTFv,001,2025-09-01_00h01.26.320,continuous_performance_test,2024.2.4,Win32,14.99250375,527cd0e3-8a26-4b1f-a5ea-dd8e547dfc4e,5,143.4363,145.0287,space,1,0.4522,,0,25,25,22,1,W,space,,,,,,,,,,
,,,,,R_9VtLROveNCdRTFv,001,2025-09-01_00h01.26.320,continuous_performance_test,2024.2.4,Win32,14.99250375,527cd0e3-8a26-4b1f-a5ea-dd8e547dfc4e,5,145.0294,146.6915,,1,,,0,26,26,26,1,X,,,,,,,,,,,
,,,,,R_9VtLROveNCdRTFv,001,2025-09-01_00h01.26.320,continuous_performance_test,2024.2.4,Win32,14.99250375,527cd0e3-8a26-4b1f-a5ea-dd8e547dfc4e,5,146.6922,148.5683,space,1,0.4857,,0,27,27,23,1,Y,space,,,,,,,,,,
,,,,,R_9VtLROveNCdRTFv,001,2025-09-01_00h01.26.320,continuous_performance_test,2024.2.4,Win32,14.99250375,527cd0e3-8a26-4b1f-a5ea-dd8e547dfc4e,5,148.569,150.4972,space,1,0.5843,,0,28,28,8,1,I,space,,,,,,,,,,
,,,,,R_9VtLROveNCdRTFv,001,2025-09-01_00h01.26.320,continuous_performance_test,2024.2.4,Win32,14.99250375,527cd0e3-8a26-4b1f-a5ea-dd8e547dfc4e,5,150.4978,152.3858,space,1,0.5977,,0,29,29,12,1,M,space,,,,,,,,,,
,,,,,R_9VtLROveNCdRTFv,001,2025-09-01_00h01.26.320,continuous_performance_test,2024.2.4,Win32,14.99250375,527cd0e3-8a26-4b1f-a5ea-dd8e547dfc4e,5,167.372,169.0273,space,1,0.4601,,0,0,0,14,1,O,space,152.3864,167.3683,,,,,,,,
,,,,,R_9VtLROveNCdRTFv,001,2025-09-01_00h01.26.320,continuous_performance_test,2024.2.4,Win32,14.99250375,527cd0e3-8a26-4b1f-a5ea-dd8e547dfc4e,5,169.028,170.5832,space,1,0.4536,,0,1,1,21,1,V,space,,,,,,,,,,
,,,,,R_9VtLROveNCdRTFv,001,2025-09-01_00h01.26.320,continuous_performance_test,2024.2.4,Win32,14.99250375,527cd0e3-8a26-4b1f-a5ea-dd8e547dfc4e,5,170.584,172.3085,space,1,0.4177,,0,2,2,5,1,F,space,,,,,,,,,,
,,,,,R_9VtLROveNCdRTFv,001,2025-09-01_00h01.26.320,continuous_performance_test,2024.2.4,Win32,14.99250375,527cd0e3-8a26-4b1f-a5ea-dd8e547dfc4e,5,172.3092,174.0939,space,1,0.4593,,0,3,3,0,1,A,space,,,,,,,,,,
,,,,,R_9VtLROveNCdRTFv,001,2025-09-01_00h01.26.320,continuous_performance_test,2024.2.4,Win32,14.99250375,527cd0e3-8a26-4b1f-a5ea-dd8e547dfc4e,5,174.0946,175.6965,,1,,,0,4,4,26,1,X,,,,,,,,,,,
,,,,,R_9VtLROveNCdRTFv,001,2025-09-01_00h01.26.320,continuous_performance_test,2024.2.4,Win32,14.99250375,527cd0e3-8a26-4b1f-a5ea-dd8e547dfc4e,5,175.6972,177.3141,space,1,0.4704,,0,5,5,7,1,H,space,,,,,,,,,,
,,,,,R_9VtLROveNCdRTFv,001,2025-09-01_00h01.26.320,continuous_performance_test,2024.2.4,Win32,14.99250375,527cd0e3-8a26-4b1f-a5ea-dd8e547dfc4e,5,177.3147,178.9075,space,1,0.3259,,0,6,6,20,1,U,space,,,,,,,,,,
,,,,,R_9VtLROveNCdRTFv,001,2025-09-01_00h01.26.320,continuous_performance_test,2024.2.4,Win32,14.99250375,527cd0e3-8a26-4b1f-a5ea-dd8e547dfc4e,5,178.9082,180.8312,space,1,0.3923,,0,7,7,17,1,R,space,,,,,,,,,,
,,,,,R_9VtLROveNCdRTFv,001,2025-09-01_00h01.26.320,continuous_performance_test,2024.2.4,Win32,14.99250375,527cd0e3-8a26-4b1f-a5ea-dd8e547dfc4e,5,180.8319,182.4737,space,1,0.4733,,0,8,8,6,1,G,space,,,,,,,,,,
,,,,,R_9VtLROveNCdRTFv,001,2025-09-01_00h01.26.320,continuous_performance_test,2024.2.4,Win32,14.99250375,527cd0e3-8a26-4b1f-a5ea-dd8e547dfc4e,5,182.4744,184.0636,space,1,0.4091,,0,9,9,15,1,P,space,,,,,,,,,,
,,,,,R_9VtLROveNCdRTFv,001,2025-09-01_00h01.26.320,continuous_performance_test,2024.2.4,Win32,14.99250375,527cd0e3-8a26-4b1f-a5ea-dd8e547dfc4e,5,184.0642,185.7192,space,1,0.3878,,0,10,10,4,1,E,space,,,,,,,,,,
,,,,,R_9VtLROveNCdRTFv,001,2025-09-01_00h01.26.320,continuous_performance_test,2024.2.4,Win32,14.99250375,527cd0e3-8a26-4b1f-a5ea-dd8e547dfc4e,5,185.7199,187.6383,,1,,,0,11,11,29,1,X,,,,,,,,,,,
,,,,,R_9VtLROveNCdRTFv,001,2025-09-01_00h01.26.320,continuous_performance_test,2024.2.4,Win32,14.99250375,527cd0e3-8a26-4b1f-a5ea-dd8e547dfc4e,5,187.639,189.5682,space,1,0.4629,,0,12,12,12,1,M,space,,,,,,,,,,
,,,,,R_9VtLROveNCdRTFv,001,2025-09-01_00h01.26.320,continuous_performance_test,2024.2.4,Win32,14.99250375,527cd0e3-8a26-4b1f-a5ea-dd8e547dfc4e,5,189.5689,191.2918,space,1,0.3893,,0,13,13,3,1,D,space,,,,,,,,,,
,,,,,R_9VtLROveNCdRTFv,001,2025-09-01_00h01.26.320,continuous_performance_test,2024.2.4,Win32,14.99250375,527cd0e3-8a26-4b1f-a5ea-dd8e547dfc4e,5,191.2925,193.2041,space,1,0.4533,,0,14,14,10,1,K,space,,,,,,,,,,
,,,,,R_9VtLROveNCdRTFv,001,2025-09-01_00h01.26.320,continuous_performance_test,2024.2.4,Win32,14.99250375,527cd0e3-8a26-4b1f-a5ea-dd8e547dfc4e,5,193.2048,194.9045,space,1,0.486,,0,15,15,8,1,I,space,,,,,,,,,,
,,,,,R_9VtLROveNCdRTFv,001,2025-09-01_00h01.26.320,continuous_performance_test,2024.2.4,Win32,14.99250375,527cd0e3-8a26-4b1f-a5ea-dd8e547dfc4e,5,194.9052,196.763,space,1,0.404,,0,16,16,19,1,T,space,,,,,,,,,,
,,,,,R_9VtLROveNCdRTFv,001,2025-09-01_00h01.26.320,continuous_performance_test,2024.2.4,Win32,14.99250375,527cd0e3-8a26-4b1f-a5ea-dd8e547dfc4e,5,196.7638,198.6946,,1,,,0,17,17,25,1,X,,,,,,,,,,,
,,,,,R_9VtLROveNCdRTFv,001,2025-09-01_00h01.26.320,continuous_performance_test,2024.2.4,Win32,14.99250375,527cd0e3-8a26-4b1f-a5ea-dd8e547dfc4e,5,198.6954,200.4835,space,1,0.3907,,0,18,18,11,1,L,space,,,,,,,,,,
,,,,,R_9VtLROveNCdRTFv,001,2025-09-01_00h01.26.320,continuous_performance_test,2024.2.4,Win32,14.99250375,527cd0e3-8a26-4b1f-a5ea-dd8e547dfc4e,5,200.4841,202.0354,space,1,0.3311,,0,19,19,22,1,W,space,,,,,,,,,,
,,,,,R_9VtLROveNCdRTFv,001,2025-09-01_00h01.26.320,continuous_performance_test,2024.2.4,Win32,14.99250375,527cd0e3-8a26-4b1f-a5ea-dd8e547dfc4e,5,202.036,203.9588,space,1,0.4576,,0,20,20,18,1,S,space,,,,,,,,,,
,,,,,R_9VtLROveNCdRTFv,001,2025-09-01_00h01.26.320,continuous_performance_test,2024.2.4,Win32,14.99250375,527cd0e3-8a26-4b1f-a5ea-dd8e547dfc4e,5,203.9594,205.5434,space,1,0.4058,,0,21,21,23,1,Y,space,,,,,,,,,,
,,,,,R_9VtLROveNCdRTFv,001,2025-09-01_00h01.26.320,continuous_performance_test,2024.2.4,Win32,14.99250375,527cd0e3-8a26-4b1f-a5ea-dd8e547dfc4e,5,205.5444,207.3157,space,1,0.453,,0,22,22,13,1,N,space,,,,,,,,,,
,,,,,R_9VtLROveNCdRTFv,001,2025-09-01_00h01.26.320,continuous_performance_test,2024.2.4,Win32,14.99250375,527cd0e3-8a26-4b1f-a5ea-dd8e547dfc4e,5,207.3164,208.8395,space,0,0.4592,,0,23,23,27,1,X,,,,,,,,,,,
,,,,,R_9VtLROveNCdRTFv,001,2025-09-01_00h01.26.320,continuous_performance_test,2024.2.4,Win32,14.99250375,527cd0e3-8a26-4b1f-a5ea-dd8e547dfc4e,5,208.8402,210.7089,space,1,0.3955,,0,24,24,1,1,B,space,,,,,,,,,,
,,,,,R_9VtLROveNCdRTFv,001,2025-09-01_00h01.26.320,continuous_performance_test,2024.2.4,Win32,14.99250375,527cd0e3-8a26-4b1f-a5ea-dd8e547dfc4e,5,210.7098,212.426,space,1,0.484,,0,25,25,9,1,J,space,,,,,,,,,,
,,,,,R_9VtLROveNCdRTFv,001,2025-09-01_00h01.26.320,continuous_performance_test,2024.2.4,Win32,14.99250375,527cd0e3-8a26-4b1f-a5ea-dd8e547dfc4e,5,212.4267,214.1148,,1,,,0,26,26,28,1,X,,,,,,,,,,,
,,,,,R_9VtLROveNCdRTFv,001,2025-09-01_00h01.26.320,continuous_performance_test,2024.2.4,Win32,14.99250375,527cd0e3-8a26-4b1f-a5ea-dd8e547dfc4e,5,214.1155,215.6682,space,1,0.3965,,0,27,27,2,1,C,space,,,,,,,,,,
,,,,,R_9VtLROveNCdRTFv,001,2025-09-01_00h01.26.320,continuous_performance_test,2024.2.4,Win32,14.99250375,527cd0e3-8a26-4b1f-a5ea-dd8e547dfc4e,5,215.6688,217.6016,space,1,0.5503,,0,28,28,24,1,Z,space,,,,,,,,,,
,,,,,R_9VtLROveNCdRTFv,001,2025-09-01_00h01.26.320,continuous_performance_test,2024.2.4,Win32,14.99250375,527cd0e3-8a26-4b1f-a5ea-dd8e547dfc4e,5,217.6023,219.4888,space,1,0.5182,,0,29,29,16,1,Q,space,,,,,,,,,,
,,,,,R_9VtLROveNCdRTFv,001,2025-09-01_00h01.26.320,continuous_performance_test,2024.2.4,Win32,14.99250375,527cd0e3-8a26-4b1f-a5ea-dd8e547dfc4e,5,234.4681,236.2429,,1,,,0,0,0,26,1,X,,219.4894,234.4629,,,,,,,,
,,,,,R_9VtLROveNCdRTFv,001,2025-09-01_00h01.26.320,continuous_performance_test,2024.2.4,Win32,14.99250375,527cd0e3-8a26-4b1f-a5ea-dd8e547dfc4e,5,236.2435,238.0982,space,1,0.458,,0,1,1,8,1,I,space,,,,,,,,,,
,,,,,R_9VtLROveNCdRTFv,001,2025-09-01_00h01.26.320,continuous_performance_test,2024.2.4,Win32,14.99250375,527cd0e3-8a26-4b1f-a5ea-dd8e547dfc4e,5,238.0988,239.63,space,1,0.456,,0,2,2,13,1,N,space,,,,,,,,,,
,,,,,R_9VtLROveNCdRTFv,001,2025-09-01_00h01.26.320,continuous_performance_test,2024.2.4,Win32,14.99250375,527cd0e3-8a26-4b1f-a5ea-dd8e547dfc4e,5,239.6306,241.1941,space,1,0.4782,,0,3,3,5,1,F,space,,,,,,,,,,
,,,,,R_9VtLROveNCdRTFv,001,2025-09-01_00h01.26.320,continuous_performance_test,2024.2.4,Win32,14.99250375,527cd0e3-8a26-4b1f-a5ea-dd8e547dfc4e,5,241.1948,243.0467,space,1,0.3908,,0,4,4,20,1,U,space,,,,,,,,,,
,,,,,R_9VtLROveNCdRTFv,001,2025-09-01_00h01.26.320,continuous_performance_test,2024.2.4,Win32,14.99250375,527cd0e3-8a26-4b1f-a5ea-dd8e547dfc4e,5,243.0473,244.7724,space,1,0.3927,,0,5,5,16,1,Q,space,,,,,,,,,,
,,,,,R_9VtLROveNCdRTFv,001,2025-09-01_00h01.26.320,continuous_performance_test,2024.2.4,Win32,14.99250375,527cd0e3-8a26-4b1f-a5ea-dd8e547dfc4e,5,244.773,246.3681,,1,,,0,6,6,27,1,X,,,,,,,,,,,
,,,,,R_9VtLROveNCdRTFv,001,2025-09-01_00h01.26.320,continuous_performance_test,2024.2.4,Win32,14.99250375,527cd0e3-8a26-4b1f-a5ea-dd8e547dfc4e,5,246.3686,247.9695,,1,,,0,7,7,25,1,X,,,,,,,,,,,
,,,,,R_9VtLROveNCdRTFv,001,2025-09-01_00h01.26.320,continuous_performance_test,2024.2.4,Win32,14.99250375,527cd0e3-8a26-4b1f-a5ea-dd8e547dfc4e,5,247.9702,249.9521,space,1,0.4531,,0,8,8,12,1,M,space,,,,,,,,,,
,,,,,R_9VtLROveNCdRTFv,001,2025-09-01_00h01.26.320,continuous_performance_test,2024.2.4,Win32,14.99250375,527cd0e3-8a26-4b1f-a5ea-dd8e547dfc4e,5,249.9528,251.6459,space,1,0.4574,,0,9,9,22,1,W,space,,,,,,,,,,
,,,,,R_9VtLROveNCdRTFv,001,2025-09-01_00h01.26.320,continuous_performance_test,2024.2.4,Win32,14.99250375,527cd0e3-8a26-4b1f-a5ea-dd8e547dfc4e,5,251.6466,253.3241,,1,,,0,10,10,29,1,X,,,,,,,,,,,
,,,,,R_9VtLROveNCdRTFv,001,2025-09-01_00h01.26.320,continuous_performance_test,2024.2.4,Win32,14.99250375,527cd0e3-8a26-4b1f-a5ea-dd8e547dfc4e,5,253.3247,255.2341,,1,,,0,11,11,28,1,X,,,,,,,,,,,
,,,,,R_9VtLROveNCdRTFv,001,2025-09-01_00h01.26.320,continuous_performance_test,2024.2.4,Win32,14.99250375,527cd0e3-8a26-4b1f-a5ea-dd8e547dfc4e,5,255.2347,257.2296,space,1,0.4775,,0,12,12,14,1,O,space,,,,,,,,,,
,,,,,R_9VtLROveNCdRTFv,001,2025-09-01_00h01.26.320,continuous_performance_test,2024.2.4,Win32,14.99250375,527cd0e3-8a26-4b1f-a5ea-dd8e547dfc4e,5,257.2302,258.8326,space,1,0.3934,,0,13,13,11,1,L,space,,,,,,,,,,
,,,,,R_9VtLROveNCdRTFv,001,2025-09-01_00h01.26.320,continuous_performance_test,2024.2.4,Win32,14.99250375,527cd0e3-8a26-4b1f-a5ea-dd8e547dfc4e,5,258.8334,260.4957,space,1,0.4559,,0,14,14,10,1,K,space,,,,,,,,,,
,,,,,R_9VtLROveNCdRTFv,001,2025-09-01_00h01.26.320,continuous_performance_test,2024.2.4,Win32,14.99250375,527cd0e3-8a26-4b1f-a5ea-dd8e547dfc4e,5,260.4964,262.4071,space,1,0.3968,,0,15,15,17,1,R,space,,,,,,,,,,
,,,,,R_9VtLROveNCdRTFv,001,2025-09-01_00h01.26.320,continuous_performance_test,2024.2.4,Win32,14.99250375,527cd0e3-8a26-4b1f-a5ea-dd8e547dfc4e,5,262.4078,264.3579,space,1,0.349,,0,16,16,3,1,D,space,,,,,,,,,,
,,,,,R_9VtLROveNCdRTFv,001,2025-09-01_00h01.26.320,continuous_performance_test,2024.2.4,Win32,14.99250375,527cd0e3-8a26-4b1f-a5ea-dd8e547dfc4e,5,264.3586,265.9157,space,1,0.3953,,0,17,17,15,1,P,space,,,,,,,,,,
,,,,,R_9VtLROveNCdRTFv,001,2025-09-01_00h01.26.320,continuous_performance_test,2024.2.4,Win32,14.99250375,527cd0e3-8a26-4b1f-a5ea-dd8e547dfc4e,5,265.9164,267.8343,space,1,0.5123,,0,18,18,1,1,B,space,,,,,,,,,,
,,,,,R_9VtLROveNCdRTFv,001,2025-09-01_00h01.26.320,continuous_performance_test,2024.2.4,Win32,14.99250375,527cd0e3-8a26-4b1f-a5ea-dd8e547dfc4e,5,267.8351,269.752,space,1,0.4562,,0,19,19,7,1,H,space,,,,,,,,,,
,,,,,R_9VtLROveNCdRTFv,001,2025-09-01_00h01.26.320,continuous_performance_test,2024.2.4,Win32,14.99250375,527cd0e3-8a26-4b1f-a5ea-dd8e547dfc4e,5,269.7527,271.7434,space,1,0.4603,,0,20,20,4,1,E,space,,,,,,,,,,
,,,,,R_9VtLROveNCdRTFv,001,2025-09-01_00h01.26.320,continuous_performance_test,2024.2.4,Win32,14.99250375,527cd0e3-8a26-4b1f-a5ea-dd8e547dfc4e,5,271.7441,273.5539,space,1,0.3345,,0,21,21,21,1,V,space,,,,,,,,,,
,,,,,R_9VtLROveNCdRTFv,001,2025-09-01_00h01.26.320,continuous_performance_test,2024.2.4,Win32,14.99250375,527cd0e3-8a26-4b1f-a5ea-dd8e547dfc4e,5,273.5546,275.4947,space,1,0.4207,,0,22,22,6,1,G,space,,,,,,,,,,
,,,,,R_9VtLROveNCdRTFv,001,2025-09-01_00h01.26.320,continuous_performance_test,2024.2.4,Win32,14.99250375,527cd0e3-8a26-4b1f-a5ea-dd8e547dfc4e,5,275.4954,277.1772,space,1,0.4543,,0,23,23,23,1,Y,space,,,,,,,,,,
,,,,,R_9VtLROveNCdRTFv,001,2025-09-01_00h01.26.320,continuous_performance_test,2024.2.4,Win32,14.99250375,527cd0e3-8a26-4b1f-a5ea-dd8e547dfc4e,5,277.1779,278.861,space,1,0.4673,,0,24,24,2,1,C,space,,,,,,,,,,
,,,,,R_9VtLROveNCdRTFv,001,2025-09-01_00h01.26.320,continuous_performance_test,2024.2.4,Win32,14.99250375,527cd0e3-8a26-4b1f-a5ea-dd8e547dfc4e,5,278.8617,280.7097,space,1,0.4568,,0,25,25,9,1,J,space,,,,,,,,,,
,,,,,R_9VtLROveNCdRTFv,001,2025-09-01_00h01.26.320,continuous_performance_test,2024.2.4,Win32,14.99250375,527cd0e3-8a26-4b1f-a5ea-dd8e547dfc4e,5,280.7104,282.6813,space,1,0.3928,,0,26,26,18,1,S,space,,,,,,,,,,
,,,,,R_9VtLROveNCdRTFv,001,2025-09-01_00h01.26.320,continuous_performance_test,2024.2.4,Win32,14.99250375,527cd0e3-8a26-4b1f-a5ea-dd8e547dfc4e,5,282.6819,284.3457,space,1,0.4551,,0,27,27,19,1,T,space,,,,,,,,,,
,,,,,R_9VtLROveNCdRTFv,001,2025-09-01_00h01.26.320,continuous_performance_test,2024.2.4,Win32,14.99250375,527cd0e3-8a26-4b1f-a5ea-dd8e547dfc4e,5,284.3463,285.9529,space,1,0.5185,,0,28,28,0,1,A,space,,,,,,,,,,
,,,,,R_9VtLROveNCdRTFv,001,2025-09-01_00h01.26.320,continuous_performance_test,2024.2.4,Win32,14.99250375,527cd0e3-8a26-4b1f-a5ea-dd8e547dfc4e,5,285.9536,287.5246,space,1,0.4274,,0,29,29,24,1,Z,space,,,,,,,,,,
,,,,,R_9VtLROveNCdRTFv,001,2025-09-01_00h01.26.320,continuous_performance_test,2024.2.4,Win32,14.99250375,527cd0e3-8a26-4b1f-a5ea-dd8e547dfc4e,5,299.7756,301.4347,space,1,0.3938,,0,0,0,18,1,S,space,287.5252,299.7715,space,12.1831,,,,,,
,,,,,R_9VtLROveNCdRTFv,001,2025-09-01_00h01.26.320,continuous_performance_test,2024.2.4,Win32,14.99250375,527cd0e3-8a26-4b1f-a5ea-dd8e547dfc4e,5,301.4353,303.3697,space,1,0.4032,,0,1,1,2,1,C,space,,,,,,,,,,
,,,,,R_9VtLROveNCdRTFv,001,2025-09-01_00h01.26.320,continuous_performance_test,2024.2.4,Win32,14.99250375,527cd0e3-8a26-4b1f-a5ea-dd8e547dfc4e,5,303.3704,305.3607,space,1,0.4577,,0,2,2,9,1,J,space,,,,,,,,,,
,,,,,R_9VtLROveNCdRTFv,001,2025-09-01_00h01.26.320,continuous_performance_test,2024.2.4,Win32,14.99250375,527cd0e3-8a26-4b1f-a5ea-dd8e547dfc4e,5,305.3615,306.9553,space,0,0.3287,,0,3,3,27,1,X,,,,,,,,,,,
,,,,,R_9VtLROveNCdRTFv,001,2025-09-01_00h01.26.320,continuous_performance_test,2024.2.4,Win32,14.99250375,527cd0e3-8a26-4b1f-a5ea-dd8e547dfc4e,5,306.9559,308.6832,space,1,0.4539,,0,4,4,24,1,Z,space,,,,,,,,,,
,,,,,R_9VtLROveNCdRTFv,001,2025-09-01_00h01.26.320,continuous_performance_test,2024.2.4,Win32,14.99250375,527cd0e3-8a26-4b1f-a5ea-dd8e547dfc4e,5,308.6839,310.4383,space,1,0.4194,,0,5,5,5,1,F,space,,,,,,,,,,
,,,,,R_9VtLROveNCdRTFv,001,2025-09-01_00h01.26.320,continuous_performance_test,2024.2.4,Win32,14.99250375,527cd0e3-8a26-4b1f-a5ea-dd8e547dfc4e,5,310.4389,312.0412,space,1,0.3913,,0,6,6,6,1,G,space,,,,,,,,,,
,,,,,R_9VtLROveNCdRTFv,001,2025-09-01_00h01.26.320,continuous_performance_test,2024.2.4,Win32,14.99250375,527cd0e3-8a26-4b1f-a5ea-dd8e547dfc4e,5,312.0419,313.8932,space,1,0.3918,,0,7,7,13,1,N,space,,,,,,,,,,
,,,,,R_9VtLROveNCdRTFv,001,2025-09-01_00h01.26.320,continuous_performance_test,2024.2.4,Win32,14.99250375,527cd0e3-8a26-4b1f-a5ea-dd8e547dfc4e,5,313.8939,315.5134,space,1,0.4635,,0,8,8,16,1,Q,space,,,,,,,,,,
,,,,,R_9VtLROveNCdRTFv,001,2025-09-01_00h01.26.320,continuous_performance_test,2024.2.4,Win32,14.99250375,527cd0e3-8a26-4b1f-a5ea-dd8e547dfc4e,5,315.5141,317.4285,space,1,0.4046,,0,9,9,15,1,P,space,,,,,,,,,,
,,,,,R_9VtLROveNCdRTFv,001,2025-09-01_00h01.26.320,continuous_performance_test,2024.2.4,Win32,14.99250375,527cd0e3-8a26-4b1f-a5ea-dd8e547dfc4e,5,317.4291,319.0864,space,1,0.4065,,0,10,10,12,1,M,space,,,,,,,,,,
,,,,,R_9VtLROveNCdRTFv,001,2025-09-01_00h01.26.320,continuous_performance_test,2024.2.4,Win32,14.99250375,527cd0e3-8a26-4b1f-a5ea-dd8e547dfc4e,5,319.087,320.7036,space,1,0.391,,0,11,11,11,1,L,space,,,,,,,,,,
,,,,,R_9VtLROveNCdRTFv,001,2025-09-01_00h01.26.320,continuous_performance_test,2024.2.4,Win32,14.99250375,527cd0e3-8a26-4b1f-a5ea-dd8e547dfc4e,5,320.7043,322.6843,space,0,0.3357,,0,12,12,26,1,X,,,,,,,,,,,
,,,,,R_9VtLROveNCdRTFv,001,2025-09-01_00h01.26.320,continuous_performance_test,2024.2.4,Win32,14.99250375,527cd0e3-8a26-4b1f-a5ea-dd8e547dfc4e,5,322.6849,324.413,space,1,0.4592,,0,13,13,0,1,A,space,,,,,,,,,,
,,,,,R_9VtLROveNCdRTFv,001,2025-09-01_00h01.26.320,continuous_performance_test,2024.2.4,Win32,14.99250375,527cd0e3-8a26-4b1f-a5ea-dd8e547dfc4e,5,324.4137,326.2068,space,1,0.4024,,0,14,14,20,1,U,space,,,,,,,,,,
,,,,,R_9VtLROveNCdRTFv,001,2025-09-01_00h01.26.320,continuous_performance_test,2024.2.4,Win32,14.99250375,527cd0e3-8a26-4b1f-a5ea-dd8e547dfc4e,5,326.2074,328.2016,space,1,0.338,,0,15,15,19,1,T,space,,,,,,,,,,
,,,,,R_9VtLROveNCdRTFv,001,2025-09-01_00h01.26.320,continuous_performance_test,2024.2.4,Win32,14.99250375,527cd0e3-8a26-4b1f-a5ea-dd8e547dfc4e,5,328.2022,329.8101,space,1,0.3972,,0,16,16,1,1,B,space,,,,,,,,,,
,,,,,R_9VtLROveNCdRTFv,001,2025-09-01_00h01.26.320,continuous_performance_test,2024.2.4,Win32,14.99250375,527cd0e3-8a26-4b1f-a5ea-dd8e547dfc4e,5,329.8108,331.7817,space,1,0.4501,,0,17,17,21,1,V,space,,,,,,,,,,
,,,,,R_9VtLROveNCdRTFv,001,2025-09-01_00h01.26.320,continuous_performance_test,2024.2.4,Win32,14.99250375,527cd0e3-8a26-4b1f-a5ea-dd8e547dfc4e,5,331.7824,333.3504,space,1,0.4199,,0,18,18,8,1,I,space,,,,,,,,,,
,,,,,R_9VtLROveNCdRTFv,001,2025-09-01_00h01.26.320,continuous_performance_test,2024.2.4,Win32,14.99250375,527cd0e3-8a26-4b1f-a5ea-dd8e547dfc4e,5,333.3511,334.9747,space,1,0.3277,,0,19,19,17,1,R,space,,,,,,,,,,
,,,,,R_9VtLROveNCdRTFv,001,2025-09-01_00h01.26.320,continuous_performance_test,2024.2.4,Win32,14.99250375,527cd0e3-8a26-4b1f-a5ea-dd8e547dfc4e,5,334.9753,336.5793,space,0,0.3288,,0,20,20,28,1,X,,,,,,,,,,,
,,,,,R_9VtLROveNCdRTFv,001,2025-09-01_00h01.26.320,continuous_performance_test,2024.2.4,Win32,14.99250375,527cd0e3-8a26-4b1f-a5ea-dd8e547dfc4e,5,336.5799,338.4362,space,1,0.4553,,0,21,21,22,1,W,space,,,,,,,,,,
,,,,,R_9VtLROveNCdRTFv,001,2025-09-01_00h01.26.320,continuous_performance_test,2024.2.4,Win32,14.99250375,527cd0e3-8a26-4b1f-a5ea-dd8e547dfc4e,5,338.4368,339.9892,space,1,0.33,,0,22,22,4,1,E,space,,,,,,,,,,
,,,,,R_9VtLROveNCdRTFv,001,2025-09-01_00h01.26.320,continuous_performance_test,2024.2.4,Win32,14.99250375,527cd0e3-8a26-4b1f-a5ea-dd8e547dfc4e,5,339.9899,341.6719,space,0,0.3281,,0,23,23,25,1,X,,,,,,,,,,,
,,,,,R_9VtLROveNCdRTFv,001,2025-09-01_00h01.26.320,continuous_performance_test,2024.2.4,Win32,14.99250375,527cd0e3-8a26-4b1f-a5ea-dd8e547dfc4e,5,341.6726,343.3962,space,1,0.4572,,0,24,24,14,1,O,space,,,,,,,,,,
,,,,,R_9VtLROveNCdRTFv,001,2025-09-01_00h01.26.320,continuous_performance_test,2024.2.4,Win32,14.99250375,527cd0e3-8a26-4b1f-a5ea-dd8e547dfc4e,5,343.3969,345.1462,,1,,,0,25,25,29,1,X,,,,,,,,,,,
,,,,,R_9VtLROveNCdRTFv,001,2025-09-01_00h01.26.320,continuous_performance_test,2024.2.4,Win32,14.99250375,527cd0e3-8a26-4b1f-a5ea-dd8e547dfc4e,5,345.1469,347.063,space,1,0.4536,,0,26,26,10,1,K,space,,,,,,,,,,
,,,,,R_9VtLROveNCdRTFv,001,2025-09-01_00h01.26.320,continuous_performance_test,2024.2.4,Win32,14.99250375,527cd0e3-8a26-4b1f-a5ea-dd8e547dfc4e,5,347.0636,348.9742,space,1,0.3897,,0,27,27,3,1,D,space,,,,,,,,,,
,,,,,R_9VtLROveNCdRTFv,001,2025-09-01_00h01.26.320,continuous_performance_test,2024.2.4,Win32,14.99250375,527cd0e3-8a26-4b1f-a5ea-dd8e547dfc4e,5,348.9749,350.8313,space,1,0.3937,,0,28,28,23,1,Y,space,,,,,,,,,,
,,,,,R_9VtLROveNCdRTFv,001,2025-09-01_00h01.26.320,continuous_performance_test,2024.2.4,Win32,14.99250375,527cd0e3-8a26-4b1f-a5ea-dd8e547dfc4e,5,350.832,352.5714,space,1,0.4572,,0,29,29,7,1,H,space,,,,,,,,,,
,,,,,R_9VtLROveNCdRTFv,001,2025-09-01_00h01.26.320,continuous_performance_test,2024.2.4,Win32,14.99250375,527cd0e3-8a26-4b1f-a5ea-dd8e547dfc4e,5,366.5408,368.0903,space,1,0.5488,,0,0,0,0,1,A,space,352.5721,366.5376,space,13.9036,,,,,,
,,,,,R_9VtLROveNCdRTFv,001,2025-09-01_00h01.26.320,continuous_performance_test,2024.2.4,Win32,14.99250375,527cd0e3-8a26-4b1f-a5ea-dd8e547dfc4e,5,368.091,370.0147,space,1,0.3945,,0,1,1,15,1,P,space,,,,,,,,,,
,,,,,R_9VtLROveNCdRTFv,001,2025-09-01_00h01.26.320,continuous_performance_test,2024.2.4,Win32,14.99250375,527cd0e3-8a26-4b1f-a5ea-dd8e547dfc4e,5,370.0153,371.7353,space,1,0.5811,,0,2,2,19,1,T,space,,,,,,,,,,
,,,,,R_9VtLROveNCdRTFv,001,2025-09-01_00h01.26.320,continuous_performance_test,2024.2.4,Win32,14.99250375,527cd0e3-8a26-4b1f-a5ea-dd8e547dfc4e,5,371.7361,373.3877,,1,,,0,3,3,28,1,X,,,,,,,,,,,
,,,,,R_9VtLROveNCdRTFv,001,2025-09-01_00h01.26.320,continuous_performance_test,2024.2.4,Win32,14.99250375,527cd0e3-8a26-4b1f-a5ea-dd8e547dfc4e,5,373.3884,374.9268,space,1,0.4582,,0,4,4,4,1,E,space,,,,,,,,,,
,,,,,R_9VtLROveNCdRTFv,001,2025-09-01_00h01.26.320,continuous_performance_test,2024.2.4,Win32,14.99250375,527cd0e3-8a26-4b1f-a5ea-dd8e547dfc4e,5,374.9275,376.451,space,1,0.4073,,0,5,5,7,1,H,space,,,,,,,,,,
,,,,,R_9VtLROveNCdRTFv,001,2025-09-01_00h01.26.320,continuous_performance_test,2024.2.4,Win32,14.99250375,527cd0e3-8a26-4b1f-a5ea-dd8e547dfc4e,5,376.4517,378.219,space,1,0.456,,0,6,6,8,1,I,space,,,,,,,,,,
,,,,,R_9VtLROveNCdRTFv,001,2025-09-01_00h01.26.320,continuous_performance_test,2024.2.4,Win32,14.99250375,527cd0e3-8a26-4b1f-a5ea-dd8e547dfc4e,5,378.2197,380.1059,space,1,0.416,,0,7,7,11,1,L,space,,,,,,,,,,
,,,,,R_9VtLROveNCdRTFv,001,2025-09-01_00h01.26.320,continuous_performance_test,2024.2.4,Win32,14.99250375,527cd0e3-8a26-4b1f-a5ea-dd8e547dfc4e,5,380.1066,381.7663,space,1,0.3915,,0,8,8,2,1,C,space,,,,,,,,,,
,,,,,R_9VtLROveNCdRTFv,001,2025-09-01_00h01.26.320,continuous_performance_test,2024.2.4,Win32,14.99250375,527cd0e3-8a26-4b1f-a5ea-dd8e547dfc4e,5,381.767,383.746,space,1,0.3926,,0,9,9,20,1,U,space,,,,,,,,,,
,,,,,R_9VtLROveNCdRTFv,001,2025-09-01_00h01.26.320,continuous_performance_test,2024.2.4,Win32,14.99250375,527cd0e3-8a26-4b1f-a5ea-dd8e547dfc4e,5,383.7471,385.7245,space,1,0.3909,,0,10,10,1,1,B,space,,,,,,,,,,
,,,,,R_9VtLROveNCdRTFv,001,2025-09-01_00h01.26.320,continuous_performance_test,2024.2.4,Win32,14.99250375,527cd0e3-8a26-4b1f-a5ea-dd8e547dfc4e,5,385.7253,387.2553,space,1,0.3915,,0,11,11,24,1,Z,space,,,,,,,,,,
,,,,,R_9VtLROveNCdRTFv,001,2025-09-01_00h01.26.320,continuous_performance_test,2024.2.4,Win32,14.99250375,527cd0e3-8a26-4b1f-a5ea-dd8e547dfc4e,5,387.2559,388.9208,space,1,0.5837,,0,12,12,23,1,Y,space,,,,,,,,,,
,,,,,R_9VtLROveNCdRTFv,001,2025-09-01_00h01.26.320,continuous_performance_test,2024.2.4,Win32,14.99250375,527cd0e3-8a26-4b1f-a5ea-dd8e547dfc4e,5,388.9216,390.6663,space,1,0.346,,0,13,13,17,1,R,space,,,,,,,,,,
,,,,,R_9VtLROveNCdRTFv,001,2025-09-01_00h01.26.320,continuous_performance_test,2024.2.4,Win32,14.99250375,527cd0e3-8a26-4b1f-a5ea-dd8e547dfc4e,5,390.667,392.6728,space,1,0.4516,,0,14,14,12,1,M,space,,,,,,,,,,
,,,,,R_9VtLROveNCdRTFv,001,2025-09-01_00h01.26.320,continuous_performance_test,2024.2.4,Win32,14.99250375,527cd0e3-8a26-4b1f-a5ea-dd8e547dfc4e,5,392.6735,394.2837,space,1,0.3972,,0,15,15,14,1,O,space,,,,,,,,,,
,,,,,R_9VtLROveNCdRTFv,001,2025-09-01_00h01.26.320,continuous_performance_test,2024.2.4,Win32,14.99250375,527cd0e3-8a26-4b1f-a5ea-dd8e547dfc4e,5,394.2844,396.101,space,0,0.3237,,0,16,16,25,1,X,,,,,,,,,,,
,,,,,R_9VtLROveNCdRTFv,001,2025-09-01_00h01.26.320,continuous_performance_test,2024.2.4,Win32,14.99250375,527cd0e3-8a26-4b1f-a5ea-dd8e547dfc4e,5,396.1016,398.0525,space,1,0.4983,,0,17,17,10,1,K,space,,,,,,,,,,
,,,,,R_9VtLROveNCdRTFv,001,2025-09-01_00h01.26.320,continuous_performance_test,2024.2.4,Win32,14.99250375,527cd0e3-8a26-4b1f-a5ea-dd8e547dfc4e,5,398.0533,399.7383,space,0,0.4722,,0,18,18,26,1,X,,,,,,,,,,,
,,,,,R_9VtLROveNCdRTFv,001,2025-09-01_00h01.26.320,continuous_performance_test,2024.2.4,Win32,14.99250375,527cd0e3-8a26-4b1f-a5ea-dd8e547dfc4e,5,399.7389,401.3951,space,1,0.4014,,0,19,19,9,1,J,space,,,,,,,,,,
,,,,,R_9VtLROveNCdRTFv,001,2025-09-01_00h01.26.320,continuous_performance_test,2024.2.4,Win32,14.99250375,527cd0e3-8a26-4b1f-a5ea-dd8e547dfc4e,5,401.3958,403.3898,space,1,0.3514,,0,20,20,22,1,W,space,,,,,,,,,,
,,,,,R_9VtLROveNCdRTFv,001,2025-09-01_00h01.26.320,continuous_performance_test,2024.2.4,Win32,14.99250375,527cd0e3-8a26-4b1f-a5ea-dd8e547dfc4e,5,403.3905,405.2122,space,1,0.4618,,0,21,21,6,1,G,space,,,,,,,,,,
,,,,,R_9VtLROveNCdRTFv,001,2025-09-01_00h01.26.320,continuous_performance_test,2024.2.4,Win32,14.99250375,527cd0e3-8a26-4b1f-a5ea-dd8e547dfc4e,5,405.2129,406.8126,,1,,,0,22,22,29,1,X,,,,,,,,,,,
,,,,,R_9VtLROveNCdRTFv,001,2025-09-01_00h01.26.320,continuous_performance_test,2024.2.4,Win32,14.99250375,527cd0e3-8a26-4b1f-a5ea-dd8e547dfc4e,5,406.8132,408.6106,space,1,0.3905,,0,23,23,21,1,V,space,,,,,,,,,,
,,,,,R_9VtLROveNCdRTFv,001,2025-09-01_00h01.26.320,continuous_performance_test,2024.2.4,Win32,14.99250375,527cd0e3-8a26-4b1f-a5ea-dd8e547dfc4e,5,408.6113,410.5276,space,1,0.328,,0,24,24,5,1,F,space,,,,,,,,,,
,,,,,R_9VtLROveNCdRTFv,001,2025-09-01_00h01.26.320,continuous_performance_test,2024.2.4,Win32,14.99250375,527cd0e3-8a26-4b1f-a5ea-dd8e547dfc4e,5,410.5283,412.3856,space,1,0.3952,,0,25,25,13,1,N,space,,,,,,,,,,
,,,,,R_9VtLROveNCdRTFv,001,2025-09-01_00h01.26.320,continuous_performance_test,2024.2.4,Win32,14.99250375,527cd0e3-8a26-4b1f-a5ea-dd8e547dfc4e,5,412.3862,414.079,space,1,0.351,,0,26,26,3,1,D,space,,,,,,,,,,
,,,,,R_9VtLROveNCdRTFv,001,2025-09-01_00h01.26.320,continuous_performance_test,2024.2.4,Win32,14.99250375,527cd0e3-8a26-4b1f-a5ea-dd8e547dfc4e,5,414.0803,415.7815,space,1,0.3365,,0,27,27,16,1,Q,space,,,,,,,,,,
,,,,,R_9VtLROveNCdRTFv,001,2025-09-01_00h01.26.320,continuous_performance_test,2024.2.4,Win32,14.99250375,527cd0e3-8a26-4b1f-a5ea-dd8e547dfc4e,5,415.7822,417.7688,space,0,0.3938,,0,28,28,27,1,X,,,,,,,,,,,
,,,,,R_9VtLROveNCdRTFv,001,2025-09-01_00h01.26.320,continuous_performance_test,2024.2.4,Win32,14.99250375,527cd0e3-8a26-4b1f-a5ea-dd8e547dfc4e,5,417.7695,419.3669,space,1,0.3896,,0,29,29,18,1,S,space,,,,,,,,,,
,,,,,R_9VtLROveNCdRTFv,001,2025-09-01_00h01.26.320,continuous_performance_test,2024.2.4,Win32,14.99250375,527cd0e3-8a26-4b1f-a5ea-dd8e547dfc4e,5,434.3293,436.0524,space,1,0.4073,,0,0,0,4,1,E,space,419.3687,434.3254,,,,,,,,
,,,,,R_9VtLROveNCdRTFv,001,2025-09-01_00h01.26.320,continuous_performance_test,2024.2.4,Win32,14.99250375,527cd0e3-8a26-4b1f-a5ea-dd8e547dfc4e,5,436.0531,437.7683,space,1,0.4188,,0,1,1,21,1,V,space,,,,,,,,,,
,,,,,R_9VtLROveNCdRTFv,001,2025-09-01_00h01.26.320,continuous_performance_test,2024.2.4,Win32,14.99250375,527cd0e3-8a26-4b1f-a5ea-dd8e547dfc4e,5,437.7689,439.6485,space,1,0.4145,,0,2,2,19,1,T,space,,,,,,,,,,
,,,,,R_9VtLROveNCdRTFv,001,2025-09-01_00h01.26.320,continuous_performance_test,2024.2.4,Win32,14.99250375,527cd0e3-8a26-4b1f-a5ea-dd8e547dfc4e,5,439.6492,441.4005,space,1,0.3968,,0,3,3,7,1,H,space,,,,,,,,,,
,,,,,R_9VtLROveNCdRTFv,001,2025-09-01_00h01.26.320,continuous_performance_test,2024.2.4,Win32,14.99250375,527cd0e3-8a26-4b1f-a5ea-dd8e547dfc4e,5,441.4011,443.2536,space,1,0.3916,,0,4,4,0,1,A,space,,,,,,,,,,
,,,,,R_9VtLROveNCdRTFv,001,2025-09-01_00h01.26.320,continuous_performance_test,2024.2.4,Win32,14.99250375,527cd0e3-8a26-4b1f-a5ea-dd8e547dfc4e,5,443.2543,445.2317,space,1,0.4536,,0,5,5,12,1,M,space,,,,,,,,,,
,,,,,R_9VtLROveNCdRTFv,001,2025-09-01_00h01.26.320,continuous_performance_test,2024.2.4,Win32,14.99250375,527cd0e3-8a26-4b1f-a5ea-dd8e547dfc4e,5,445.2323,447.0997,,1,,,0,6,6,25,1,X,,,,,,,,,,,
,,,,,R_9VtLROveNCdRTFv,001,2025-09-01_00h01.26.320,continuous_performance_test,2024.2.4,Win32,14.99250375,527cd0e3-8a26-4b1f-a5ea-dd8e547dfc4e,5,447.1003,448.7949,space,1,0.414,,0,7,7,3,1,D,space,,,,,,,,,,
,,,,,R_9VtLROveNCdRTFv,001,2025-09-01_00h01.26.320,continuous_performance_test,2024.2.4,Win32,14.99250375,527cd0e3-8a26-4b1f-a5ea-dd8e547dfc4e,5,448.7955,450.7766,,1,,,0,8,8,27,1,X,,,,,,,,,,,
,,,,,R_9VtLROveNCdRTFv,001,2025-09-01_00h01.26.320,continuous_performance_test,2024.2.4,Win32,14.99250375,527cd0e3-8a26-4b1f-a5ea-dd8e547dfc4e,5,450.7775,452.7626,space,1,0.4564,,0,9,9,20,1,U,space,,,,,,,,,,
,,,,,R_9VtLROveNCdRTFv,001,2025-09-01_00h01.26.320,continuous_performance_test,2024.2.4,Win32,14.99250375,527cd0e3-8a26-4b1f-a5ea-dd8e547dfc4e,5,452.7632,454.7643,space,1,0.4643,,0,10,10,10,1,K,space,,,,,,,,,,
,,,,,R_9VtLROveNCdRTFv,001,2025-09-01_00h01.26.320,continuous_performance_test,2024.2.4,Win32,14.99250375,527cd0e3-8a26-4b1f-a5ea-dd8e547dfc4e,5,454.765,456.5544,space,1,0.3293,,0,11,11,15,1,P,space,,,,,,,,,,
,,,,,R_9VtLROveNCdRTFv,001,2025-09-01_00h01.26.320,continuous_performance_test,2024.2.4,Win32,14.99250375,527cd0e3-8a26-4b1f-a5ea-dd8e547dfc4e,5,456.555,458.421,space,1,0.4586,,0,12,12,5,1,F,space,,,,,,,,,,
,,,,,R_9VtLROveNCdRTFv,001,2025-09-01_00h01.26.320,continuous_performance_test,2024.2.4,Win32,14.99250375,527cd0e3-8a26-4b1f-a5ea-dd8e547dfc4e,5,458.4217,460.1684,space,1,0.4173,,0,13,13,16,1,Q,space,,,,,,,,,,
,,,,,R_9VtLROveNCdRTFv,001,2025-09-01_00h01.26.320,continuous_performance_test,2024.2.4,Win32,14.99250375,527cd0e3-8a26-4b1f-a5ea-dd8e547dfc4e,5,460.1691,462.1637,,1,,,0,14,14,28,1,X,,,,,,,,,,,
,,,,,R_9VtLROveNCdRTFv,001,2025-09-01_00h01.26.320,continuous_performance_test,2024.2.4,Win32,14.99250375,527cd0e3-8a26-4b1f-a5ea-dd8e547dfc4e,5,462.1645,463.8448,space,1,0.4545,,0,15,15,22,1,W,space,,,,,,,,,,
,,,,,R_9VtLROveNCdRTFv,001,2025-09-01_00h01.26.320,continuous_performance_test,2024.2.4,Win32,14.99250375,527cd0e3-8a26-4b1f-a5ea-dd8e547dfc4e,5,463.8455,465.8393,space,1,0.4139,,0,16,16,13,1,N,space,,,,,,,,,,
,,,,,R_9VtLROveNCdRTFv,001,2025-09-01_00h01.26.320,continuous_performance_test,2024.2.4,Win32,14.99250375,527cd0e3-8a26-4b1f-a5ea-dd8e547dfc4e,5,465.8399,467.4599,space,1,0.5204,,0,17,17,14,1,O,space,,,,,,,,,,
,,,,,R_9VtLROveNCdRTFv,001,2025-09-01_00h01.26.320,continuous_performance_test,2024.2.4,Win32,14.99250375,527cd0e3-8a26-4b1f-a5ea-dd8e547dfc4e,5,467.4604,469.4443,space,1,0.3297,,0,18,18,8,1,I,space,,,,,,,,,,
,,,,,R_9VtLROveNCdRTFv,001,2025-09-01_00h01.26.320,continuous_performance_test,2024.2.4,Win32,14.99250375,527cd0e3-8a26-4b1f-a5ea-dd8e547dfc4e,5,469.4449,471.4247,space,1,0.3487,,0,19,19,23,1,Y,space,,,,,,,,,,
,,,,,R_9VtLROveNCdRTFv,001,2025-09-01_00h01.26.320,continuous_performance_test,2024.2.4,Win32,14.99250375,527cd0e3-8a26-4b1f-a5ea-dd8e547dfc4e,5,471.4254,473.0455,space,1,0.4138,,0,20,20,1,1,B,space,,,,,,,,,,
,,,,,R_9VtLROveNCdRTFv,001,2025-09-01_00h01.26.320,continuous_performance_test,2024.2.4,Win32,14.99250375,527cd0e3-8a26-4b1f-a5ea-dd8e547dfc4e,5,473.0462,474.7229,space,1,0.4094,,0,21,21,11,1,L,space,,,,,,,,,,
,,,,,R_9VtLROveNCdRTFv,001,2025-09-01_00h01.26.320,continuous_performance_test,2024.2.4,Win32,14.99250375,527cd0e3-8a26-4b1f-a5ea-dd8e547dfc4e,5,474.7235,476.2864,space,1,0.4105,,0,22,22,24,1,Z,space,,,,,,,,,,
,,,,,R_9VtLROveNCdRTFv,001,2025-09-01_00h01.26.320,continuous_performance_test,2024.2.4,Win32,14.99250375,527cd0e3-8a26-4b1f-a5ea-dd8e547dfc4e,5,476.287,478.2382,space,1,0.4818,,0,23,23,2,1,C,space,,,,,,,,,,
,,,,,R_9VtLROveNCdRTFv,001,2025-09-01_00h01.26.320,continuous_performance_test,2024.2.4,Win32,14.99250375,527cd0e3-8a26-4b1f-a5ea-dd8e547dfc4e,5,478.2389,480.1812,space,1,0.4071,,0,24,24,6,1,G,space,,,,,,,,,,
,,,,,R_9VtLROveNCdRTFv,001,2025-09-01_00h01.26.320,continuous_performance_test,2024.2.4,Win32,14.99250375,527cd0e3-8a26-4b1f-a5ea-dd8e547dfc4e,5,480.1819,482.0671,space,1,0.4146,,0,25,25,9,1,J,space,,,,,,,,,,
,,,,,R_9VtLROveNCdRTFv,001,2025-09-01_00h01.26.320,continuous_performance_test,2024.2.4,Win32,14.99250375,527cd0e3-8a26-4b1f-a5ea-dd8e547dfc4e,5,482.068,483.6961,,1,,,0,26,26,26,1,X,,,,,,,,,,,
,,,,,R_9VtLROveNCdRTFv,001,2025-09-01_00h01.26.320,continuous_performance_test,2024.2.4,Win32,14.99250375,527cd0e3-8a26-4b1f-a5ea-dd8e547dfc4e,5,483.6968,485.3298,space,1,0.451,,0,27,27,17,1,R,space,,,,,,,,,,
,,,,,R_9VtLROveNCdRTFv,001,2025-09-01_00h01.26.320,continuous_performance_test,2024.2.4,Win32,14.99250375,527cd0e3-8a26-4b1f-a5ea-dd8e547dfc4e,5,485.3304,487.1763,space,1,0.3418,,0,28,28,18,1,S,space,,,,,,,,,,
,,,,,R_9VtLROveNCdRTFv,001,2025-09-01_00h01.26.320,continuous_performance_test,2024.2.4,Win32,14.99250375,527cd0e3-8a26-4b1f-a5ea-dd8e547dfc4e,5,487.1769,488.8082,,1,,,0,29,29,29,1,X,,,,,,,,,,,
,,,,,R_9VtLROveNCdRTFv,001,2025-09-01_00h01.26.320,continuous_performance_test,2024.2.4,Win32,14.99250375,527cd0e3-8a26-4b1f-a5ea-dd8e547dfc4e,5,503.8268,505.3462,space,1,0.4116,,0,0,0,10,1,K,space,488.8087,503.8233,,,,,,,,
,,,,,R_9VtLROveNCdRTFv,001,2025-09-01_00h01.26.320,continuous_performance_test,2024.2.4,Win32,14.99250375,527cd0e3-8a26-4b1f-a5ea-dd8e547dfc4e,5,505.347,507.0194,space,1,0.4206,,0,1,1,14,1,O,space,,,,,,,,,,
,,,,,R_9VtLROveNCdRTFv,001,2025-09-01_00h01.26.320,continuous_performance_test,2024.2.4,Win32,14.99250375,527cd0e3-8a26-4b1f-a5ea-dd8e547dfc4e,5,507.0201,508.9028,,1,,,0,2,2,27,1,X,,,,,,,,,,,
,,,,,R_9VtLROveNCdRTFv,001,2025-09-01_00h01.26.320,continuous_performance_test,2024.2.4,Win32,14.99250375,527cd0e3-8a26-4b1f-a5ea-dd8e547dfc4e,5,508.9033,510.714,space,0,0.3402,,0,3,3,29,1,X,,,,,,,,,,,
,,,,,R_9VtLROveNCdRTFv,001,2025-09-01_00h01.26.320,continuous_performance_test,2024.2.4,Win32,14.99250375,527cd0e3-8a26-4b1f-a5ea-dd8e547dfc4e,5,510.7146,512.6239,,1,,,0,4,4,26,1,X,,,,,,,,,,,
,,,,,R_9VtLROveNCdRTFv,001,2025-09-01_00h01.26.320,continuous_performance_test,2024.2.4,Win32,14.99250375,527cd0e3-8a26-4b1f-a5ea-dd8e547dfc4e,5,512.6246,514.6291,space,1,0.4767,,0,5,5,13,1,N,space,,,,,,,,,,
,,,,,R_9VtLROveNCdRTFv,001,2025-09-01_00h01.26.320,continuous_performance_test,2024.2.4,Win32,14.99250375,527cd0e3-8a26-4b1f-a5ea-dd8e547dfc4e,5,514.6298,516.3991,space,1,0.4634,,0,6,6,24,1,Z,space,,,,,,,,,,
,,,,,R_9VtLROveNCdRTFv,001,2025-09-01_00h01.26.320,continuous_performance_test,2024.2.4,Win32,14.99250375,527cd0e3-8a26-4b1f-a5ea-dd8e547dfc4e,5,516.3998,518.261,space,1,0.4214,,0,7,7,18,1,S,space,,,,,,,,,,
,,,,,R_9VtLROveNCdRTFv,001,2025-09-01_00h01.26.320,continuous_performance_test,2024.2.4,Win32,14.99250375,527cd0e3-8a26-4b1f-a5ea-dd8e547dfc4e,5,518.2617,520.006,space,1,0.4124,,0,8,8,17,1,R,space,,,,,,,,,,
,,,,,R_9VtLROveNCdRTFv,001,2025-09-01_00h01.26.320,continuous_performance_test,2024.2.4,Win32,14.99250375,527cd0e3-8a26-4b1f-a5ea-dd8e547dfc4e,5,520.0066,521.7596,space,0,0.361,,0,9,9,28,1,X,,,,,,,,,,,
,,,,,R_9VtLROveNCdRTFv,001,2025-09-01_00h01.26.320,continuous_performance_test,2024.2.4,Win32,14.99250375,527cd0e3-8a26-4b1f-a5ea-dd8e547dfc4e,5,521.7608,523.4158,space,1,0.4692,,0,10,10,11,1,L,space,,,,,,,,,,
,,,,,R_9VtLROveNCdRTFv,001,2025-09-01_00h01.26.320,continuous_performance_test,2024.2.4,Win32,14.99250375,527cd0e3-8a26-4b1f-a5ea-dd8e547dfc4e,5,523.4164,525.1527,space,1,0.4109,,0,11,11,0,1,A,space,,,,,,,,,,
,,,,,R_9VtLROveNCdRTFv,001,2025-09-01_00h01.26.320,continuous_performance_test,2024.2.4,Win32,14.99250375,527cd0e3-8a26-4b1f-a5ea-dd8e547dfc4e,5,525.1533,526.9958,space,1,0.4198,,0,12,12,20,1,U,space,,,,,,,,,,
,,,,,R_9VtLROveNCdRTFv,001,2025-09-01_00h01.26.320,continuous_performance_test,2024.2.4,Win32,14.99250375,527cd0e3-8a26-4b1f-a5ea-dd8e547dfc4e,5,526.9967,528.8988,space,0,0.3918,,0,13,13,25,1,X,,,,,,,,,,,
,,,,,R_9VtLROveNCdRTFv,001,2025-09-01_00h01.26.320,continuous_performance_test,2024.2.4,Win32,14.99250375,527cd0e3-8a26-4b1f-a5ea-dd8e547dfc4e,5,528.8995,530.7054,space,1,0.4094,,0,14,14,2,1,C,space,,,,,,,,,,
,,,,,R_9VtLROveNCdRTFv,001,2025-09-01_00h01.26.320,continuous_performance_test,2024.2.4,Win32,14.99250375,527cd0e3-8a26-4b1f-a5ea-dd8e547dfc4e,5,530.706,532.399,space,1,0.6532,,0,15,15,21,1,V,space,,,,,,,,,,
,,,,,R_9VtLROveNCdRTFv,001,2025-09-01_00h01.26.320,continuous_performance_test,2024.2.4,Win32,14.99250375,527cd0e3-8a26-4b1f-a5ea-dd8e547dfc4e,5,532.3996,533.9466,space,1,0.396,,0,16,16,9,1,J,space,,,,,,,,,,
,,,,,R_9VtLROveNCdRTFv,001,2025-09-01_00h01.26.320,continuous_performance_test,2024.2.4,Win32,14.99250375,527cd0e3-8a26-4b1f-a5ea-dd8e547dfc4e,5,533.9474,535.941,space,1,0.525,,0,17,17,23,1,Y,space,,,,,,,,,,
,,,,,R_9VtLROveNCdRTFv,001,2025-09-01_00h01.26.320,continuous_performance_test,2024.2.4,Win32,14.99250375,527cd0e3-8a26-4b1f-a5ea-dd8e547dfc4e,5,535.9417,537.7289,space,1,0.4567,,0,18,18,22,1,W,space,,,,,,,,,,
,,,,,R_9VtLROveNCdRTFv,001,2025-09-01_00h01.26.320,continuous_performance_test,2024.2.4,Win32,14.99250375,527cd0e3-8a26-4b1f-a5ea-dd8e547dfc4e,5,537.7296,539.3228,space,1,0.4106,,0,19,19,6,1,G,space,,,,,,,,,,
,,,,,R_9VtLROveNCdRTFv,001,2025-09-01_00h01.26.320,continuous_performance_test,2024.2.4,Win32,14.99250375,527cd0e3-8a26-4b1f-a5ea-dd8e547dfc4e,5,539.3234,541.0828,space,1,0.4423,,0,20,20,16,1,Q,space,,,,,,,,,,
,,,,,R_9VtLROveNCdRTFv,001,2025-09-01_00h01.26.320,continuous_performance_test,2024.2.4,Win32,14.99250375,527cd0e3-8a26-4b1f-a5ea-dd8e547dfc4e,5,541.0835,542.7128,space,1,0.3992,,0,21,21,4,1,E,space,,,,,,,,,,
,,,,,R_9VtLROveNCdRTFv,001,2025-09-01_00h01.26.320,continuous_performance_test,2024.2.4,Win32,14.99250375,527cd0e3-8a26-4b1f-a5ea-dd8e547dfc4e,5,542.7135,544.6802,space,1,0.4402,,0,22,22,7,1,H,space,,,,,,,,,,
,,,,,R_9VtLROveNCdRTFv,001,2025-09-01_00h01.26.320,continuous_performance_test,2024.2.4,Win32,14.99250375,527cd0e3-8a26-4b1f-a5ea-dd8e547dfc4e,5,544.6809,546.521,space,1,0.4019,,0,23,23,12,1,M,space,,,,,,,,,,
,,,,,R_9VtLROveNCdRTFv,001,2025-09-01_00h01.26.320,continuous_performance_test,2024.2.4,Win32,14.99250375,527cd0e3-8a26-4b1f-a5ea-dd8e547dfc4e,5,546.5217,548.3125,space,1,0.3381,,0,24,24,19,1,T,space,,,,,,,,,,
,,,,,R_9VtLROveNCdRTFv,001,2025-09-01_00h01.26.320,continuous_performance_test,2024.2.4,Win32,14.99250375,527cd0e3-8a26-4b1f-a5ea-dd8e547dfc4e,5,548.3131,549.8442,space,1,0.4048,,0,25,25,15,1,P,space,,,,,,,,,,
,,,,,R_9VtLROveNCdRTFv,001,2025-09-01_00h01.26.320,continuous_performance_test,2024.2.4,Win32,14.99250375,527cd0e3-8a26-4b1f-a5ea-dd8e547dfc4e,5,549.845,551.464,space,1,0.5515,,0,26,26,8,1,I,space,,,,,,,,,,
,,,,,R_9VtLROveNCdRTFv,001,2025-09-01_00h01.26.320,continuous_performance_test,2024.2.4,Win32,14.99250375,527cd0e3-8a26-4b1f-a5ea-dd8e547dfc4e,5,551.4647,553.1413,space,1,0.4188,,0,27,27,3,1,D,space,,,,,,,,,,
,,,,,R_9VtLROveNCdRTFv,001,2025-09-01_00h01.26.320,continuous_performance_test,2024.2.4,Win32,14.99250375,527cd0e3-8a26-4b1f-a5ea-dd8e547dfc4e,5,553.142,555.0111,space,1,0.4724,,0,28,28,5,1,F,space,,,,,,,,,,
,,,,,R_9VtLROveNCdRTFv,001,2025-09-01_00h01.26.320,continuous_performance_test,2024.2.4,Win32,14.99250375,527cd0e3-8a26-4b1f-a5ea-dd8e547dfc4e,5,555.0117,556.7738,space,1,0.4171,,0,29,29,1,1,B,space,,,,,,,,,,
,,,,,R_9VtLROveNCdRTFv,001,2025-09-01_00h01.26.320,continuous_performance_test,2024.2.4,Win32,14.99250375,527cd0e3-8a26-4b1f-a5ea-dd8e547dfc4e,5,571.7644,573.6062,space,1,0.4267,,0,0,0,0,1,A,space,556.7744,571.7613,,,,,,,,
,,,,,R_9VtLROveNCdRTFv,001,2025-09-01_00h01.26.320,continuous_performance_test,2024.2.4,Win32,14.99250375,527cd0e3-8a26-4b1f-a5ea-dd8e547dfc4e,5,573.6072,575.1377,,1,,,0,1,1,29,1,X,,,,,,,,,,,
,,,,,R_9VtLROveNCdRTFv,001,2025-09-01_00h01.26.320,continuous_performance_test,2024.2.4,Win32,14.99250375,527cd0e3-8a26-4b1f-a5ea-dd8e547dfc4e,5,575.1389,576.6828,space,1,0.5084,,0,2,2,13,1,N,space,,,,,,,,,,
,,,,,R_9VtLROveNCdRTFv,001,2025-09-01_00h01.26.320,continuous_performance_test,2024.2.4,Win32,14.99250375,527cd0e3-8a26-4b1f-a5ea-dd8e547dfc4e,5,576.6835,578.3763,space,1,0.4384,,0,3,3,23,1,Y,space,,,,,,,,,,
,,,,,R_9VtLROveNCdRTFv,001,2025-09-01_00h01.26.320,continuous_performance_test,2024.2.4,Win32,14.99250375,527cd0e3-8a26-4b1f-a5ea-dd8e547dfc4e,5,578.3781,580.1483,space,1,0.4813,,0,4,4,11,1,L,space,,,,,,,,,,
,,,,,R_9VtLROveNCdRTFv,001,2025-09-01_00h01.26.320,continuous_performance_test,2024.2.4,Win32,14.99250375,527cd0e3-8a26-4b1f-a5ea-dd8e547dfc4e,5,580.149,581.9794,space,1,0.4788,,0,5,5,8,1,I,space,,,,,,,,,,
,,,,,R_9VtLROveNCdRTFv,001,2025-09-01_00h01.26.320,continuous_performance_test,2024.2.4,Win32,14.99250375,527cd0e3-8a26-4b1f-a5ea-dd8e547dfc4e,5,581.98,583.6451,space,1,0.4322,,0,6,6,24,1,Z,space,,,,,,,,,,
,,,,,R_9VtLROveNCdRTFv,001,2025-09-01_00h01.26.320,continuous_performance_test,2024.2.4,Win32,14.99250375,527cd0e3-8a26-4b1f-a5ea-dd8e547dfc4e,5,583.6457,585.1925,space,0,0.3456,,0,7,7,26,1,X,,,,,,,,,,,
,,,,,R_9VtLROveNCdRTFv,001,2025-09-01_00h01.26.320,continuous_performance_test,2024.2.4,Win32,14.99250375,527cd0e3-8a26-4b1f-a5ea-dd8e547dfc4e,5,585.193,586.738,,1,,,0,8,8,27,1,X,,,,,,,,,,,
,,,,,R_9VtLROveNCdRTFv,001,2025-09-01_00h01.26.320,continuous_performance_test,2024.2.4,Win32,14.99250375,527cd0e3-8a26-4b1f-a5ea-dd8e547dfc4e,5,586.7386,588.6332,space,1,0.4827,,0,9,9,10,1,K,space,,,,,,,,,,
,,,,,R_9VtLROveNCdRTFv,001,2025-09-01_00h01.26.320,continuous_performance_test,2024.2.4,Win32,14.99250375,527cd0e3-8a26-4b1f-a5ea-dd8e547dfc4e,5,588.6339,590.6217,space,1,0.3452,,0,10,10,22,1,W,space,,,,,,,,,,
,,,,,R_9VtLROveNCdRTFv,001,2025-09-01_00h01.26.320,continuous_performance_test,2024.2.4,Win32,14.99250375,527cd0e3-8a26-4b1f-a5ea-dd8e547dfc4e,5,590.6223,592.3896,space,1,0.4251,,0,11,11,12,1,M,space,,,,,,,,,,
,,,,,R_9VtLROveNCdRTFv,001,2025-09-01_00h01.26.320,continuous_performance_test,2024.2.4,Win32,14.99250375,527cd0e3-8a26-4b1f-a5ea-dd8e547dfc4e,5,592.3902,594.3987,space,1,0.4285,,0,12,12,16,1,Q,space,,,,,,,,,,
,,,,,R_9VtLROveNCdRTFv,001,2025-09-01_00h01.26.320,continuous_performance_test,2024.2.4,Win32,14.99250375,527cd0e3-8a26-4b1f-a5ea-dd8e547dfc4e,5,594.3995,596.2255,space,1,0.3503,,0,13,13,15,1,P,space,,,,,,,,,,
,,,,,R_9VtLROveNCdRTFv,001,2025-09-01_00h01.26.320,continuous_performance_test,2024.2.4,Win32,14.99250375,527cd0e3-8a26-4b1f-a5ea-dd8e547dfc4e,5,596.2262,598.113,space,1,0.3671,,0,14,14,2,1,C,space,,,,,,,,,,
,,,,,R_9VtLROveNCdRTFv,001,2025-09-01_00h01.26.320,continuous_performance_test,2024.2.4,Win32,14.99250375,527cd0e3-8a26-4b1f-a5ea-dd8e547dfc4e,5,598.1137,599.8916,space,1,0.4124,,0,15,15,5,1,F,space,,,,,,,,,,
,,,,,R_9VtLROveNCdRTFv,001,2025-09-01_00h01.26.320,continuous_performance_test,2024.2.4,Win32,14.99250375,527cd0e3-8a26-4b1f-a5ea-dd8e547dfc4e,5,599.8928,601.7735,space,1,0.3394,,0,16,16,19,1,T,space,,,,,,,,,,
,,,,,R_9VtLROveNCdRTFv,001,2025-09-01_00h01.26.320,continuous_performance_test,2024.2.4,Win32,14.99250375,527cd0e3-8a26-4b1f-a5ea-dd8e547dfc4e,5,601.7742,603.3158,space,1,0.4107,,0,17,17,18,1,S,space,,,,,,,,,,
,,,,,R_9VtLROveNCdRTFv,001,2025-09-01_00h01.26.320,continuous_performance_test,2024.2.4,Win32,14.99250375,527cd0e3-8a26-4b1f-a5ea-dd8e547dfc4e,5,603.3164,605.1664,space,1,0.4722,,0,18,18,21,1,V,space,,,,,,,,,,
,,,,,R_9VtLROveNCdRTFv,001,2025-09-01_00h01.26.320,continuous_performance_test,2024.2.4,Win32,14.99250375,527cd0e3-8a26-4b1f-a5ea-dd8e547dfc4e,5,605.1671,606.9703,space,1,0.3995,,0,19,19,1,1,B,space,,,,,,,,,,
,,,,,R_9VtLROveNCdRTFv,001,2025-09-01_00h01.26.320,continuous_performance_test,2024.2.4,Win32,14.99250375,527cd0e3-8a26-4b1f-a5ea-dd8e547dfc4e,5,606.9711,608.6607,space,1,0.3923,,0,20,20,17,1,R,space,,,,,,,,,,
,,,,,R_9VtLROveNCdRTFv,001,2025-09-01_00h01.26.320,continuous_performance_test,2024.2.4,Win32,14.99250375,527cd0e3-8a26-4b1f-a5ea-dd8e547dfc4e,5,608.6614,610.3208,space,1,0.4119,,0,21,21,3,1,D,space,,,,,,,,,,
,,,,,R_9VtLROveNCdRTFv,001,2025-09-01_00h01.26.320,continuous_performance_test,2024.2.4,Win32,14.99250375,527cd0e3-8a26-4b1f-a5ea-dd8e547dfc4e,5,610.3214,611.9734,space,1,0.3896,,0,22,22,6,1,G,space,,,,,,,,,,
,,,,,R_9VtLROveNCdRTFv,001,2025-09-01_00h01.26.320,continuous_performance_test,2024.2.4,Win32,14.99250375,527cd0e3-8a26-4b1f-a5ea-dd8e547dfc4e,5,611.974,613.9962,,1,,,0,23,23,25,1,X,,,,,,,,,,,
,,,,,R_9VtLROveNCdRTFv,001,2025-09-01_00h01.26.320,continuous_performance_test,2024.2.4,Win32,14.99250375,527cd0e3-8a26-4b1f-a5ea-dd8e547dfc4e,5,613.9968,616.0084,space,1,0.4009,,0,24,24,7,1,H,space,,,,,,,,,,
,,,,,R_9VtLROveNCdRTFv,001,2025-09-01_00h01.26.320,continuous_performance_test,2024.2.4,Win32,14.99250375,527cd0e3-8a26-4b1f-a5ea-dd8e547dfc4e,5,616.0091,617.7587,space,1,0.3343,,0,25,25,20,1,U,space,,,,,,,,,,
,,,,,R_9VtLROveNCdRTFv,001,2025-09-01_00h01.26.320,continuous_performance_test,2024.2.4,Win32,14.99250375,527cd0e3-8a26-4b1f-a5ea-dd8e547dfc4e,5,617.7593,619.6974,space,1,0.3933,,0,26,26,9,1,J,space,,,,,,,,,,
,,,,,R_9VtLROveNCdRTFv,001,2025-09-01_00h01.26.320,continuous_performance_test,2024.2.4,Win32,14.99250375,527cd0e3-8a26-4b1f-a5ea-dd8e547dfc4e,5,619.6981,621.2472,,1,,,0,27,27,28,1,X,,,,,,,,,,,
,,,,,R_9VtLROveNCdRTFv,001,2025-09-01_00h01.26.320,continuous_performance_test,2024.2.4,Win32,14.99250375,527cd0e3-8a26-4b1f-a5ea-dd8e547dfc4e,5,621.2479,623.1671,space,1,0.4501,,0,28,28,4,1,E,space,,,,,,,,,,
,,,,,R_9VtLROveNCdRTFv,001,2025-09-01_00h01.26.320,continuous_performance_test,2024.2.4,Win32,14.99250375,527cd0e3-8a26-4b1f-a5ea-dd8e547dfc4e,5,623.1678,625.0717,space,1,0.448,,0,29,29,14,1,O,space,,,,,,,,,,
,,,,,R_9VtLROveNCdRTFv,001,2025-09-01_00h01.26.320,continuous_performance_test,2024.2.4,Win32,14.99250375,527cd0e3-8a26-4b1f-a5ea-dd8e547dfc4e,5,640.0687,641.9607,,1,,,0,0,0,26,1,X,,625.0724,640.0652,,,,,,,,
,,,,,R_9VtLROveNCdRTFv,001,2025-09-01_00h01.26.320,continuous_performance_test,2024.2.4,Win32,14.99250375,527cd0e3-8a26-4b1f-a5ea-dd8e547dfc4e,5,641.9613,643.9203,space,1,0.4043,,0,1,1,5,1,F,space,,,,,,,,,,
,,,,,R_9VtLROveNCdRTFv,001,2025-09-01_00h01.26.320,continuous_performance_test,2024.2.4,Win32,14.99250375,527cd0e3-8a26-4b1f-a5ea-dd8e547dfc4e,5,643.9208,645.7348,space,1,0.4501,,0,2,2,20,1,U,space,,,,,,,,,,
,,,,,R_9VtLROveNCdRTFv,001,2025-09-01_00h01.26.320,continuous_performance_test,2024.2.4,Win32,14.99250375,527cd0e3-8a26-4b1f-a5ea-dd8e547dfc4e,5,645.7355,647.5661,space,1,0.5723,,0,3,3,24,1,Z,space,,,,,,,,,,
,,,,,R_9VtLROveNCdRTFv,001,2025-09-01_00h01.26.320,continuous_performance_test,2024.2.4,Win32,14.99250375,527cd0e3-8a26-4b1f-a5ea-dd8e547dfc4e,5,647.5668,649.5254,space,1,0.3935,,0,4,4,6,1,G,space,,,,,,,,,,
,,,,,R_9VtLROveNCdRTFv,001,2025-09-01_00h01.26.320,continuous_performance_test,2024.2.4,Win32,14.99250375,527cd0e3-8a26-4b1f-a5ea-dd8e547dfc4e,5,649.5261,651.1088,space,1,0.4501,,0,5,5,12,1,M,space,,,,,,,,,,
,,,,,R_9VtLROveNCdRTFv,001,2025-09-01_00h01.26.320,continuous_performance_test,2024.2.4,Win32,14.99250375,527cd0e3-8a26-4b1f-a5ea-dd8e547dfc4e,5,651.1095,653.0228,,1,,,0,6,6,28,1,X,,,,,,,,,,,
,,,,,R_9VtLROveNCdRTFv,001,2025-09-01_00h01.26.320,continuous_performance_test,2024.2.4,Win32,14.99250375,527cd0e3-8a26-4b1f-a5ea-dd8e547dfc4e,5,653.0234,654.7441,space,1,0.4566,,0,7,7,15,1,P,space,,,,,,,,,,
,,,,,R_9VtLROveNCdRTFv,001,2025-09-01_00h01.26.320,continuous_performance_test,2024.2.4,Win32,14.99250375,527cd0e3-8a26-4b1f-a5ea-dd8e547dfc4e,5,654.7447,656.5969,space,1,0.4784,,0,8,8,19,1,T,space,,,,,,,,,,
,,,,,R_9VtLROveNCdRTFv,001,2025-09-01_00h01.26.320,continuous_performance_test,2024.2.4,Win32,14.99250375,527cd0e3-8a26-4b1f-a5ea-dd8e547dfc4e,5,656.5976,658.4917,space,1,0.3218,,0,9,9,17,1,R,space,,,,,,,,,,
,,,,,R_9VtLROveNCdRTFv,001,2025-09-01_00h01.26.320,continuous_performance_test,2024.2.4,Win32,14.99250375,527cd0e3-8a26-4b1f-a5ea-dd8e547dfc4e,5,658.4923,660.261,,1,,,0,10,10,29,1,X,,,,,,,,,,,
,,,,,R_9VtLROveNCdRTFv,001,2025-09-01_00h01.26.320,continuous_performance_test,2024.2.4,Win32,14.99250375,527cd0e3-8a26-4b1f-a5ea-dd8e547dfc4e,5,660.2616,661.8352,space,1,0.5129,,0,11,11,22,1,W,space,,,,,,,,,,
,,,,,R_9VtLROveNCdRTFv,001,2025-09-01_00h01.26.320,continuous_performance_test,2024.2.4,Win32,14.99250375,527cd0e3-8a26-4b1f-a5ea-dd8e547dfc4e,5,661.8358,663.6006,space,0,0.3202,,0,12,12,27,1,X,,,,,,,,,,,
,,,,,R_9VtLROveNCdRTFv,001,2025-09-01_00h01.26.320,continuous_performance_test,2024.2.4,Win32,14.99250375,527cd0e3-8a26-4b1f-a5ea-dd8e547dfc4e,5,663.6014,665.5863,space,1,0.3877,,0,13,13,7,1,H,space,,,,,,,,,,
,,,,,R_9VtLROveNCdRTFv,001,2025-09-01_00h01.26.320,continuous_performance_test,2024.2.4,Win32,14.99250375,527cd0e3-8a26-4b1f-a5ea-dd8e547dfc4e,5,665.5871,667.5792,space,1,0.4814,,0,14,14,4,1,E,space,,,,,,,,,,
,,,,,R_9VtLROveNCdRTFv,001,2025-09-01_00h01.26.320,continuous_performance_test,2024.2.4,Win32,14.99250375,527cd0e3-8a26-4b1f-a5ea-dd8e547dfc4e,5,667.5798,669.2326,space,1,0.385,,0,15,15,23,1,Y,space,,,,,,,,,,
,,,,,R_9VtLROveNCdRTFv,001,2025-09-01_00h01.26.320,continuous_performance_test,2024.2.4,Win32,14.99250375,527cd0e3-8a26-4b1f-a5ea-dd8e547dfc4e,5,669.2333,671.1912,space,1,0.4488,,0,16,16,13,1,N,space,,,,,,,,,,
,,,,,R_9VtLROveNCdRTFv,001,2025-09-01_00h01.26.320,continuous_performance_test,2024.2.4,Win32,14.99250375,527cd0e3-8a26-4b1f-a5ea-dd8e547dfc4e,5,671.1926,672.8374,space,1,0.4492,,0,17,17,18,1,S,space,,,,,,,,,,
,,,,,R_9VtLROveNCdRTFv,001,2025-09-01_00h01.26.320,continuous_performance_test,2024.2.4,Win32,14.99250375,527cd0e3-8a26-4b1f-a5ea-dd8e547dfc4e,5,672.838,674.6268,space,1,0.4507,,0,18,18,11,1,L,space,,,,,,,,,,
,,,,,R_9VtLROveNCdRTFv,001,2025-09-01_00h01.26.320,continuous_performance_test,2024.2.4,Win32,14.99250375,527cd0e3-8a26-4b1f-a5ea-dd8e547dfc4e,5,674.6276,676.442,space,1,0.4045,,0,19,19,8,1,I,space,,,,,,,,,,
,,,,,R_9VtLROveNCdRTFv,001,2025-09-01_00h01.26.320,continuous_performance_test,2024.2.4,Win32,14.99250375,527cd0e3-8a26-4b1f-a5ea-dd8e547dfc4e,5,676.4427,678.2944,space,1,0.4024,,0,20,20,21,1,V,space,,,,,,,,,,
,,,,,R_9VtLROveNCdRTFv,001,2025-09-01_00h01.26.320,continuous_performance_test,2024.2.4,Win32,14.99250375,527cd0e3-8a26-4b1f-a5ea-dd8e547dfc4e,5,678.295,680.1864,space,1,0.3853,,0,21,21,1,1,B,space,,,,,,,,,,
,,,,,R_9VtLROveNCdRTFv,001,2025-09-01_00h01.26.320,continuous_performance_test,2024.2.4,Win32,14.99250375,527cd0e3-8a26-4b1f-a5ea-dd8e547dfc4e,5,680.1871,681.8369,space,1,0.4502,,0,22,22,10,1,K,space,,,,,,,,,,
,,,,,R_9VtLROveNCdRTFv,001,2025-09-01_00h01.26.320,continuous_performance_test,2024.2.4,Win32,14.99250375,527cd0e3-8a26-4b1f-a5ea-dd8e547dfc4e,5,681.8376,683.5401,,1,,,0,23,23,25,1,X,,,,,,,,,,,
,,,,,R_9VtLROveNCdRTFv,001,2025-09-01_00h01.26.320,continuous_performance_test,2024.2.4,Win32,14.99250375,527cd0e3-8a26-4b1f-a5ea-dd8e547dfc4e,5,683.5408,685.5115,space,1,0.4529,,0,24,24,3,1,D,space,,,,,,,,,,
,,,,,R_9VtLROveNCdRTFv,001,2025-09-01_00h01.26.320,continuous_performance_test,2024.2.4,Win32,14.99250375,527cd0e3-8a26-4b1f-a5ea-dd8e547dfc4e,5,685.5121,687.2828,space,1,0.3867,,0,25,25,2,1,C,space,,,,,,,,,,
,,,,,R_9VtLROveNCdRTFv,001,2025-09-01_00h01.26.320,continuous_performance_test,2024.2.4,Win32,14.99250375,527cd0e3-8a26-4b1f-a5ea-dd8e547dfc4e,5,687.2833,688.9301,space,1,0.3219,,0,26,26,0,1,A,space,,,,,,,,,,
,,,,,R_9VtLROveNCdRTFv,001,2025-09-01_00h01.26.320,continuous_performance_test,2024.2.4,Win32,14.99250375,527cd0e3-8a26-4b1f-a5ea-dd8e547dfc4e,5,688.9307,690.7622,space,1,0.4157,,0,27,27,16,1,Q,space,,,,,,,,,,
,,,,,R_9VtLROveNCdRTFv,001,2025-09-01_00h01.26.320,continuous_performance_test,2024.2.4,Win32,14.99250375,527cd0e3-8a26-4b1f-a5ea-dd8e547dfc4e,5,690.7629,692.2717,space,1,0.3838,,0,28,28,9,1,J,space,,,,,,,,,,
,,,,,R_9VtLROveNCdRTFv,001,2025-09-01_00h01.26.320,continuous_performance_test,2024.2.4,Win32,14.99250375,527cd0e3-8a26-4b1f-a5ea-dd8e547dfc4e,5,692.2724,694.1779,space,1,0.4473,,0,29,29,14,1,O,space,,,,,,,,,,
,,,,,R_9VtLROveNCdRTFv,001,2025-09-01_00h01.26.320,continuous_performance_test,2024.2.4,Win32,14.99250375,527cd0e3-8a26-4b1f-a5ea-dd8e547dfc4e,5,,,,,,,,,,,,,,694.1786,694.1796,,,,694.1798,710.4125,space,16.1715,
