Instructions.started,Instructions.stopped,key_resp.keys,key_resp.rt,key_resp.duration,participant,session,date,expName,psychopyVersion,OS,frameRate,realeye-tester-id,realeye-tester-quality_grade,Trial_noX.started,Trial_noX.stopped,response.keys,response.corr,response.rt,response.duration,trials_noX.thisRepN,trials_noX.thisTrialN,trials_noX.thisN,trials_noX.thisIndex,trials_noX.ran,letter,corrAns,BlockBreak.started,BlockBreak.stopped,key_instruct.keys,key_instruct.rt,key_instruct.duration,End_NoX.started,End_NoX.stopped,key_resp_end_noX.keys,key_resp_end_noX.rt,key_resp_end_noX.duration
0.0002,8.8133,space,8.7888,,R_9WNk132xffK2PHM,001,2025-08-08_11h55.59.679,continuous_performance_test,2024.2.4,Win32,59.52380952,86d634e6-64cb-48e1-8cf7-1c310d4c6f64,6,,,,,,,,,,,,,,,,,,,,,,,
,,,,,R_9WNk132xffK2PHM,001,2025-08-08_11h55.59.679,continuous_performance_test,2024.2.4,Win32,59.52380952,86d634e6-64cb-48e1-8cf7-1c310d4c6f64,6,8.8277,10.63,space,1,0.4441,,0,0,0,21,1,V,space,,,,,,,,,,
,,,,,R_9WNk132xffK2PHM,001,2025-08-08_11h55.59.679,continuous_performance_test,2024.2.4,Win32,59.52380952,86d634e6-64cb-48e1-8cf7-1c310d4c6f64,6,10.6316,12.2299,space,1,0.4547,,0,1,1,23,1,Y,space,,,,,,,,,,
,,,,,R_9WNk132xffK2PHM,001,2025-08-08_11h55.59.679,continuous_performance_test,2024.2.4,Win32,59.52380952,86d634e6-64cb-48e1-8cf7-1c310d4c6f64,6,12.2309,13.8798,,1,,,0,2,2,25,1,X,,,,,,,,,,,
,,,,,R_9WNk132xffK2PHM,001,2025-08-08_11h55.59.679,continuous_performance_test,2024.2.4,Win32,59.52380952,86d634e6-64cb-48e1-8cf7-1c310d4c6f64,6,13.8809,15.88,space,1,0.401,,0,3,3,13,1,N,space,,,,,,,,,,
,,,,,R_9WNk132xffK2PHM,001,2025-08-08_11h55.59.679,continuous_performance_test,2024.2.4,Win32,59.52380952,86d634e6-64cb-48e1-8cf7-1c310d4c6f64,6,15.8816,17.8298,space,1,0.3822,,0,4,4,15,1,P,space,,,,,,,,,,
,,,,,R_9WNk132xffK2PHM,001,2025-08-08_11h55.59.679,continuous_performance_test,2024.2.4,Win32,59.52380952,86d634e6-64cb-48e1-8cf7-1c310d4c6f64,6,17.8309,19.58,space,1,0.5421,,0,5,5,4,1,E,space,,,,,,,,,,
,,,,,R_9WNk132xffK2PHM,001,2025-08-08_11h55.59.679,continuous_performance_test,2024.2.4,Win32,59.52380952,86d634e6-64cb-48e1-8cf7-1c310d4c6f64,6,19.5812,21.2302,space,1,0.3647,,0,6,6,17,1,R,space,,,,,,,,,,
,,,,,R_9WNk132xffK2PHM,001,2025-08-08_11h55.59.679,continuous_performance_test,2024.2.4,Win32,59.52380952,86d634e6-64cb-48e1-8cf7-1c310d4c6f64,6,21.2316,23.0801,,1,,,0,7,7,29,1,X,,,,,,,,,,,
,,,,,R_9WNk132xffK2PHM,001,2025-08-08_11h55.59.679,continuous_performance_test,2024.2.4,Win32,59.52380952,86d634e6-64cb-48e1-8cf7-1c310d4c6f64,6,23.0817,25.0302,space,1,0.3839,,0,8,8,8,1,I,space,,,,,,,,,,
,,,,,R_9WNk132xffK2PHM,001,2025-08-08_11h55.59.679,continuous_performance_test,2024.2.4,Win32,59.52380952,86d634e6-64cb-48e1-8cf7-1c310d4c6f64,6,25.0311,26.7302,space,1,0.3581,,0,9,9,12,1,M,space,,,,,,,,,,
,,,,,R_9WNk132xffK2PHM,001,2025-08-08_11h55.59.679,continuous_performance_test,2024.2.4,Win32,59.52380952,86d634e6-64cb-48e1-8cf7-1c310d4c6f64,6,26.7313,28.5301,space,1,0.3816,,0,10,10,5,1,F,space,,,,,,,,,,
,,,,,R_9WNk132xffK2PHM,001,2025-08-08_11h55.59.679,continuous_performance_test,2024.2.4,Win32,59.52380952,86d634e6-64cb-48e1-8cf7-1c310d4c6f64,6,28.5311,30.5302,space,1,0.3664,,0,11,11,3,1,D,space,,,,,,,,,,
,,,,,R_9WNk132xffK2PHM,001,2025-08-08_11h55.59.679,continuous_performance_test,2024.2.4,Win32,59.52380952,86d634e6-64cb-48e1-8cf7-1c310d4c6f64,6,30.5318,32.2303,space,1,0.4261,,0,12,12,22,1,W,space,,,,,,,,,,
,,,,,R_9WNk132xffK2PHM,001,2025-08-08_11h55.59.679,continuous_performance_test,2024.2.4,Win32,59.52380952,86d634e6-64cb-48e1-8cf7-1c310d4c6f64,6,32.2315,33.8802,space,1,0.3597,,0,13,13,2,1,C,space,,,,,,,,,,
,,,,,R_9WNk132xffK2PHM,001,2025-08-08_11h55.59.679,continuous_performance_test,2024.2.4,Win32,59.52380952,86d634e6-64cb-48e1-8cf7-1c310d4c6f64,6,33.8811,35.5801,space,1,0.6186,,0,14,14,14,1,O,space,,,,,,,,,,
,,,,,R_9WNk132xffK2PHM,001,2025-08-08_11h55.59.679,continuous_performance_test,2024.2.4,Win32,59.52380952,86d634e6-64cb-48e1-8cf7-1c310d4c6f64,6,35.581,37.1803,space,1,0.4375,,0,15,15,6,1,G,space,,,,,,,,,,
,,,,,R_9WNk132xffK2PHM,001,2025-08-08_11h55.59.679,continuous_performance_test,2024.2.4,Win32,59.52380952,86d634e6-64cb-48e1-8cf7-1c310d4c6f64,6,37.1813,39.1302,space,1,0.4484,,0,16,16,0,1,A,space,,,,,,,,,,
,,,,,R_9WNk132xffK2PHM,001,2025-08-08_11h55.59.679,continuous_performance_test,2024.2.4,Win32,59.52380952,86d634e6-64cb-48e1-8cf7-1c310d4c6f64,6,39.131,41.0304,space,1,0.6215,,0,17,17,7,1,H,space,,,,,,,,,,
,,,,,R_9WNk132xffK2PHM,001,2025-08-08_11h55.59.679,continuous_performance_test,2024.2.4,Win32,59.52380952,86d634e6-64cb-48e1-8cf7-1c310d4c6f64,6,41.0319,42.8304,space,1,0.3244,,0,18,18,16,1,Q,space,,,,,,,,,,
,,,,,R_9WNk132xffK2PHM,001,2025-08-08_11h55.59.679,continuous_performance_test,2024.2.4,Win32,59.52380952,86d634e6-64cb-48e1-8cf7-1c310d4c6f64,6,42.8314,44.4804,space,1,0.3087,,0,19,19,11,1,L,space,,,,,,,,,,
,,,,,R_9WNk132xffK2PHM,001,2025-08-08_11h55.59.679,continuous_performance_test,2024.2.4,Win32,59.52380952,86d634e6-64cb-48e1-8cf7-1c310d4c6f64,6,44.4814,46.2805,space,1,0.3816,,0,20,20,9,1,J,space,,,,,,,,,,
,,,,,R_9WNk132xffK2PHM,001,2025-08-08_11h55.59.679,continuous_performance_test,2024.2.4,Win32,59.52380952,86d634e6-64cb-48e1-8cf7-1c310d4c6f64,6,46.2811,47.9806,space,0,0.276,,0,21,21,26,1,X,,,,,,,,,,,
,,,,,R_9WNk132xffK2PHM,001,2025-08-08_11h55.59.679,continuous_performance_test,2024.2.4,Win32,59.52380952,86d634e6-64cb-48e1-8cf7-1c310d4c6f64,6,47.9817,49.7805,space,1,0.3878,,0,22,22,20,1,U,space,,,,,,,,,,
,,,,,R_9WNk132xffK2PHM,001,2025-08-08_11h55.59.679,continuous_performance_test,2024.2.4,Win32,59.52380952,86d634e6-64cb-48e1-8cf7-1c310d4c6f64,6,49.7815,51.3806,space,1,0.3696,,0,23,23,10,1,K,space,,,,,,,,,,
,,,,,R_9WNk132xffK2PHM,001,2025-08-08_11h55.59.679,continuous_performance_test,2024.2.4,Win32,59.52380952,86d634e6-64cb-48e1-8cf7-1c310d4c6f64,6,51.3817,53.1306,space,1,0.3105,,0,24,24,24,1,Z,space,,,,,,,,,,
,,,,,R_9WNk132xffK2PHM,001,2025-08-08_11h55.59.679,continuous_performance_test,2024.2.4,Win32,59.52380952,86d634e6-64cb-48e1-8cf7-1c310d4c6f64,6,53.1317,54.8804,space,1,0.358,,0,25,25,1,1,B,space,,,,,,,,,,
,,,,,R_9WNk132xffK2PHM,001,2025-08-08_11h55.59.679,continuous_performance_test,2024.2.4,Win32,59.52380952,86d634e6-64cb-48e1-8cf7-1c310d4c6f64,6,54.8812,56.7806,,1,,,0,26,26,27,1,X,,,,,,,,,,,
,,,,,R_9WNk132xffK2PHM,001,2025-08-08_11h55.59.679,continuous_performance_test,2024.2.4,Win32,59.52380952,86d634e6-64cb-48e1-8cf7-1c310d4c6f64,6,56.7815,58.3306,space,1,0.3171,,0,27,27,18,1,S,space,,,,,,,,,,
,,,,,R_9WNk132xffK2PHM,001,2025-08-08_11h55.59.679,continuous_performance_test,2024.2.4,Win32,59.52380952,86d634e6-64cb-48e1-8cf7-1c310d4c6f64,6,58.3312,60.1806,,1,,,0,28,28,28,1,X,,,,,,,,,,,
,,,,,R_9WNk132xffK2PHM,001,2025-08-08_11h55.59.679,continuous_performance_test,2024.2.4,Win32,59.52380952,86d634e6-64cb-48e1-8cf7-1c310d4c6f64,6,60.1817,61.7808,space,1,0.5675,,0,29,29,19,1,T,space,,,,,,,,,,
,,,,,R_9WNk132xffK2PHM,001,2025-08-08_11h55.59.679,continuous_performance_test,2024.2.4,Win32,59.52380952,86d634e6-64cb-48e1-8cf7-1c310d4c6f64,6,76.7871,78.731,space,1,0.8225,,0,0,0,13,1,N,space,61.7812,76.781,,,,,,,,
,,,,,R_9WNk132xffK2PHM,001,2025-08-08_11h55.59.679,continuous_performance_test,2024.2.4,Win32,59.52380952,86d634e6-64cb-48e1-8cf7-1c310d4c6f64,6,78.7318,80.5311,space,1,0.4185,,0,1,1,8,1,I,space,,,,,,,,,,
,,,,,R_9WNk132xffK2PHM,001,2025-08-08_11h55.59.679,continuous_performance_test,2024.2.4,Win32,59.52380952,86d634e6-64cb-48e1-8cf7-1c310d4c6f64,6,80.5322,82.1813,space,1,0.3342,,0,2,2,14,1,O,space,,,,,,,,,,
,,,,,R_9WNk132xffK2PHM,001,2025-08-08_11h55.59.679,continuous_performance_test,2024.2.4,Win32,59.52380952,86d634e6-64cb-48e1-8cf7-1c310d4c6f64,6,82.1824,83.8312,space,1,0.3984,,0,3,3,24,1,Z,space,,,,,,,,,,
,,,,,R_9WNk132xffK2PHM,001,2025-08-08_11h55.59.679,continuous_performance_test,2024.2.4,Win32,59.52380952,86d634e6-64cb-48e1-8cf7-1c310d4c6f64,6,83.8324,85.4311,,1,,,0,4,4,29,1,X,,,,,,,,,,,
,,,,,R_9WNk132xffK2PHM,001,2025-08-08_11h55.59.679,continuous_performance_test,2024.2.4,Win32,59.52380952,86d634e6-64cb-48e1-8cf7-1c310d4c6f64,6,85.4316,87.4311,space,1,0.2982,,0,5,5,2,1,C,space,,,,,,,,,,
,,,,,R_9WNk132xffK2PHM,001,2025-08-08_11h55.59.679,continuous_performance_test,2024.2.4,Win32,59.52380952,86d634e6-64cb-48e1-8cf7-1c310d4c6f64,6,87.432,89.3813,space,0,0.2941,,0,6,6,28,1,X,,,,,,,,,,,
,,,,,R_9WNk132xffK2PHM,001,2025-08-08_11h55.59.679,continuous_performance_test,2024.2.4,Win32,59.52380952,86d634e6-64cb-48e1-8cf7-1c310d4c6f64,6,89.3819,91.3813,space,1,0.3109,,0,7,7,20,1,U,space,,,,,,,,,,
,,,,,R_9WNk132xffK2PHM,001,2025-08-08_11h55.59.679,continuous_performance_test,2024.2.4,Win32,59.52380952,86d634e6-64cb-48e1-8cf7-1c310d4c6f64,6,91.3821,93.3315,space,1,0.415,,0,8,8,3,1,D,space,,,,,,,,,,
,,,,,R_9WNk132xffK2PHM,001,2025-08-08_11h55.59.679,continuous_performance_test,2024.2.4,Win32,59.52380952,86d634e6-64cb-48e1-8cf7-1c310d4c6f64,6,93.3328,94.9313,space,1,0.4103,,0,9,9,4,1,E,space,,,,,,,,,,
,,,,,R_9WNk132xffK2PHM,001,2025-08-08_11h55.59.679,continuous_performance_test,2024.2.4,Win32,59.52380952,86d634e6-64cb-48e1-8cf7-1c310d4c6f64,6,94.9326,96.5814,space,1,0.3021,,0,10,10,9,1,J,space,,,,,,,,,,
,,,,,R_9WNk132xffK2PHM,001,2025-08-08_11h55.59.679,continuous_performance_test,2024.2.4,Win32,59.52380952,86d634e6-64cb-48e1-8cf7-1c310d4c6f64,6,96.5821,98.3814,space,1,0.3547,,0,11,11,5,1,F,space,,,,,,,,,,
,,,,,R_9WNk132xffK2PHM,001,2025-08-08_11h55.59.679,continuous_performance_test,2024.2.4,Win32,59.52380952,86d634e6-64cb-48e1-8cf7-1c310d4c6f64,6,98.3823,99.9313,space,1,0.3427,,0,12,12,18,1,S,space,,,,,,,,,,
,,,,,R_9WNk132xffK2PHM,001,2025-08-08_11h55.59.679,continuous_performance_test,2024.2.4,Win32,59.52380952,86d634e6-64cb-48e1-8cf7-1c310d4c6f64,6,99.932,101.7815,space,1,0.4089,,0,13,13,1,1,B,space,,,,,,,,,,
,,,,,R_9WNk132xffK2PHM,001,2025-08-08_11h55.59.679,continuous_performance_test,2024.2.4,Win32,59.52380952,86d634e6-64cb-48e1-8cf7-1c310d4c6f64,6,101.7821,103.5316,space,1,0.332,,0,14,14,17,1,R,space,,,,,,,,,,
,,,,,R_9WNk132xffK2PHM,001,2025-08-08_11h55.59.679,continuous_performance_test,2024.2.4,Win32,59.52380952,86d634e6-64cb-48e1-8cf7-1c310d4c6f64,6,103.5322,105.0815,space,1,0.254,,0,15,15,12,1,M,space,,,,,,,,,,
,,,,,R_9WNk132xffK2PHM,001,2025-08-08_11h55.59.679,continuous_performance_test,2024.2.4,Win32,59.52380952,86d634e6-64cb-48e1-8cf7-1c310d4c6f64,6,105.0822,106.9313,,1,,,0,16,16,27,1,X,,,,,,,,,,,
,,,,,R_9WNk132xffK2PHM,001,2025-08-08_11h55.59.679,continuous_performance_test,2024.2.4,Win32,59.52380952,86d634e6-64cb-48e1-8cf7-1c310d4c6f64,6,106.9321,108.6317,space,1,0.2657,,0,17,17,11,1,L,space,,,,,,,,,,
,,,,,R_9WNk132xffK2PHM,001,2025-08-08_11h55.59.679,continuous_performance_test,2024.2.4,Win32,59.52380952,86d634e6-64cb-48e1-8cf7-1c310d4c6f64,6,108.6324,110.2813,space,1,0.3034,,0,18,18,19,1,T,space,,,,,,,,,,
,,,,,R_9WNk132xffK2PHM,001,2025-08-08_11h55.59.679,continuous_performance_test,2024.2.4,Win32,59.52380952,86d634e6-64cb-48e1-8cf7-1c310d4c6f64,6,110.282,112.1317,space,1,0.361,,0,19,19,15,1,P,space,,,,,,,,,,
,,,,,R_9WNk132xffK2PHM,001,2025-08-08_11h55.59.679,continuous_performance_test,2024.2.4,Win32,59.52380952,86d634e6-64cb-48e1-8cf7-1c310d4c6f64,6,112.1325,114.1315,space,1,0.3213,,0,20,20,23,1,Y,space,,,,,,,,,,
,,,,,R_9WNk132xffK2PHM,001,2025-08-08_11h55.59.679,continuous_performance_test,2024.2.4,Win32,59.52380952,86d634e6-64cb-48e1-8cf7-1c310d4c6f64,6,114.1323,115.8817,space,1,0.3256,,0,21,21,10,1,K,space,,,,,,,,,,
,,,,,R_9WNk132xffK2PHM,001,2025-08-08_11h55.59.679,continuous_performance_test,2024.2.4,Win32,59.52380952,86d634e6-64cb-48e1-8cf7-1c310d4c6f64,6,115.8826,117.7818,space,1,0.3337,,0,22,22,22,1,W,space,,,,,,,,,,
,,,,,R_9WNk132xffK2PHM,001,2025-08-08_11h55.59.679,continuous_performance_test,2024.2.4,Win32,59.52380952,86d634e6-64cb-48e1-8cf7-1c310d4c6f64,6,117.7825,119.3318,space,1,0.0352,,0,23,23,6,1,G,space,,,,,,,,,,
,,,,,R_9WNk132xffK2PHM,001,2025-08-08_11h55.59.679,continuous_performance_test,2024.2.4,Win32,59.52380952,86d634e6-64cb-48e1-8cf7-1c310d4c6f64,6,119.3328,121.3319,space,1,0.3478,,0,24,24,21,1,V,space,,,,,,,,,,
,,,,,R_9WNk132xffK2PHM,001,2025-08-08_11h55.59.679,continuous_performance_test,2024.2.4,Win32,59.52380952,86d634e6-64cb-48e1-8cf7-1c310d4c6f64,6,121.3325,123.3318,space,0,0.3989,,0,25,25,25,1,X,,,,,,,,,,,
,,,,,R_9WNk132xffK2PHM,001,2025-08-08_11h55.59.679,continuous_performance_test,2024.2.4,Win32,59.52380952,86d634e6-64cb-48e1-8cf7-1c310d4c6f64,6,123.3328,124.932,space,1,0.4821,,0,26,26,0,1,A,space,,,,,,,,,,
,,,,,R_9WNk132xffK2PHM,001,2025-08-08_11h55.59.679,continuous_performance_test,2024.2.4,Win32,59.52380952,86d634e6-64cb-48e1-8cf7-1c310d4c6f64,6,124.933,126.882,space,1,0.3488,,0,27,27,16,1,Q,space,,,,,,,,,,
,,,,,R_9WNk132xffK2PHM,001,2025-08-08_11h55.59.679,continuous_performance_test,2024.2.4,Win32,59.52380952,86d634e6-64cb-48e1-8cf7-1c310d4c6f64,6,126.8827,128.5821,,1,,,0,28,28,26,1,X,,,,,,,,,,,
,,,,,R_9WNk132xffK2PHM,001,2025-08-08_11h55.59.679,continuous_performance_test,2024.2.4,Win32,59.52380952,86d634e6-64cb-48e1-8cf7-1c310d4c6f64,6,128.583,130.5818,space,1,0.3254,,0,29,29,7,1,H,space,,,,,,,,,,
,,,,,R_9WNk132xffK2PHM,001,2025-08-08_11h55.59.679,continuous_performance_test,2024.2.4,Win32,59.52380952,86d634e6-64cb-48e1-8cf7-1c310d4c6f64,6,145.5861,147.1821,space,1,0.3538,,0,0,0,4,1,E,space,130.5827,145.5824,,,,,,,,
,,,,,R_9WNk132xffK2PHM,001,2025-08-08_11h55.59.679,continuous_performance_test,2024.2.4,Win32,59.52380952,86d634e6-64cb-48e1-8cf7-1c310d4c6f64,6,147.1828,149.1824,space,1,0.3818,,0,1,1,9,1,J,space,,,,,,,,,,
,,,,,R_9WNk132xffK2PHM,001,2025-08-08_11h55.59.679,continuous_performance_test,2024.2.4,Win32,59.52380952,86d634e6-64cb-48e1-8cf7-1c310d4c6f64,6,149.183,151.1324,space,1,0.3096,,0,2,2,3,1,D,space,,,,,,,,,,
,,,,,R_9WNk132xffK2PHM,001,2025-08-08_11h55.59.679,continuous_performance_test,2024.2.4,Win32,59.52380952,86d634e6-64cb-48e1-8cf7-1c310d4c6f64,6,151.133,152.6826,space,1,0.3489,,0,3,3,10,1,K,space,,,,,,,,,,
,,,,,R_9WNk132xffK2PHM,001,2025-08-08_11h55.59.679,continuous_performance_test,2024.2.4,Win32,59.52380952,86d634e6-64cb-48e1-8cf7-1c310d4c6f64,6,152.6837,154.4327,space,1,0.3857,,0,4,4,8,1,I,space,,,,,,,,,,
,,,,,R_9WNk132xffK2PHM,001,2025-08-08_11h55.59.679,continuous_performance_test,2024.2.4,Win32,59.52380952,86d634e6-64cb-48e1-8cf7-1c310d4c6f64,6,154.4334,156.3324,space,1,0.3524,,0,5,5,6,1,G,space,,,,,,,,,,
,,,,,R_9WNk132xffK2PHM,001,2025-08-08_11h55.59.679,continuous_performance_test,2024.2.4,Win32,59.52380952,86d634e6-64cb-48e1-8cf7-1c310d4c6f64,6,156.333,158.1326,space,0,0.3152,,0,6,6,28,1,X,,,,,,,,,,,
,,,,,R_9WNk132xffK2PHM,001,2025-08-08_11h55.59.679,continuous_performance_test,2024.2.4,Win32,59.52380952,86d634e6-64cb-48e1-8cf7-1c310d4c6f64,6,158.1332,160.0826,space,1,0.3758,,0,7,7,13,1,N,space,,,,,,,,,,
,,,,,R_9WNk132xffK2PHM,001,2025-08-08_11h55.59.679,continuous_performance_test,2024.2.4,Win32,59.52380952,86d634e6-64cb-48e1-8cf7-1c310d4c6f64,6,160.0833,161.8328,space,1,0.4253,,0,8,8,23,1,Y,space,,,,,,,,,,
,,,,,R_9WNk132xffK2PHM,001,2025-08-08_11h55.59.679,continuous_performance_test,2024.2.4,Win32,59.52380952,86d634e6-64cb-48e1-8cf7-1c310d4c6f64,6,161.834,163.4327,space,1,0.3654,,0,9,9,2,1,C,space,,,,,,,,,,
,,,,,R_9WNk132xffK2PHM,001,2025-08-08_11h55.59.679,continuous_performance_test,2024.2.4,Win32,59.52380952,86d634e6-64cb-48e1-8cf7-1c310d4c6f64,6,163.4334,165.1826,space,1,0.2906,,0,10,10,11,1,L,space,,,,,,,,,,
,,,,,R_9WNk132xffK2PHM,001,2025-08-08_11h55.59.679,continuous_performance_test,2024.2.4,Win32,59.52380952,86d634e6-64cb-48e1-8cf7-1c310d4c6f64,6,165.1832,167.1828,space,1,0.3191,,0,11,11,1,1,B,space,,,,,,,,,,
,,,,,R_9WNk132xffK2PHM,001,2025-08-08_11h55.59.679,continuous_performance_test,2024.2.4,Win32,59.52380952,86d634e6-64cb-48e1-8cf7-1c310d4c6f64,6,167.1837,169.033,space,1,0.3657,,0,12,12,5,1,F,space,,,,,,,,,,
,,,,,R_9WNk132xffK2PHM,001,2025-08-08_11h55.59.679,continuous_performance_test,2024.2.4,Win32,59.52380952,86d634e6-64cb-48e1-8cf7-1c310d4c6f64,6,169.0341,170.633,space,1,0.3156,,0,13,13,24,1,Z,space,,,,,,,,,,
,,,,,R_9WNk132xffK2PHM,001,2025-08-08_11h55.59.679,continuous_performance_test,2024.2.4,Win32,59.52380952,86d634e6-64cb-48e1-8cf7-1c310d4c6f64,6,170.6337,172.5828,space,1,0.3381,,0,14,14,22,1,W,space,,,,,,,,,,
,,,,,R_9WNk132xffK2PHM,001,2025-08-08_11h55.59.679,continuous_performance_test,2024.2.4,Win32,59.52380952,86d634e6-64cb-48e1-8cf7-1c310d4c6f64,6,172.5836,174.433,space,0,0.3097,,0,15,15,29,1,X,,,,,,,,,,,
,,,,,R_9WNk132xffK2PHM,001,2025-08-08_11h55.59.679,continuous_performance_test,2024.2.4,Win32,59.52380952,86d634e6-64cb-48e1-8cf7-1c310d4c6f64,6,174.4338,176.2829,space,1,0.3249,,0,16,16,7,1,H,space,,,,,,,,,,
,,,,,R_9WNk132xffK2PHM,001,2025-08-08_11h55.59.679,continuous_performance_test,2024.2.4,Win32,59.52380952,86d634e6-64cb-48e1-8cf7-1c310d4c6f64,6,176.2836,178.0331,,1,,,0,17,17,25,1,X,,,,,,,,,,,
,,,,,R_9WNk132xffK2PHM,001,2025-08-08_11h55.59.679,continuous_performance_test,2024.2.4,Win32,59.52380952,86d634e6-64cb-48e1-8cf7-1c310d4c6f64,6,178.034,179.7829,space,1,0.3148,,0,18,18,18,1,S,space,,,,,,,,,,
,,,,,R_9WNk132xffK2PHM,001,2025-08-08_11h55.59.679,continuous_performance_test,2024.2.4,Win32,59.52380952,86d634e6-64cb-48e1-8cf7-1c310d4c6f64,6,179.7838,181.483,space,1,0.4844,,0,19,19,16,1,Q,space,,,,,,,,,,
,,,,,R_9WNk132xffK2PHM,001,2025-08-08_11h55.59.679,continuous_performance_test,2024.2.4,Win32,59.52380952,86d634e6-64cb-48e1-8cf7-1c310d4c6f64,6,181.4837,183.033,space,1,0.4816,,0,20,20,17,1,R,space,,,,,,,,,,
,,,,,R_9WNk132xffK2PHM,001,2025-08-08_11h55.59.679,continuous_performance_test,2024.2.4,Win32,59.52380952,86d634e6-64cb-48e1-8cf7-1c310d4c6f64,6,183.0338,184.8332,,1,,,0,21,21,26,1,X,,,,,,,,,,,
,,,,,R_9WNk132xffK2PHM,001,2025-08-08_11h55.59.679,continuous_performance_test,2024.2.4,Win32,59.52380952,86d634e6-64cb-48e1-8cf7-1c310d4c6f64,6,184.8347,186.5831,space,1,0.3436,,0,22,22,15,1,P,space,,,,,,,,,,
,,,,,R_9WNk132xffK2PHM,001,2025-08-08_11h55.59.679,continuous_performance_test,2024.2.4,Win32,59.52380952,86d634e6-64cb-48e1-8cf7-1c310d4c6f64,6,186.5838,188.3832,space,1,0.6484,,0,23,23,21,1,V,space,,,,,,,,,,
,,,,,R_9WNk132xffK2PHM,001,2025-08-08_11h55.59.679,continuous_performance_test,2024.2.4,Win32,59.52380952,86d634e6-64cb-48e1-8cf7-1c310d4c6f64,6,188.3838,189.9834,space,1,0.3248,,0,24,24,12,1,M,space,,,,,,,,,,
,,,,,R_9WNk132xffK2PHM,001,2025-08-08_11h55.59.679,continuous_performance_test,2024.2.4,Win32,59.52380952,86d634e6-64cb-48e1-8cf7-1c310d4c6f64,6,189.9841,191.6832,space,1,0.4149,,0,25,25,0,1,A,space,,,,,,,,,,
,,,,,R_9WNk132xffK2PHM,001,2025-08-08_11h55.59.679,continuous_performance_test,2024.2.4,Win32,59.52380952,86d634e6-64cb-48e1-8cf7-1c310d4c6f64,6,191.6838,193.6831,space,1,0.3819,,0,26,26,20,1,U,space,,,,,,,,,,
,,,,,R_9WNk132xffK2PHM,001,2025-08-08_11h55.59.679,continuous_performance_test,2024.2.4,Win32,59.52380952,86d634e6-64cb-48e1-8cf7-1c310d4c6f64,6,193.6842,195.5333,,1,,,0,27,27,27,1,X,,,,,,,,,,,
,,,,,R_9WNk132xffK2PHM,001,2025-08-08_11h55.59.679,continuous_performance_test,2024.2.4,Win32,59.52380952,86d634e6-64cb-48e1-8cf7-1c310d4c6f64,6,195.5341,197.2334,space,1,0.3374,,0,28,28,19,1,T,space,,,,,,,,,,
,,,,,R_9WNk132xffK2PHM,001,2025-08-08_11h55.59.679,continuous_performance_test,2024.2.4,Win32,59.52380952,86d634e6-64cb-48e1-8cf7-1c310d4c6f64,6,197.2343,199.1831,space,1,0.332,,0,29,29,14,1,O,space,,,,,,,,,,
,,,,,R_9WNk132xffK2PHM,001,2025-08-08_11h55.59.679,continuous_performance_test,2024.2.4,Win32,59.52380952,86d634e6-64cb-48e1-8cf7-1c310d4c6f64,6,214.187,215.9337,space,1,0.6658,,0,0,0,18,1,S,space,199.1839,214.1837,,,,,,,,
,,,,,R_9WNk132xffK2PHM,001,2025-08-08_11h55.59.679,continuous_performance_test,2024.2.4,Win32,59.52380952,86d634e6-64cb-48e1-8cf7-1c310d4c6f64,6,215.9344,217.4836,space,0,0.3523,,0,1,1,29,1,X,,,,,,,,,,,
,,,,,R_9WNk132xffK2PHM,001,2025-08-08_11h55.59.679,continuous_performance_test,2024.2.4,Win32,59.52380952,86d634e6-64cb-48e1-8cf7-1c310d4c6f64,6,217.4843,219.1339,space,1,0.3654,,0,2,2,19,1,T,space,,,,,,,,,,
,,,,,R_9WNk132xffK2PHM,001,2025-08-08_11h55.59.679,continuous_performance_test,2024.2.4,Win32,59.52380952,86d634e6-64cb-48e1-8cf7-1c310d4c6f64,6,219.1351,221.0338,space,1,0.335,,0,3,3,22,1,W,space,,,,,,,,,,
,,,,,R_9WNk132xffK2PHM,001,2025-08-08_11h55.59.679,continuous_performance_test,2024.2.4,Win32,59.52380952,86d634e6-64cb-48e1-8cf7-1c310d4c6f64,6,221.0345,222.9837,space,1,0.3657,,0,4,4,24,1,Z,space,,,,,,,,,,
,,,,,R_9WNk132xffK2PHM,001,2025-08-08_11h55.59.679,continuous_performance_test,2024.2.4,Win32,59.52380952,86d634e6-64cb-48e1-8cf7-1c310d4c6f64,6,222.9843,224.5839,,1,,,0,5,5,28,1,X,,,,,,,,,,,
,,,,,R_9WNk132xffK2PHM,001,2025-08-08_11h55.59.679,continuous_performance_test,2024.2.4,Win32,59.52380952,86d634e6-64cb-48e1-8cf7-1c310d4c6f64,6,224.5845,226.4839,space,1,0.315,,0,6,6,3,1,D,space,,,,,,,,,,
,,,,,R_9WNk132xffK2PHM,001,2025-08-08_11h55.59.679,continuous_performance_test,2024.2.4,Win32,59.52380952,86d634e6-64cb-48e1-8cf7-1c310d4c6f64,6,226.4847,228.1339,space,0,0.348,,0,7,7,26,1,X,,,,,,,,,,,
,,,,,R_9WNk132xffK2PHM,001,2025-08-08_11h55.59.679,continuous_performance_test,2024.2.4,Win32,59.52380952,86d634e6-64cb-48e1-8cf7-1c310d4c6f64,6,228.1345,230.0839,space,1,0.2986,,0,8,8,20,1,U,space,,,,,,,,,,
,,,,,R_9WNk132xffK2PHM,001,2025-08-08_11h55.59.679,continuous_performance_test,2024.2.4,Win32,59.52380952,86d634e6-64cb-48e1-8cf7-1c310d4c6f64,6,230.0845,232.0841,space,1,0.2928,,0,9,9,14,1,O,space,,,,,,,,,,
,,,,,R_9WNk132xffK2PHM,001,2025-08-08_11h55.59.679,continuous_performance_test,2024.2.4,Win32,59.52380952,86d634e6-64cb-48e1-8cf7-1c310d4c6f64,6,232.085,233.8341,space,1,0.3494,,0,10,10,17,1,R,space,,,,,,,,,,
,,,,,R_9WNk132xffK2PHM,001,2025-08-08_11h55.59.679,continuous_performance_test,2024.2.4,Win32,59.52380952,86d634e6-64cb-48e1-8cf7-1c310d4c6f64,6,233.8347,235.7338,space,1,0.3053,,0,11,11,5,1,F,space,,,,,,,,,,
,,,,,R_9WNk132xffK2PHM,001,2025-08-08_11h55.59.679,continuous_performance_test,2024.2.4,Win32,59.52380952,86d634e6-64cb-48e1-8cf7-1c310d4c6f64,6,235.7344,237.6843,space,1,0.3853,,0,12,12,16,1,Q,space,,,,,,,,,,
,,,,,R_9WNk132xffK2PHM,001,2025-08-08_11h55.59.679,continuous_performance_test,2024.2.4,Win32,59.52380952,86d634e6-64cb-48e1-8cf7-1c310d4c6f64,6,237.6851,239.5341,space,1,0.5402,,0,13,13,4,1,E,space,,,,,,,,,,
,,,,,R_9WNk132xffK2PHM,001,2025-08-08_11h55.59.679,continuous_performance_test,2024.2.4,Win32,59.52380952,86d634e6-64cb-48e1-8cf7-1c310d4c6f64,6,239.535,241.1841,space,1,0.3535,,0,14,14,8,1,I,space,,,,,,,,,,
,,,,,R_9WNk132xffK2PHM,001,2025-08-08_11h55.59.679,continuous_performance_test,2024.2.4,Win32,59.52380952,86d634e6-64cb-48e1-8cf7-1c310d4c6f64,6,241.1847,243.0343,,1,,,0,15,15,27,1,X,,,,,,,,,,,
,,,,,R_9WNk132xffK2PHM,001,2025-08-08_11h55.59.679,continuous_performance_test,2024.2.4,Win32,59.52380952,86d634e6-64cb-48e1-8cf7-1c310d4c6f64,6,243.0351,244.8345,space,1,0.2727,,0,16,16,7,1,H,space,,,,,,,,,,
,,,,,R_9WNk132xffK2PHM,001,2025-08-08_11h55.59.679,continuous_performance_test,2024.2.4,Win32,59.52380952,86d634e6-64cb-48e1-8cf7-1c310d4c6f64,6,244.8352,246.4343,space,1,0.3876,,0,17,17,10,1,K,space,,,,,,,,,,
,,,,,R_9WNk132xffK2PHM,001,2025-08-08_11h55.59.679,continuous_performance_test,2024.2.4,Win32,59.52380952,86d634e6-64cb-48e1-8cf7-1c310d4c6f64,6,246.4352,248.3843,space,0,0.3833,,0,18,18,25,1,X,,,,,,,,,,,
,,,,,R_9WNk132xffK2PHM,001,2025-08-08_11h55.59.679,continuous_performance_test,2024.2.4,Win32,59.52380952,86d634e6-64cb-48e1-8cf7-1c310d4c6f64,6,248.385,250.1345,space,1,0.311,,0,19,19,12,1,M,space,,,,,,,,,,
,,,,,R_9WNk132xffK2PHM,001,2025-08-08_11h55.59.679,continuous_performance_test,2024.2.4,Win32,59.52380952,86d634e6-64cb-48e1-8cf7-1c310d4c6f64,6,250.1358,251.6843,space,1,0.4332,,0,20,20,15,1,P,space,,,,,,,,,,
,,,,,R_9WNk132xffK2PHM,001,2025-08-08_11h55.59.679,continuous_performance_test,2024.2.4,Win32,59.52380952,86d634e6-64cb-48e1-8cf7-1c310d4c6f64,6,251.6849,253.4343,space,1,0.3651,,0,21,21,2,1,C,space,,,,,,,,,,
,,,,,R_9WNk132xffK2PHM,001,2025-08-08_11h55.59.679,continuous_performance_test,2024.2.4,Win32,59.52380952,86d634e6-64cb-48e1-8cf7-1c310d4c6f64,6,253.435,255.3346,space,1,0.4013,,0,22,22,13,1,N,space,,,,,,,,,,
,,,,,R_9WNk132xffK2PHM,001,2025-08-08_11h55.59.679,continuous_performance_test,2024.2.4,Win32,59.52380952,86d634e6-64cb-48e1-8cf7-1c310d4c6f64,6,255.3356,257.3345,space,1,0.3984,,0,23,23,11,1,L,space,,,,,,,,,,
,,,,,R_9WNk132xffK2PHM,001,2025-08-08_11h55.59.679,continuous_performance_test,2024.2.4,Win32,59.52380952,86d634e6-64cb-48e1-8cf7-1c310d4c6f64,6,257.3355,258.9347,space,1,0.5414,,0,24,24,6,1,G,space,,,,,,,,,,
,,,,,R_9WNk132xffK2PHM,001,2025-08-08_11h55.59.679,continuous_performance_test,2024.2.4,Win32,59.52380952,86d634e6-64cb-48e1-8cf7-1c310d4c6f64,6,258.9353,260.8346,space,1,0.4245,,0,25,25,23,1,Y,space,,,,,,,,,,
,,,,,R_9WNk132xffK2PHM,001,2025-08-08_11h55.59.679,continuous_performance_test,2024.2.4,Win32,59.52380952,86d634e6-64cb-48e1-8cf7-1c310d4c6f64,6,260.8354,262.7848,space,1,0.4584,,0,26,26,0,1,A,space,,,,,,,,,,
,,,,,R_9WNk132xffK2PHM,001,2025-08-08_11h55.59.679,continuous_performance_test,2024.2.4,Win32,59.52380952,86d634e6-64cb-48e1-8cf7-1c310d4c6f64,6,262.7854,264.7847,space,1,0.3708,,0,27,27,9,1,J,space,,,,,,,,,,
,,,,,R_9WNk132xffK2PHM,001,2025-08-08_11h55.59.679,continuous_performance_test,2024.2.4,Win32,59.52380952,86d634e6-64cb-48e1-8cf7-1c310d4c6f64,6,264.7853,266.6346,space,1,0.4086,,0,28,28,21,1,V,space,,,,,,,,,,
,,,,,R_9WNk132xffK2PHM,001,2025-08-08_11h55.59.679,continuous_performance_test,2024.2.4,Win32,59.52380952,86d634e6-64cb-48e1-8cf7-1c310d4c6f64,6,266.6352,268.3345,space,1,0.367,,0,29,29,1,1,B,space,,,,,,,,,,
,,,,,R_9WNk132xffK2PHM,001,2025-08-08_11h55.59.679,continuous_performance_test,2024.2.4,Win32,59.52380952,86d634e6-64cb-48e1-8cf7-1c310d4c6f64,6,283.3388,285.2852,space,1,0.4002,,0,0,0,23,1,Y,space,268.3355,283.3353,,,,,,,,
,,,,,R_9WNk132xffK2PHM,001,2025-08-08_11h55.59.679,continuous_performance_test,2024.2.4,Win32,59.52380952,86d634e6-64cb-48e1-8cf7-1c310d4c6f64,6,285.2865,287.1851,space,1,0.3151,,0,1,1,1,1,B,space,,,,,,,,,,
,,,,,R_9WNk132xffK2PHM,001,2025-08-08_11h55.59.679,continuous_performance_test,2024.2.4,Win32,59.52380952,86d634e6-64cb-48e1-8cf7-1c310d4c6f64,6,287.1864,288.8851,space,1,0.2989,,0,2,2,2,1,C,space,,,,,,,,,,
,,,,,R_9WNk132xffK2PHM,001,2025-08-08_11h55.59.679,continuous_performance_test,2024.2.4,Win32,59.52380952,86d634e6-64cb-48e1-8cf7-1c310d4c6f64,6,288.886,290.5851,space,1,0.3486,,0,3,3,20,1,U,space,,,,,,,,,,
,,,,,R_9WNk132xffK2PHM,001,2025-08-08_11h55.59.679,continuous_performance_test,2024.2.4,Win32,59.52380952,86d634e6-64cb-48e1-8cf7-1c310d4c6f64,6,290.5858,292.4852,space,1,0.3006,,0,4,4,5,1,F,space,,,,,,,,,,
,,,,,R_9WNk132xffK2PHM,001,2025-08-08_11h55.59.679,continuous_performance_test,2024.2.4,Win32,59.52380952,86d634e6-64cb-48e1-8cf7-1c310d4c6f64,6,292.486,294.3352,space,0,0.2828,,0,5,5,27,1,X,,,,,,,,,,,
,,,,,R_9WNk132xffK2PHM,001,2025-08-08_11h55.59.679,continuous_performance_test,2024.2.4,Win32,59.52380952,86d634e6-64cb-48e1-8cf7-1c310d4c6f64,6,294.3359,296.0855,space,0,0.2725,,0,6,6,28,1,X,,,,,,,,,,,
,,,,,R_9WNk132xffK2PHM,001,2025-08-08_11h55.59.679,continuous_performance_test,2024.2.4,Win32,59.52380952,86d634e6-64cb-48e1-8cf7-1c310d4c6f64,6,296.0865,297.9352,space,1,0.288,,0,7,7,4,1,E,space,,,,,,,,,,
,,,,,R_9WNk132xffK2PHM,001,2025-08-08_11h55.59.679,continuous_performance_test,2024.2.4,Win32,59.52380952,86d634e6-64cb-48e1-8cf7-1c310d4c6f64,6,297.936,299.6352,,1,,,0,8,8,25,1,X,,,,,,,,,,,
,,,,,R_9WNk132xffK2PHM,001,2025-08-08_11h55.59.679,continuous_performance_test,2024.2.4,Win32,59.52380952,86d634e6-64cb-48e1-8cf7-1c310d4c6f64,6,299.6357,301.2353,space,1,0.2824,,0,9,9,21,1,V,space,,,,,,,,,,
,,,,,R_9WNk132xffK2PHM,001,2025-08-08_11h55.59.679,continuous_performance_test,2024.2.4,Win32,59.52380952,86d634e6-64cb-48e1-8cf7-1c310d4c6f64,6,301.2362,302.9856,space,1,0.3932,,0,10,10,17,1,R,space,,,,,,,,,,
,,,,,R_9WNk132xffK2PHM,001,2025-08-08_11h55.59.679,continuous_performance_test,2024.2.4,Win32,59.52380952,86d634e6-64cb-48e1-8cf7-1c310d4c6f64,6,302.9864,304.6351,space,1,0.3688,,0,11,11,14,1,O,space,,,,,,,,,,
,,,,,R_9WNk132xffK2PHM,001,2025-08-08_11h55.59.679,continuous_performance_test,2024.2.4,Win32,59.52380952,86d634e6-64cb-48e1-8cf7-1c310d4c6f64,6,304.6359,306.6355,space,1,0.3883,,0,12,12,8,1,I,space,,,,,,,,,,
,,,,,R_9WNk132xffK2PHM,001,2025-08-08_11h55.59.679,continuous_performance_test,2024.2.4,Win32,59.52380952,86d634e6-64cb-48e1-8cf7-1c310d4c6f64,6,306.6365,308.4855,space,1,0.3152,,0,13,13,3,1,D,space,,,,,,,,,,
,,,,,R_9WNk132xffK2PHM,001,2025-08-08_11h55.59.679,continuous_performance_test,2024.2.4,Win32,59.52380952,86d634e6-64cb-48e1-8cf7-1c310d4c6f64,6,308.4864,310.0355,space,1,0.2668,,0,14,14,15,1,P,space,,,,,,,,,,
,,,,,R_9WNk132xffK2PHM,001,2025-08-08_11h55.59.679,continuous_performance_test,2024.2.4,Win32,59.52380952,86d634e6-64cb-48e1-8cf7-1c310d4c6f64,6,310.0361,311.9855,space,1,0.2738,,0,15,15,13,1,N,space,,,,,,,,,,
,,,,,R_9WNk132xffK2PHM,001,2025-08-08_11h55.59.679,continuous_performance_test,2024.2.4,Win32,59.52380952,86d634e6-64cb-48e1-8cf7-1c310d4c6f64,6,311.9862,313.6356,space,1,0.2776,,0,16,16,18,1,S,space,,,,,,,,,,
,,,,,R_9WNk132xffK2PHM,001,2025-08-08_11h55.59.679,continuous_performance_test,2024.2.4,Win32,59.52380952,86d634e6-64cb-48e1-8cf7-1c310d4c6f64,6,313.6366,315.3355,space,0,0.2886,,0,17,17,26,1,X,,,,,,,,,,,
,,,,,R_9WNk132xffK2PHM,001,2025-08-08_11h55.59.679,continuous_performance_test,2024.2.4,Win32,59.52380952,86d634e6-64cb-48e1-8cf7-1c310d4c6f64,6,315.3362,317.3354,space,1,0.2863,,0,18,18,24,1,Z,space,,,,,,,,,,
,,,,,R_9WNk132xffK2PHM,001,2025-08-08_11h55.59.679,continuous_performance_test,2024.2.4,Win32,59.52380952,86d634e6-64cb-48e1-8cf7-1c310d4c6f64,6,317.3361,319.2856,space,1,0.491,,0,19,19,10,1,K,space,,,,,,,,,,
,,,,,R_9WNk132xffK2PHM,001,2025-08-08_11h55.59.679,continuous_performance_test,2024.2.4,Win32,59.52380952,86d634e6-64cb-48e1-8cf7-1c310d4c6f64,6,319.2863,321.0358,space,1,0.3559,,0,20,20,22,1,W,space,,,,,,,,,,
,,,,,R_9WNk132xffK2PHM,001,2025-08-08_11h55.59.679,continuous_performance_test,2024.2.4,Win32,59.52380952,86d634e6-64cb-48e1-8cf7-1c310d4c6f64,6,321.0367,323.0357,space,1,0.3941,,0,21,21,11,1,L,space,,,,,,,,,,
,,,,,R_9WNk132xffK2PHM,001,2025-08-08_11h55.59.679,continuous_performance_test,2024.2.4,Win32,59.52380952,86d634e6-64cb-48e1-8cf7-1c310d4c6f64,6,323.0365,324.6356,space,0,0.3214,,0,22,22,29,1,X,,,,,,,,,,,
,,,,,R_9WNk132xffK2PHM,001,2025-08-08_11h55.59.679,continuous_performance_test,2024.2.4,Win32,59.52380952,86d634e6-64cb-48e1-8cf7-1c310d4c6f64,6,324.6362,326.3359,space,1,0.315,,0,23,23,16,1,Q,space,,,,,,,,,,
,,,,,R_9WNk132xffK2PHM,001,2025-08-08_11h55.59.679,continuous_performance_test,2024.2.4,Win32,59.52380952,86d634e6-64cb-48e1-8cf7-1c310d4c6f64,6,326.3368,327.9358,space,1,0.4153,,0,24,24,7,1,H,space,,,,,,,,,,
,,,,,R_9WNk132xffK2PHM,001,2025-08-08_11h55.59.679,continuous_performance_test,2024.2.4,Win32,59.52380952,86d634e6-64cb-48e1-8cf7-1c310d4c6f64,6,327.9366,329.8358,space,1,0.3984,,0,25,25,12,1,M,space,,,,,,,,,,
,,,,,R_9WNk132xffK2PHM,001,2025-08-08_11h55.59.679,continuous_performance_test,2024.2.4,Win32,59.52380952,86d634e6-64cb-48e1-8cf7-1c310d4c6f64,6,329.8366,331.4358,space,1,0.3755,,0,26,26,0,1,A,space,,,,,,,,,,
,,,,,R_9WNk132xffK2PHM,001,2025-08-08_11h55.59.679,continuous_performance_test,2024.2.4,Win32,59.52380952,86d634e6-64cb-48e1-8cf7-1c310d4c6f64,6,331.4365,333.1858,space,1,0.3644,,0,27,27,19,1,T,space,,,,,,,,,,
,,,,,R_9WNk132xffK2PHM,001,2025-08-08_11h55.59.679,continuous_performance_test,2024.2.4,Win32,59.52380952,86d634e6-64cb-48e1-8cf7-1c310d4c6f64,6,333.1864,335.1859,space,1,0.6268,,0,28,28,6,1,G,space,,,,,,,,,,
,,,,,R_9WNk132xffK2PHM,001,2025-08-08_11h55.59.679,continuous_performance_test,2024.2.4,Win32,59.52380952,86d634e6-64cb-48e1-8cf7-1c310d4c6f64,6,335.1865,337.1359,space,1,0.4683,,0,29,29,9,1,J,space,,,,,,,,,,
,,,,,R_9WNk132xffK2PHM,001,2025-08-08_11h55.59.679,continuous_performance_test,2024.2.4,Win32,59.52380952,86d634e6-64cb-48e1-8cf7-1c310d4c6f64,6,352.1404,353.9863,space,1,0.3497,,0,0,0,13,1,N,space,337.1365,352.1364,,,,,,,,
,,,,,R_9WNk132xffK2PHM,001,2025-08-08_11h55.59.679,continuous_performance_test,2024.2.4,Win32,59.52380952,86d634e6-64cb-48e1-8cf7-1c310d4c6f64,6,353.9874,355.9363,space,1,0.2888,,0,1,1,19,1,T,space,,,,,,,,,,
,,,,,R_9WNk132xffK2PHM,001,2025-08-08_11h55.59.679,continuous_performance_test,2024.2.4,Win32,59.52380952,86d634e6-64cb-48e1-8cf7-1c310d4c6f64,6,355.9371,357.5362,space,1,0.3683,,0,2,2,16,1,Q,space,,,,,,,,,,
,,,,,R_9WNk132xffK2PHM,001,2025-08-08_11h55.59.679,continuous_performance_test,2024.2.4,Win32,59.52380952,86d634e6-64cb-48e1-8cf7-1c310d4c6f64,6,357.5369,359.1363,,1,,,0,3,3,29,1,X,,,,,,,,,,,
,,,,,R_9WNk132xffK2PHM,001,2025-08-08_11h55.59.679,continuous_performance_test,2024.2.4,Win32,59.52380952,86d634e6-64cb-48e1-8cf7-1c310d4c6f64,6,359.1369,361.0364,space,1,0.2882,,0,4,4,10,1,K,space,,,,,,,,,,
,,,,,R_9WNk132xffK2PHM,001,2025-08-08_11h55.59.679,continuous_performance_test,2024.2.4,Win32,59.52380952,86d634e6-64cb-48e1-8cf7-1c310d4c6f64,6,361.0373,362.8365,space,0,0.3211,,0,5,5,25,1,X,,,,,,,,,,,
,,,,,R_9WNk132xffK2PHM,001,2025-08-08_11h55.59.679,continuous_performance_test,2024.2.4,Win32,59.52380952,86d634e6-64cb-48e1-8cf7-1c310d4c6f64,6,362.8373,364.4366,space,1,0.3336,,0,6,6,7,1,H,space,,,,,,,,,,
,,,,,R_9WNk132xffK2PHM,001,2025-08-08_11h55.59.679,continuous_performance_test,2024.2.4,Win32,59.52380952,86d634e6-64cb-48e1-8cf7-1c310d4c6f64,6,364.4375,366.1866,space,1,0.3825,,0,7,7,20,1,U,space,,,,,,,,,,
,,,,,R_9WNk132xffK2PHM,001,2025-08-08_11h55.59.679,continuous_performance_test,2024.2.4,Win32,59.52380952,86d634e6-64cb-48e1-8cf7-1c310d4c6f64,6,366.1876,368.0366,space,1,0.2682,,0,8,8,24,1,Z,space,,,,,,,,,,
,,,,,R_9WNk132xffK2PHM,001,2025-08-08_11h55.59.679,continuous_performance_test,2024.2.4,Win32,59.52380952,86d634e6-64cb-48e1-8cf7-1c310d4c6f64,6,368.0371,369.9867,space,1,0.4434,,0,9,9,14,1,O,space,,,,,,,,,,
,,,,,R_9WNk132xffK2PHM,001,2025-08-08_11h55.59.679,continuous_performance_test,2024.2.4,Win32,59.52380952,86d634e6-64cb-48e1-8cf7-1c310d4c6f64,6,369.9877,371.9365,space,1,0.3866,,0,10,10,18,1,S,space,,,,,,,,,,
,,,,,R_9WNk132xffK2PHM,001,2025-08-08_11h55.59.679,continuous_performance_test,2024.2.4,Win32,59.52380952,86d634e6-64cb-48e1-8cf7-1c310d4c6f64,6,371.9375,373.5867,,1,,,0,11,11,28,1,X,,,,,,,,,,,
,,,,,R_9WNk132xffK2PHM,001,2025-08-08_11h55.59.679,continuous_performance_test,2024.2.4,Win32,59.52380952,86d634e6-64cb-48e1-8cf7-1c310d4c6f64,6,373.5875,375.4367,space,1,0.3007,,0,12,12,15,1,P,space,,,,,,,,,,
,,,,,R_9WNk132xffK2PHM,001,2025-08-08_11h55.59.679,continuous_performance_test,2024.2.4,Win32,59.52380952,86d634e6-64cb-48e1-8cf7-1c310d4c6f64,6,375.4375,377.1869,space,1,0.266,,0,13,13,0,1,A,space,,,,,,,,,,
,,,,,R_9WNk132xffK2PHM,001,2025-08-08_11h55.59.679,continuous_performance_test,2024.2.4,Win32,59.52380952,86d634e6-64cb-48e1-8cf7-1c310d4c6f64,6,377.1874,378.9365,space,1,0.5874,,0,14,14,4,1,E,space,,,,,,,,,,
,,,,,R_9WNk132xffK2PHM,001,2025-08-08_11h55.59.679,continuous_performance_test,2024.2.4,Win32,59.52380952,86d634e6-64cb-48e1-8cf7-1c310d4c6f64,6,378.9373,380.5368,space,1,0.2775,,0,15,15,2,1,C,space,,,,,,,,,,
,,,,,R_9WNk132xffK2PHM,001,2025-08-08_11h55.59.679,continuous_performance_test,2024.2.4,Win32,59.52380952,86d634e6-64cb-48e1-8cf7-1c310d4c6f64,6,380.5375,382.4869,space,1,0.0886,,0,16,16,1,1,B,space,,,,,,,,,,
,,,,,R_9WNk132xffK2PHM,001,2025-08-08_11h55.59.679,continuous_performance_test,2024.2.4,Win32,59.52380952,86d634e6-64cb-48e1-8cf7-1c310d4c6f64,6,382.4879,384.2869,space,1,0.2589,,0,17,17,12,1,M,space,,,,,,,,,,
,,,,,R_9WNk132xffK2PHM,001,2025-08-08_11h55.59.679,continuous_performance_test,2024.2.4,Win32,59.52380952,86d634e6-64cb-48e1-8cf7-1c310d4c6f64,6,384.2876,386.187,space,1,0.2809,,0,18,18,5,1,F,space,,,,,,,,,,
,,,,,R_9WNk132xffK2PHM,001,2025-08-08_11h55.59.679,continuous_performance_test,2024.2.4,Win32,59.52380952,86d634e6-64cb-48e1-8cf7-1c310d4c6f64,6,386.1875,388.0872,space,1,0.3943,,0,19,19,8,1,I,space,,,,,,,,,,
,,,,,R_9WNk132xffK2PHM,001,2025-08-08_11h55.59.679,continuous_performance_test,2024.2.4,Win32,59.52380952,86d634e6-64cb-48e1-8cf7-1c310d4c6f64,6,388.088,389.9871,space,1,0.365,,0,20,20,9,1,J,space,,,,,,,,,,
,,,,,R_9WNk132xffK2PHM,001,2025-08-08_11h55.59.679,continuous_performance_test,2024.2.4,Win32,59.52380952,86d634e6-64cb-48e1-8cf7-1c310d4c6f64,6,389.9877,391.6872,space,1,0.2772,,0,21,21,3,1,D,space,,,,,,,,,,
,,,,,R_9WNk132xffK2PHM,001,2025-08-08_11h55.59.679,continuous_performance_test,2024.2.4,Win32,59.52380952,86d634e6-64cb-48e1-8cf7-1c310d4c6f64,6,391.6878,393.2871,space,1,0.2776,,0,22,22,17,1,R,space,,,,,,,,,,
,,,,,R_9WNk132xffK2PHM,001,2025-08-08_11h55.59.679,continuous_performance_test,2024.2.4,Win32,59.52380952,86d634e6-64cb-48e1-8cf7-1c310d4c6f64,6,393.2879,395.2872,space,1,0.3583,,0,23,23,11,1,L,space,,,,,,,,,,
,,,,,R_9WNk132xffK2PHM,001,2025-08-08_11h55.59.679,continuous_performance_test,2024.2.4,Win32,59.52380952,86d634e6-64cb-48e1-8cf7-1c310d4c6f64,6,395.2879,396.8372,,1,,,0,24,24,26,1,X,,,,,,,,,,,
,,,,,R_9WNk132xffK2PHM,001,2025-08-08_11h55.59.679,continuous_performance_test,2024.2.4,Win32,59.52380952,86d634e6-64cb-48e1-8cf7-1c310d4c6f64,6,396.8384,398.6872,space,1,0.3001,,0,25,25,6,1,G,space,,,,,,,,,,
,,,,,R_9WNk132xffK2PHM,001,2025-08-08_11h55.59.679,continuous_performance_test,2024.2.4,Win32,59.52380952,86d634e6-64cb-48e1-8cf7-1c310d4c6f64,6,398.688,400.4873,space,1,0.427,,0,26,26,21,1,V,space,,,,,,,,,,
,,,,,R_9WNk132xffK2PHM,001,2025-08-08_11h55.59.679,continuous_performance_test,2024.2.4,Win32,59.52380952,86d634e6-64cb-48e1-8cf7-1c310d4c6f64,6,400.4884,402.0874,space,1,0.3651,,0,27,27,23,1,Y,space,,,,,,,,,,
,,,,,R_9WNk132xffK2PHM,001,2025-08-08_11h55.59.679,continuous_performance_test,2024.2.4,Win32,59.52380952,86d634e6-64cb-48e1-8cf7-1c310d4c6f64,6,402.088,404.0372,,1,,,0,28,28,27,1,X,,,,,,,,,,,
,,,,,R_9WNk132xffK2PHM,001,2025-08-08_11h55.59.679,continuous_performance_test,2024.2.4,Win32,59.52380952,86d634e6-64cb-48e1-8cf7-1c310d4c6f64,6,404.0381,405.9874,space,1,0.3219,,0,29,29,22,1,W,space,,,,,,,,,,
,,,,,R_9WNk132xffK2PHM,001,2025-08-08_11h55.59.679,continuous_performance_test,2024.2.4,Win32,59.52380952,86d634e6-64cb-48e1-8cf7-1c310d4c6f64,6,420.0074,421.8542,space,1,0.3338,,0,0,0,18,1,S,space,405.9879,420.0042,space,14.003,,,,,,
,,,,,R_9WNk132xffK2PHM,001,2025-08-08_11h55.59.679,continuous_performance_test,2024.2.4,Win32,59.52380952,86d634e6-64cb-48e1-8cf7-1c310d4c6f64,6,421.8551,423.6545,space,1,0.3736,,0,1,1,16,1,Q,space,,,,,,,,,,
,,,,,R_9WNk132xffK2PHM,001,2025-08-08_11h55.59.679,continuous_performance_test,2024.2.4,Win32,59.52380952,86d634e6-64cb-48e1-8cf7-1c310d4c6f64,6,423.6557,425.3046,space,1,0.4275,,0,2,2,9,1,J,space,,,,,,,,,,
,,,,,R_9WNk132xffK2PHM,001,2025-08-08_11h55.59.679,continuous_performance_test,2024.2.4,Win32,59.52380952,86d634e6-64cb-48e1-8cf7-1c310d4c6f64,6,425.3054,427.1542,space,1,0.35,,0,3,3,1,1,B,space,,,,,,,,,,
,,,,,R_9WNk132xffK2PHM,001,2025-08-08_11h55.59.679,continuous_performance_test,2024.2.4,Win32,59.52380952,86d634e6-64cb-48e1-8cf7-1c310d4c6f64,6,427.1549,428.9045,space,1,0.2842,,0,4,4,3,1,D,space,,,,,,,,,,
,,,,,R_9WNk132xffK2PHM,001,2025-08-08_11h55.59.679,continuous_performance_test,2024.2.4,Win32,59.52380952,86d634e6-64cb-48e1-8cf7-1c310d4c6f64,6,428.905,430.9046,space,0,0.339,,0,5,5,29,1,X,,,,,,,,,,,
,,,,,R_9WNk132xffK2PHM,001,2025-08-08_11h55.59.679,continuous_performance_test,2024.2.4,Win32,59.52380952,86d634e6-64cb-48e1-8cf7-1c310d4c6f64,6,430.9052,432.6046,,1,,,0,6,6,27,1,X,,,,,,,,,,,
,,,,,R_9WNk132xffK2PHM,001,2025-08-08_11h55.59.679,continuous_performance_test,2024.2.4,Win32,59.52380952,86d634e6-64cb-48e1-8cf7-1c310d4c6f64,6,432.6051,434.1547,space,1,0.3381,,0,7,7,5,1,F,space,,,,,,,,,,
,,,,,R_9WNk132xffK2PHM,001,2025-08-08_11h55.59.679,continuous_performance_test,2024.2.4,Win32,59.52380952,86d634e6-64cb-48e1-8cf7-1c310d4c6f64,6,434.1552,435.9545,space,1,0.2739,,0,8,8,13,1,N,space,,,,,,,,,,
,,,,,R_9WNk132xffK2PHM,001,2025-08-08_11h55.59.679,continuous_performance_test,2024.2.4,Win32,59.52380952,86d634e6-64cb-48e1-8cf7-1c310d4c6f64,6,435.9554,437.6045,space,1,0.5709,,0,9,9,23,1,Y,space,,,,,,,,,,
,,,,,R_9WNk132xffK2PHM,001,2025-08-08_11h55.59.679,continuous_performance_test,2024.2.4,Win32,59.52380952,86d634e6-64cb-48e1-8cf7-1c310d4c6f64,6,437.6051,439.2547,space,1,0.7873,,0,10,10,7,1,H,space,,,,,,,,,,
,,,,,R_9WNk132xffK2PHM,001,2025-08-08_11h55.59.679,continuous_performance_test,2024.2.4,Win32,59.52380952,86d634e6-64cb-48e1-8cf7-1c310d4c6f64,6,439.2552,440.8048,space,1,0.2985,,0,11,11,20,1,U,space,,,,,,,,,,
,,,,,R_9WNk132xffK2PHM,001,2025-08-08_11h55.59.679,continuous_performance_test,2024.2.4,Win32,59.52380952,86d634e6-64cb-48e1-8cf7-1c310d4c6f64,6,440.8057,442.4047,space,1,0.3488,,0,12,12,24,1,Z,space,,,,,,,,,,
,,,,,R_9WNk132xffK2PHM,001,2025-08-08_11h55.59.679,continuous_performance_test,2024.2.4,Win32,59.52380952,86d634e6-64cb-48e1-8cf7-1c310d4c6f64,6,442.4052,444.3047,space,1,0.2987,,0,13,13,15,1,P,space,,,,,,,,,,
,,,,,R_9WNk132xffK2PHM,001,2025-08-08_11h55.59.679,continuous_performance_test,2024.2.4,Win32,59.52380952,86d634e6-64cb-48e1-8cf7-1c310d4c6f64,6,444.3057,445.9047,space,1,0.4488,,0,14,14,19,1,T,space,,,,,,,,,,
,,,,,R_9WNk132xffK2PHM,001,2025-08-08_11h55.59.679,continuous_performance_test,2024.2.4,Win32,59.52380952,86d634e6-64cb-48e1-8cf7-1c310d4c6f64,6,445.9053,447.5048,space,1,0.2927,,0,15,15,4,1,E,space,,,,,,,,,,
,,,,,R_9WNk132xffK2PHM,001,2025-08-08_11h55.59.679,continuous_performance_test,2024.2.4,Win32,59.52380952,86d634e6-64cb-48e1-8cf7-1c310d4c6f64,6,447.5055,449.4048,space,0,0.3005,,0,16,16,26,1,X,,,,,,,,,,,
,,,,,R_9WNk132xffK2PHM,001,2025-08-08_11h55.59.679,continuous_performance_test,2024.2.4,Win32,59.52380952,86d634e6-64cb-48e1-8cf7-1c310d4c6f64,6,449.4056,450.9551,space,0,0.3507,,0,17,17,25,1,X,,,,,,,,,,,
,,,,,R_9WNk132xffK2PHM,001,2025-08-08_11h55.59.679,continuous_performance_test,2024.2.4,Win32,59.52380952,86d634e6-64cb-48e1-8cf7-1c310d4c6f64,6,450.9559,452.9048,space,1,0.3986,,0,18,18,2,1,C,space,,,,,,,,,,
,,,,,R_9WNk132xffK2PHM,001,2025-08-08_11h55.59.679,continuous_performance_test,2024.2.4,Win32,59.52380952,86d634e6-64cb-48e1-8cf7-1c310d4c6f64,6,452.9056,454.6551,space,1,0.3053,,0,19,19,0,1,A,space,,,,,,,,,,
,,,,,R_9WNk132xffK2PHM,001,2025-08-08_11h55.59.679,continuous_performance_test,2024.2.4,Win32,59.52380952,86d634e6-64cb-48e1-8cf7-1c310d4c6f64,6,454.6558,456.4051,space,1,0.266,,0,20,20,11,1,L,space,,,,,,,,,,
,,,,,R_9WNk132xffK2PHM,001,2025-08-08_11h55.59.679,continuous_performance_test,2024.2.4,Win32,59.52380952,86d634e6-64cb-48e1-8cf7-1c310d4c6f64,6,456.4057,458.2552,space,0,0.2907,,0,21,21,28,1,X,,,,,,,,,,,
,,,,,R_9WNk132xffK2PHM,001,2025-08-08_11h55.59.679,continuous_performance_test,2024.2.4,Win32,59.52380952,86d634e6-64cb-48e1-8cf7-1c310d4c6f64,6,458.2558,459.8551,space,1,0.4515,,0,22,22,10,1,K,space,,,,,,,,,,
,,,,,R_9WNk132xffK2PHM,001,2025-08-08_11h55.59.679,continuous_performance_test,2024.2.4,Win32,59.52380952,86d634e6-64cb-48e1-8cf7-1c310d4c6f64,6,459.8559,461.5051,space,1,0.3341,,0,23,23,12,1,M,space,,,,,,,,,,
,,,,,R_9WNk132xffK2PHM,001,2025-08-08_11h55.59.679,continuous_performance_test,2024.2.4,Win32,59.52380952,86d634e6-64cb-48e1-8cf7-1c310d4c6f64,6,461.5064,463.105,space,1,0.3559,,0,24,24,17,1,R,space,,,,,,,,,,
,,,,,R_9WNk132xffK2PHM,001,2025-08-08_11h55.59.679,continuous_performance_test,2024.2.4,Win32,59.52380952,86d634e6-64cb-48e1-8cf7-1c310d4c6f64,6,463.1056,464.7052,space,1,0.3448,,0,25,25,21,1,V,space,,,,,,,,,,
,,,,,R_9WNk132xffK2PHM,001,2025-08-08_11h55.59.679,continuous_performance_test,2024.2.4,Win32,59.52380952,86d634e6-64cb-48e1-8cf7-1c310d4c6f64,6,464.7059,466.505,space,1,0.2854,,0,26,26,6,1,G,space,,,,,,,,,,
,,,,,R_9WNk132xffK2PHM,001,2025-08-08_11h55.59.679,continuous_performance_test,2024.2.4,Win32,59.52380952,86d634e6-64cb-48e1-8cf7-1c310d4c6f64,6,466.5056,468.2052,space,1,0.2847,,0,27,27,22,1,W,space,,,,,,,,,,
,,,,,R_9WNk132xffK2PHM,001,2025-08-08_11h55.59.679,continuous_performance_test,2024.2.4,Win32,59.52380952,86d634e6-64cb-48e1-8cf7-1c310d4c6f64,6,468.2061,469.9553,space,1,0.2936,,0,28,28,8,1,I,space,,,,,,,,,,
,,,,,R_9WNk132xffK2PHM,001,2025-08-08_11h55.59.679,continuous_performance_test,2024.2.4,Win32,59.52380952,86d634e6-64cb-48e1-8cf7-1c310d4c6f64,6,469.9561,471.5054,space,1,0.2939,,0,29,29,14,1,O,space,,,,,,,,,,
,,,,,R_9WNk132xffK2PHM,001,2025-08-08_11h55.59.679,continuous_performance_test,2024.2.4,Win32,59.52380952,86d634e6-64cb-48e1-8cf7-1c310d4c6f64,6,486.5091,488.0556,,1,,,0,0,0,26,1,X,,471.506,486.5055,,,,,,,,
,,,,,R_9WNk132xffK2PHM,001,2025-08-08_11h55.59.679,continuous_performance_test,2024.2.4,Win32,59.52380952,86d634e6-64cb-48e1-8cf7-1c310d4c6f64,6,488.0562,490.0556,space,1,0.3152,,0,1,1,24,1,Z,space,,,,,,,,,,
,,,,,R_9WNk132xffK2PHM,001,2025-08-08_11h55.59.679,continuous_performance_test,2024.2.4,Win32,59.52380952,86d634e6-64cb-48e1-8cf7-1c310d4c6f64,6,490.0564,492.0558,space,1,0.3147,,0,2,2,2,1,C,space,,,,,,,,,,
,,,,,R_9WNk132xffK2PHM,001,2025-08-08_11h55.59.679,continuous_performance_test,2024.2.4,Win32,59.52380952,86d634e6-64cb-48e1-8cf7-1c310d4c6f64,6,492.0566,493.7058,space,1,0.3317,,0,3,3,1,1,B,space,,,,,,,,,,
,,,,,R_9WNk132xffK2PHM,001,2025-08-08_11h55.59.679,continuous_performance_test,2024.2.4,Win32,59.52380952,86d634e6-64cb-48e1-8cf7-1c310d4c6f64,6,493.7064,495.4058,space,1,0.2941,,0,4,4,20,1,U,space,,,,,,,,,,
,,,,,R_9WNk132xffK2PHM,001,2025-08-08_11h55.59.679,continuous_performance_test,2024.2.4,Win32,59.52380952,86d634e6-64cb-48e1-8cf7-1c310d4c6f64,6,495.4067,497.2059,space,1,0.3011,,0,5,5,0,1,A,space,,,,,,,,,,
,,,,,R_9WNk132xffK2PHM,001,2025-08-08_11h55.59.679,continuous_performance_test,2024.2.4,Win32,59.52380952,86d634e6-64cb-48e1-8cf7-1c310d4c6f64,6,497.2067,498.7558,space,1,0.2722,,0,6,6,18,1,S,space,,,,,,,,,,
,,,,,R_9WNk132xffK2PHM,001,2025-08-08_11h55.59.679,continuous_performance_test,2024.2.4,Win32,59.52380952,86d634e6-64cb-48e1-8cf7-1c310d4c6f64,6,498.7567,500.6056,space,1,0.3044,,0,7,7,9,1,J,space,,,,,,,,,,
,,,,,R_9WNk132xffK2PHM,001,2025-08-08_11h55.59.679,continuous_performance_test,2024.2.4,Win32,59.52380952,86d634e6-64cb-48e1-8cf7-1c310d4c6f64,6,500.6065,502.6058,space,1,0.2934,,0,8,8,23,1,Y,space,,,,,,,,,,
,,,,,R_9WNk132xffK2PHM,001,2025-08-08_11h55.59.679,continuous_performance_test,2024.2.4,Win32,59.52380952,86d634e6-64cb-48e1-8cf7-1c310d4c6f64,6,502.6063,504.1562,space,1,0.2852,,0,9,9,3,1,D,space,,,,,,,,,,
,,,,,R_9WNk132xffK2PHM,001,2025-08-08_11h55.59.679,continuous_performance_test,2024.2.4,Win32,59.52380952,86d634e6-64cb-48e1-8cf7-1c310d4c6f64,6,504.1571,506.156,space,1,0.3218,,0,10,10,16,1,Q,space,,,,,,,,,,
,,,,,R_9WNk132xffK2PHM,001,2025-08-08_11h55.59.679,continuous_performance_test,2024.2.4,Win32,59.52380952,86d634e6-64cb-48e1-8cf7-1c310d4c6f64,6,506.1567,508.156,space,1,0.2674,,0,11,11,8,1,I,space,,,,,,,,,,
,,,,,R_9WNk132xffK2PHM,001,2025-08-08_11h55.59.679,continuous_performance_test,2024.2.4,Win32,59.52380952,86d634e6-64cb-48e1-8cf7-1c310d4c6f64,6,508.1566,510.0559,space,1,0.2661,,0,12,12,4,1,E,space,,,,,,,,,,
,,,,,R_9WNk132xffK2PHM,001,2025-08-08_11h55.59.679,continuous_performance_test,2024.2.4,Win32,59.52380952,86d634e6-64cb-48e1-8cf7-1c310d4c6f64,6,510.0565,511.9562,space,0,0.2775,,0,13,13,27,1,X,,,,,,,,,,,
,,,,,R_9WNk132xffK2PHM,001,2025-08-08_11h55.59.679,continuous_performance_test,2024.2.4,Win32,59.52380952,86d634e6-64cb-48e1-8cf7-1c310d4c6f64,6,511.957,513.5561,space,1,0.3824,,0,14,14,12,1,M,space,,,,,,,,,,
,,,,,R_9WNk132xffK2PHM,001,2025-08-08_11h55.59.679,continuous_performance_test,2024.2.4,Win32,59.52380952,86d634e6-64cb-48e1-8cf7-1c310d4c6f64,6,513.5567,515.1061,space,1,0.4004,,0,15,15,13,1,N,space,,,,,,,,,,
,,,,,R_9WNk132xffK2PHM,001,2025-08-08_11h55.59.679,continuous_performance_test,2024.2.4,Win32,59.52380952,86d634e6-64cb-48e1-8cf7-1c310d4c6f64,6,515.1068,516.9562,space,1,0.4145,,0,16,16,15,1,P,space,,,,,,,,,,
,,,,,R_9WNk132xffK2PHM,001,2025-08-08_11h55.59.679,continuous_performance_test,2024.2.4,Win32,59.52380952,86d634e6-64cb-48e1-8cf7-1c310d4c6f64,6,516.9571,518.856,space,1,0.2522,,0,17,17,11,1,L,space,,,,,,,,,,
,,,,,R_9WNk132xffK2PHM,001,2025-08-08_11h55.59.679,continuous_performance_test,2024.2.4,Win32,59.52380952,86d634e6-64cb-48e1-8cf7-1c310d4c6f64,6,518.8571,520.8062,space,1,0.3107,,0,18,18,19,1,T,space,,,,,,,,,,
,,,,,R_9WNk132xffK2PHM,001,2025-08-08_11h55.59.679,continuous_performance_test,2024.2.4,Win32,59.52380952,86d634e6-64cb-48e1-8cf7-1c310d4c6f64,6,520.8069,522.7565,space,1,0.3576,,0,19,19,6,1,G,space,,,,,,,,,,
,,,,,R_9WNk132xffK2PHM,001,2025-08-08_11h55.59.679,continuous_performance_test,2024.2.4,Win32,59.52380952,86d634e6-64cb-48e1-8cf7-1c310d4c6f64,6,522.7573,524.3062,space,1,0.3107,,0,20,20,14,1,O,space,,,,,,,,,,
,,,,,R_9WNk132xffK2PHM,001,2025-08-08_11h55.59.679,continuous_performance_test,2024.2.4,Win32,59.52380952,86d634e6-64cb-48e1-8cf7-1c310d4c6f64,6,524.3068,526.1063,space,0,0.4652,,0,21,21,29,1,X,,,,,,,,,,,
,,,,,R_9WNk132xffK2PHM,001,2025-08-08_11h55.59.679,continuous_performance_test,2024.2.4,Win32,59.52380952,86d634e6-64cb-48e1-8cf7-1c310d4c6f64,6,526.107,528.0064,space,1,0.4267,,0,22,22,21,1,V,space,,,,,,,,,,
,,,,,R_9WNk132xffK2PHM,001,2025-08-08_11h55.59.679,continuous_performance_test,2024.2.4,Win32,59.52380952,86d634e6-64cb-48e1-8cf7-1c310d4c6f64,6,528.0071,529.7576,space,1,0.3017,,0,23,23,22,1,W,space,,,,,,,,,,
,,,,,R_9WNk132xffK2PHM,001,2025-08-08_11h55.59.679,continuous_performance_test,2024.2.4,Win32,59.52380952,86d634e6-64cb-48e1-8cf7-1c310d4c6f64,6,529.7587,531.5565,space,1,0.2823,,0,24,24,10,1,K,space,,,,,,,,,,
,,,,,R_9WNk132xffK2PHM,001,2025-08-08_11h55.59.679,continuous_performance_test,2024.2.4,Win32,59.52380952,86d634e6-64cb-48e1-8cf7-1c310d4c6f64,6,531.5575,533.2564,space,1,0.302,,0,25,25,5,1,F,space,,,,,,,,,,
,,,,,R_9WNk132xffK2PHM,001,2025-08-08_11h55.59.679,continuous_performance_test,2024.2.4,Win32,59.52380952,86d634e6-64cb-48e1-8cf7-1c310d4c6f64,6,533.2571,535.0565,space,1,0.206,,0,26,26,7,1,H,space,,,,,,,,,,
,,,,,R_9WNk132xffK2PHM,001,2025-08-08_11h55.59.679,continuous_performance_test,2024.2.4,Win32,59.52380952,86d634e6-64cb-48e1-8cf7-1c310d4c6f64,6,535.0572,536.7564,space,0,0.2651,,0,27,27,25,1,X,,,,,,,,,,,
,,,,,R_9WNk132xffK2PHM,001,2025-08-08_11h55.59.679,continuous_performance_test,2024.2.4,Win32,59.52380952,86d634e6-64cb-48e1-8cf7-1c310d4c6f64,6,536.7573,538.4567,space,1,0.2874,,0,28,28,17,1,R,space,,,,,,,,,,
,,,,,R_9WNk132xffK2PHM,001,2025-08-08_11h55.59.679,continuous_performance_test,2024.2.4,Win32,59.52380952,86d634e6-64cb-48e1-8cf7-1c310d4c6f64,6,538.4574,540.4565,space,0,0.2902,,0,29,29,28,1,X,,,,,,,,,,,
,,,,,R_9WNk132xffK2PHM,001,2025-08-08_11h55.59.679,continuous_performance_test,2024.2.4,Win32,59.52380952,86d634e6-64cb-48e1-8cf7-1c310d4c6f64,6,555.4607,557.4571,space,1,0.3907,,0,0,0,9,1,J,space,540.4577,555.4569,,,,,,,,
,,,,,R_9WNk132xffK2PHM,001,2025-08-08_11h55.59.679,continuous_performance_test,2024.2.4,Win32,59.52380952,86d634e6-64cb-48e1-8cf7-1c310d4c6f64,6,557.4577,559.4567,space,1,0.3489,,0,1,1,19,1,T,space,,,,,,,,,,
,,,,,R_9WNk132xffK2PHM,001,2025-08-08_11h55.59.679,continuous_performance_test,2024.2.4,Win32,59.52380952,86d634e6-64cb-48e1-8cf7-1c310d4c6f64,6,559.4577,561.3568,space,0,0.3199,,0,2,2,25,1,X,,,,,,,,,,,
,,,,,R_9WNk132xffK2PHM,001,2025-08-08_11h55.59.679,continuous_performance_test,2024.2.4,Win32,59.52380952,86d634e6-64cb-48e1-8cf7-1c310d4c6f64,6,561.3577,562.9567,space,1,0.4439,,0,3,3,8,1,I,space,,,,,,,,,,
,,,,,R_9WNk132xffK2PHM,001,2025-08-08_11h55.59.679,continuous_performance_test,2024.2.4,Win32,59.52380952,86d634e6-64cb-48e1-8cf7-1c310d4c6f64,6,562.9577,564.807,space,1,0.3487,,0,4,4,24,1,Z,space,,,,,,,,,,
,,,,,R_9WNk132xffK2PHM,001,2025-08-08_11h55.59.679,continuous_performance_test,2024.2.4,Win32,59.52380952,86d634e6-64cb-48e1-8cf7-1c310d4c6f64,6,564.8076,566.3569,space,0,0.2595,,0,5,5,27,1,X,,,,,,,,,,,
,,,,,R_9WNk132xffK2PHM,001,2025-08-08_11h55.59.679,continuous_performance_test,2024.2.4,Win32,59.52380952,86d634e6-64cb-48e1-8cf7-1c310d4c6f64,6,566.3576,568.1569,space,1,0.3866,,0,6,6,4,1,E,space,,,,,,,,,,
,,,,,R_9WNk132xffK2PHM,001,2025-08-08_11h55.59.679,continuous_performance_test,2024.2.4,Win32,59.52380952,86d634e6-64cb-48e1-8cf7-1c310d4c6f64,6,568.1577,570.1569,space,1,0.2834,,0,7,7,10,1,K,space,,,,,,,,,,
,,,,,R_9WNk132xffK2PHM,001,2025-08-08_11h55.59.679,continuous_performance_test,2024.2.4,Win32,59.52380952,86d634e6-64cb-48e1-8cf7-1c310d4c6f64,6,570.1578,571.707,space,1,0.3204,,0,8,8,22,1,W,space,,,,,,,,,,
,,,,,R_9WNk132xffK2PHM,001,2025-08-08_11h55.59.679,continuous_performance_test,2024.2.4,Win32,59.52380952,86d634e6-64cb-48e1-8cf7-1c310d4c6f64,6,571.7081,573.5573,space,1,0.2669,,0,9,9,0,1,A,space,,,,,,,,,,
,,,,,R_9WNk132xffK2PHM,001,2025-08-08_11h55.59.679,continuous_performance_test,2024.2.4,Win32,59.52380952,86d634e6-64cb-48e1-8cf7-1c310d4c6f64,6,573.5581,575.2572,space,1,0.2871,,0,10,10,1,1,B,space,,,,,,,,,,
,,,,,R_9WNk132xffK2PHM,001,2025-08-08_11h55.59.679,continuous_performance_test,2024.2.4,Win32,59.52380952,86d634e6-64cb-48e1-8cf7-1c310d4c6f64,6,575.2579,577.0571,space,1,0.3654,,0,11,11,6,1,G,space,,,,,,,,,,
,,,,,R_9WNk132xffK2PHM,001,2025-08-08_11h55.59.679,continuous_performance_test,2024.2.4,Win32,59.52380952,86d634e6-64cb-48e1-8cf7-1c310d4c6f64,6,577.0578,578.8573,space,0,0.3563,,0,12,12,29,1,X,,,,,,,,,,,
,,,,,R_9WNk132xffK2PHM,001,2025-08-08_11h55.59.679,continuous_performance_test,2024.2.4,Win32,59.52380952,86d634e6-64cb-48e1-8cf7-1c310d4c6f64,6,578.858,580.6074,space,1,0.3911,,0,13,13,21,1,V,space,,,,,,,,,,
,,,,,R_9WNk132xffK2PHM,001,2025-08-08_11h55.59.679,continuous_performance_test,2024.2.4,Win32,59.52380952,86d634e6-64cb-48e1-8cf7-1c310d4c6f64,6,580.608,582.2573,space,1,0.2981,,0,14,14,13,1,N,space,,,,,,,,,,
,,,,,R_9WNk132xffK2PHM,001,2025-08-08_11h55.59.679,continuous_performance_test,2024.2.4,Win32,59.52380952,86d634e6-64cb-48e1-8cf7-1c310d4c6f64,6,582.2581,584.0572,space,1,0.3902,,0,15,15,18,1,S,space,,,,,,,,,,
,,,,,R_9WNk132xffK2PHM,001,2025-08-08_11h55.59.679,continuous_performance_test,2024.2.4,Win32,59.52380952,86d634e6-64cb-48e1-8cf7-1c310d4c6f64,6,584.0581,585.8075,space,1,0.2938,,0,16,16,15,1,P,space,,,,,,,,,,
,,,,,R_9WNk132xffK2PHM,001,2025-08-08_11h55.59.679,continuous_performance_test,2024.2.4,Win32,59.52380952,86d634e6-64cb-48e1-8cf7-1c310d4c6f64,6,585.8084,587.5074,space,1,0.2764,,0,17,17,5,1,F,space,,,,,,,,,,
,,,,,R_9WNk132xffK2PHM,001,2025-08-08_11h55.59.679,continuous_performance_test,2024.2.4,Win32,59.52380952,86d634e6-64cb-48e1-8cf7-1c310d4c6f64,6,587.508,589.3575,space,0,0.2728,,0,18,18,26,1,X,,,,,,,,,,,
,,,,,R_9WNk132xffK2PHM,001,2025-08-08_11h55.59.679,continuous_performance_test,2024.2.4,Win32,59.52380952,86d634e6-64cb-48e1-8cf7-1c310d4c6f64,6,589.3583,591.3573,space,1,0.2867,,0,19,19,16,1,Q,space,,,,,,,,,,
,,,,,R_9WNk132xffK2PHM,001,2025-08-08_11h55.59.679,continuous_performance_test,2024.2.4,Win32,59.52380952,86d634e6-64cb-48e1-8cf7-1c310d4c6f64,6,591.3578,593.2076,space,1,0.3031,,0,20,20,14,1,O,space,,,,,,,,,,
,,,,,R_9WNk132xffK2PHM,001,2025-08-08_11h55.59.679,continuous_performance_test,2024.2.4,Win32,59.52380952,86d634e6-64cb-48e1-8cf7-1c310d4c6f64,6,593.2083,594.8575,space,1,0.3337,,0,21,21,17,1,R,space,,,,,,,,,,
,,,,,R_9WNk132xffK2PHM,001,2025-08-08_11h55.59.679,continuous_performance_test,2024.2.4,Win32,59.52380952,86d634e6-64cb-48e1-8cf7-1c310d4c6f64,6,594.8581,596.8077,space,1,0.269,,0,22,22,11,1,L,space,,,,,,,,,,
,,,,,R_9WNk132xffK2PHM,001,2025-08-08_11h55.59.679,continuous_performance_test,2024.2.4,Win32,59.52380952,86d634e6-64cb-48e1-8cf7-1c310d4c6f64,6,596.8088,598.6578,space,0,0.2685,,0,23,23,28,1,X,,,,,,,,,,,
,,,,,R_9WNk132xffK2PHM,001,2025-08-08_11h55.59.679,continuous_performance_test,2024.2.4,Win32,59.52380952,86d634e6-64cb-48e1-8cf7-1c310d4c6f64,6,598.6585,600.2576,space,1,0.3651,,0,24,24,12,1,M,space,,,,,,,,,,
,,,,,R_9WNk132xffK2PHM,001,2025-08-08_11h55.59.679,continuous_performance_test,2024.2.4,Win32,59.52380952,86d634e6-64cb-48e1-8cf7-1c310d4c6f64,6,600.2588,602.2078,space,1,0.2489,,0,25,25,23,1,Y,space,,,,,,,,,,
,,,,,R_9WNk132xffK2PHM,001,2025-08-08_11h55.59.679,continuous_performance_test,2024.2.4,Win32,59.52380952,86d634e6-64cb-48e1-8cf7-1c310d4c6f64,6,602.2084,603.8079,space,1,0.2864,,0,26,26,20,1,U,space,,,,,,,,,,
,,,,,R_9WNk132xffK2PHM,001,2025-08-08_11h55.59.679,continuous_performance_test,2024.2.4,Win32,59.52380952,86d634e6-64cb-48e1-8cf7-1c310d4c6f64,6,603.8087,605.6581,space,1,0.2982,,0,27,27,3,1,D,space,,,,,,,,,,
,,,,,R_9WNk132xffK2PHM,001,2025-08-08_11h55.59.679,continuous_performance_test,2024.2.4,Win32,59.52380952,86d634e6-64cb-48e1-8cf7-1c310d4c6f64,6,605.6596,607.208,space,1,0.3564,,0,28,28,7,1,H,space,,,,,,,,,,
,,,,,R_9WNk132xffK2PHM,001,2025-08-08_11h55.59.679,continuous_performance_test,2024.2.4,Win32,59.52380952,86d634e6-64cb-48e1-8cf7-1c310d4c6f64,6,607.2085,608.7579,space,1,0.2821,,0,29,29,2,1,C,space,,,,,,,,,,
,,,,,R_9WNk132xffK2PHM,001,2025-08-08_11h55.59.679,continuous_performance_test,2024.2.4,Win32,59.52380952,86d634e6-64cb-48e1-8cf7-1c310d4c6f64,6,623.7624,625.6583,space,1,0.3582,,0,0,0,4,1,E,space,608.7585,623.7583,,,,,,,,
,,,,,R_9WNk132xffK2PHM,001,2025-08-08_11h55.59.679,continuous_performance_test,2024.2.4,Win32,59.52380952,86d634e6-64cb-48e1-8cf7-1c310d4c6f64,6,625.6591,627.5082,space,0,0.2848,,0,1,1,29,1,X,,,,,,,,,,,
,,,,,R_9WNk132xffK2PHM,001,2025-08-08_11h55.59.679,continuous_performance_test,2024.2.4,Win32,59.52380952,86d634e6-64cb-48e1-8cf7-1c310d4c6f64,6,627.5093,629.3084,space,1,0.3243,,0,2,2,13,1,N,space,,,,,,,,,,
,,,,,R_9WNk132xffK2PHM,001,2025-08-08_11h55.59.679,continuous_performance_test,2024.2.4,Win32,59.52380952,86d634e6-64cb-48e1-8cf7-1c310d4c6f64,6,629.3096,630.8583,space,1,0.3003,,0,3,3,18,1,S,space,,,,,,,,,,
,,,,,R_9WNk132xffK2PHM,001,2025-08-08_11h55.59.679,continuous_performance_test,2024.2.4,Win32,59.52380952,86d634e6-64cb-48e1-8cf7-1c310d4c6f64,6,630.859,632.4084,space,1,0.2942,,0,4,4,5,1,F,space,,,,,,,,,,
,,,,,R_9WNk132xffK2PHM,001,2025-08-08_11h55.59.679,continuous_performance_test,2024.2.4,Win32,59.52380952,86d634e6-64cb-48e1-8cf7-1c310d4c6f64,6,632.4093,634.3585,space,1,0.3241,,0,5,5,2,1,C,space,,,,,,,,,,
,,,,,R_9WNk132xffK2PHM,001,2025-08-08_11h55.59.679,continuous_performance_test,2024.2.4,Win32,59.52380952,86d634e6-64cb-48e1-8cf7-1c310d4c6f64,6,634.3593,635.9085,space,1,0.3423,,0,6,6,24,1,Z,space,,,,,,,,,,
,,,,,R_9WNk132xffK2PHM,001,2025-08-08_11h55.59.679,continuous_performance_test,2024.2.4,Win32,59.52380952,86d634e6-64cb-48e1-8cf7-1c310d4c6f64,6,635.9091,637.6086,space,1,0.3325,,0,7,7,21,1,V,space,,,,,,,,,,
,,,,,R_9WNk132xffK2PHM,001,2025-08-08_11h55.59.679,continuous_performance_test,2024.2.4,Win32,59.52380952,86d634e6-64cb-48e1-8cf7-1c310d4c6f64,6,637.6096,639.2586,space,1,0.2681,,0,8,8,15,1,P,space,,,,,,,,,,
,,,,,R_9WNk132xffK2PHM,001,2025-08-08_11h55.59.679,continuous_performance_test,2024.2.4,Win32,59.52380952,86d634e6-64cb-48e1-8cf7-1c310d4c6f64,6,639.2592,640.8584,space,0,0.2834,,0,9,9,28,1,X,,,,,,,,,,,
,,,,,R_9WNk132xffK2PHM,001,2025-08-08_11h55.59.679,continuous_performance_test,2024.2.4,Win32,59.52380952,86d634e6-64cb-48e1-8cf7-1c310d4c6f64,6,640.8596,642.5083,space,1,0.3717,,0,10,10,11,1,L,space,,,,,,,,,,
,,,,,R_9WNk132xffK2PHM,001,2025-08-08_11h55.59.679,continuous_performance_test,2024.2.4,Win32,59.52380952,86d634e6-64cb-48e1-8cf7-1c310d4c6f64,6,642.509,644.3586,space,1,0.2914,,0,11,11,6,1,G,space,,,,,,,,,,
,,,,,R_9WNk132xffK2PHM,001,2025-08-08_11h55.59.679,continuous_performance_test,2024.2.4,Win32,59.52380952,86d634e6-64cb-48e1-8cf7-1c310d4c6f64,6,644.3592,646.0085,space,1,0.3025,,0,12,12,10,1,K,space,,,,,,,,,,
,,,,,R_9WNk132xffK2PHM,001,2025-08-08_11h55.59.679,continuous_performance_test,2024.2.4,Win32,59.52380952,86d634e6-64cb-48e1-8cf7-1c310d4c6f64,6,646.0092,647.8086,space,1,0.3244,,0,13,13,19,1,T,space,,,,,,,,,,
,,,,,R_9WNk132xffK2PHM,001,2025-08-08_11h55.59.679,continuous_performance_test,2024.2.4,Win32,59.52380952,86d634e6-64cb-48e1-8cf7-1c310d4c6f64,6,647.8093,649.8088,space,1,0.3444,,0,14,14,1,1,B,space,,,,,,,,,,
,,,,,R_9WNk132xffK2PHM,001,2025-08-08_11h55.59.679,continuous_performance_test,2024.2.4,Win32,59.52380952,86d634e6-64cb-48e1-8cf7-1c310d4c6f64,6,649.8095,651.5587,space,1,0.315,,0,15,15,3,1,D,space,,,,,,,,,,
,,,,,R_9WNk132xffK2PHM,001,2025-08-08_11h55.59.679,continuous_performance_test,2024.2.4,Win32,59.52380952,86d634e6-64cb-48e1-8cf7-1c310d4c6f64,6,651.5593,653.2589,,1,,,0,16,16,25,1,X,,,,,,,,,,,
,,,,,R_9WNk132xffK2PHM,001,2025-08-08_11h55.59.679,continuous_performance_test,2024.2.4,Win32,59.52380952,86d634e6-64cb-48e1-8cf7-1c310d4c6f64,6,653.26,655.1586,space,1,0.3246,,0,17,17,22,1,W,space,,,,,,,,,,
,,,,,R_9WNk132xffK2PHM,001,2025-08-08_11h55.59.679,continuous_performance_test,2024.2.4,Win32,59.52380952,86d634e6-64cb-48e1-8cf7-1c310d4c6f64,6,655.1594,656.9089,space,1,0.3886,,0,18,18,7,1,H,space,,,,,,,,,,
,,,,,R_9WNk132xffK2PHM,001,2025-08-08_11h55.59.679,continuous_performance_test,2024.2.4,Win32,59.52380952,86d634e6-64cb-48e1-8cf7-1c310d4c6f64,6,656.9097,658.659,space,1,0.2603,,0,19,19,0,1,A,space,,,,,,,,,,
,,,,,R_9WNk132xffK2PHM,001,2025-08-08_11h55.59.679,continuous_performance_test,2024.2.4,Win32,59.52380952,86d634e6-64cb-48e1-8cf7-1c310d4c6f64,6,658.6602,660.4587,space,1,0.3437,,0,20,20,23,1,Y,space,,,,,,,,,,
,,,,,R_9WNk132xffK2PHM,001,2025-08-08_11h55.59.679,continuous_performance_test,2024.2.4,Win32,59.52380952,86d634e6-64cb-48e1-8cf7-1c310d4c6f64,6,660.4594,662.059,,1,,,0,21,21,27,1,X,,,,,,,,,,,
,,,,,R_9WNk132xffK2PHM,001,2025-08-08_11h55.59.679,continuous_performance_test,2024.2.4,Win32,59.52380952,86d634e6-64cb-48e1-8cf7-1c310d4c6f64,6,662.0598,663.9589,space,1,0.3038,,0,22,22,8,1,I,space,,,,,,,,,,
,,,,,R_9WNk132xffK2PHM,001,2025-08-08_11h55.59.679,continuous_performance_test,2024.2.4,Win32,59.52380952,86d634e6-64cb-48e1-8cf7-1c310d4c6f64,6,663.9598,665.5591,space,1,0.2992,,0,23,23,12,1,M,space,,,,,,,,,,
,,,,,R_9WNk132xffK2PHM,001,2025-08-08_11h55.59.679,continuous_performance_test,2024.2.4,Win32,59.52380952,86d634e6-64cb-48e1-8cf7-1c310d4c6f64,6,665.5597,667.5593,space,1,0.2648,,0,24,24,14,1,O,space,,,,,,,,,,
,,,,,R_9WNk132xffK2PHM,001,2025-08-08_11h55.59.679,continuous_performance_test,2024.2.4,Win32,59.52380952,86d634e6-64cb-48e1-8cf7-1c310d4c6f64,6,667.5601,669.1091,space,1,0.2874,,0,25,25,16,1,Q,space,,,,,,,,,,
,,,,,R_9WNk132xffK2PHM,001,2025-08-08_11h55.59.679,continuous_performance_test,2024.2.4,Win32,59.52380952,86d634e6-64cb-48e1-8cf7-1c310d4c6f64,6,669.11,670.959,space,1,0.2678,,0,26,26,9,1,J,space,,,,,,,,,,
,,,,,R_9WNk132xffK2PHM,001,2025-08-08_11h55.59.679,continuous_performance_test,2024.2.4,Win32,59.52380952,86d634e6-64cb-48e1-8cf7-1c310d4c6f64,6,670.9597,672.9593,space,1,0.3486,,0,27,27,17,1,R,space,,,,,,,,,,
,,,,,R_9WNk132xffK2PHM,001,2025-08-08_11h55.59.679,continuous_performance_test,2024.2.4,Win32,59.52380952,86d634e6-64cb-48e1-8cf7-1c310d4c6f64,6,672.9599,674.609,space,0,0.3254,,0,28,28,26,1,X,,,,,,,,,,,
,,,,,R_9WNk132xffK2PHM,001,2025-08-08_11h55.59.679,continuous_performance_test,2024.2.4,Win32,59.52380952,86d634e6-64cb-48e1-8cf7-1c310d4c6f64,6,674.6096,676.2591,space,1,0.2943,,0,29,29,20,1,U,space,,,,,,,,,,
,,,,,R_9WNk132xffK2PHM,001,2025-08-08_11h55.59.679,continuous_performance_test,2024.2.4,Win32,59.52380952,86d634e6-64cb-48e1-8cf7-1c310d4c6f64,6,,,,,,,,,,,,,,676.2598,676.2603,,,,676.2605,682.8929,space,6.617,
