Instructions.started,Instructions.stopped,key_resp.keys,key_resp.rt,key_resp.duration,participant,session,date,expName,psychopyVersion,OS,frameRate,realeye-tester-id,realeye-tester-quality_grade,Trial_noX.started,Trial_noX.stopped,response.keys,response.corr,response.rt,response.duration,trials_noX.thisRepN,trials_noX.thisTrialN,trials_noX.thisN,trials_noX.thisIndex,trials_noX.ran,letter,corrAns,BlockBreak.started,BlockBreak.stopped,key_instruct.keys,key_instruct.rt,key_instruct.duration,End_NoX.started,End_NoX.stopped,key_resp_end_noX.keys,key_resp_end_noX.rt,key_resp_end_noX.duration
0.0008,26.9287,space,26.8993,,R_9wEsfItQBeYZtML,001,2025-09-14_12h31.30.007,continuous_performance_test,2024.2.4,Win32,72.46376812,71a388a3-fda0-44b3-9591-700decbf1457,6,,,,,,,,,,,,,,,,,,,,,,,
,,,,,R_9wEsfItQBeYZtML,001,2025-09-14_12h31.30.007,continuous_performance_test,2024.2.4,Win32,72.46376812,71a388a3-fda0-44b3-9591-700decbf1457,6,26.9423,28.8891,space,1,0.5881,,0,0,0,14,1,O,space,,,,,,,,,,
,,,,,R_9wEsfItQBeYZtML,001,2025-09-14_12h31.30.007,continuous_performance_test,2024.2.4,Win32,72.46376812,71a388a3-fda0-44b3-9591-700decbf1457,6,28.8955,30.5454,space,1,0.4358,,0,1,1,17,1,R,space,,,,,,,,,,
,,,,,R_9wEsfItQBeYZtML,001,2025-09-14_12h31.30.007,continuous_performance_test,2024.2.4,Win32,72.46376812,71a388a3-fda0-44b3-9591-700decbf1457,6,30.5497,32.4902,space,1,0.432,,0,2,2,13,1,N,space,,,,,,,,,,
,,,,,R_9wEsfItQBeYZtML,001,2025-09-14_12h31.30.007,continuous_performance_test,2024.2.4,Win32,72.46376812,71a388a3-fda0-44b3-9591-700decbf1457,6,32.4941,34.1374,space,1,0.4087,,0,3,3,24,1,Z,space,,,,,,,,,,
,,,,,R_9wEsfItQBeYZtML,001,2025-09-14_12h31.30.007,continuous_performance_test,2024.2.4,Win32,72.46376812,71a388a3-fda0-44b3-9591-700decbf1457,6,34.1424,35.888,space,1,0.3732,,0,4,4,18,1,S,space,,,,,,,,,,
,,,,,R_9wEsfItQBeYZtML,001,2025-09-14_12h31.30.007,continuous_performance_test,2024.2.4,Win32,72.46376812,71a388a3-fda0-44b3-9591-700decbf1457,6,35.893,37.7399,space,0,0.3624,,0,5,5,25,1,X,,,,,,,,,,,
,,,,,R_9wEsfItQBeYZtML,001,2025-09-14_12h31.30.007,continuous_performance_test,2024.2.4,Win32,72.46376812,71a388a3-fda0-44b3-9591-700decbf1457,6,37.7463,39.3353,space,1,0.4017,,0,6,6,4,1,E,space,,,,,,,,,,
,,,,,R_9wEsfItQBeYZtML,001,2025-09-14_12h31.30.007,continuous_performance_test,2024.2.4,Win32,72.46376812,71a388a3-fda0-44b3-9591-700decbf1457,6,39.3415,40.9347,space,1,0.3961,,0,7,7,22,1,W,space,,,,,,,,,,
,,,,,R_9wEsfItQBeYZtML,001,2025-09-14_12h31.30.007,continuous_performance_test,2024.2.4,Win32,72.46376812,71a388a3-fda0-44b3-9591-700decbf1457,6,40.9404,42.8332,,1,,,0,8,8,29,1,X,,,,,,,,,,,
,,,,,R_9wEsfItQBeYZtML,001,2025-09-14_12h31.30.007,continuous_performance_test,2024.2.4,Win32,72.46376812,71a388a3-fda0-44b3-9591-700decbf1457,6,42.8373,44.4355,space,1,0.433,,0,9,9,16,1,Q,space,,,,,,,,,,
,,,,,R_9wEsfItQBeYZtML,001,2025-09-14_12h31.30.007,continuous_performance_test,2024.2.4,Win32,72.46376812,71a388a3-fda0-44b3-9591-700decbf1457,6,44.4376,46.2772,space,1,0.4716,,0,10,10,9,1,J,space,,,,,,,,,,
,,,,,R_9wEsfItQBeYZtML,001,2025-09-14_12h31.30.007,continuous_performance_test,2024.2.4,Win32,72.46376812,71a388a3-fda0-44b3-9591-700decbf1457,6,46.2819,48.2215,space,1,0.4482,,0,11,11,20,1,U,space,,,,,,,,,,
,,,,,R_9wEsfItQBeYZtML,001,2025-09-14_12h31.30.007,continuous_performance_test,2024.2.4,Win32,72.46376812,71a388a3-fda0-44b3-9591-700decbf1457,6,48.2252,50.2229,space,1,0.4041,,0,12,12,21,1,V,space,,,,,,,,,,
,,,,,R_9wEsfItQBeYZtML,001,2025-09-14_12h31.30.007,continuous_performance_test,2024.2.4,Win32,72.46376812,71a388a3-fda0-44b3-9591-700decbf1457,6,50.2272,51.9223,space,1,0.3745,,0,13,13,23,1,Y,space,,,,,,,,,,
,,,,,R_9wEsfItQBeYZtML,001,2025-09-14_12h31.30.007,continuous_performance_test,2024.2.4,Win32,72.46376812,71a388a3-fda0-44b3-9591-700decbf1457,6,51.9269,53.6264,space,1,0.4451,,0,14,14,5,1,F,space,,,,,,,,,,
,,,,,R_9wEsfItQBeYZtML,001,2025-09-14_12h31.30.007,continuous_performance_test,2024.2.4,Win32,72.46376812,71a388a3-fda0-44b3-9591-700decbf1457,6,53.63,55.2731,space,1,0.4119,,0,15,15,7,1,H,space,,,,,,,,,,
,,,,,R_9wEsfItQBeYZtML,001,2025-09-14_12h31.30.007,continuous_performance_test,2024.2.4,Win32,72.46376812,71a388a3-fda0-44b3-9591-700decbf1457,6,55.2767,57.0758,space,1,0.3894,,0,16,16,3,1,D,space,,,,,,,,,,
,,,,,R_9wEsfItQBeYZtML,001,2025-09-14_12h31.30.007,continuous_performance_test,2024.2.4,Win32,72.46376812,71a388a3-fda0-44b3-9591-700decbf1457,6,57.0799,58.6724,space,1,0.4155,,0,17,17,19,1,T,space,,,,,,,,,,
,,,,,R_9wEsfItQBeYZtML,001,2025-09-14_12h31.30.007,continuous_performance_test,2024.2.4,Win32,72.46376812,71a388a3-fda0-44b3-9591-700decbf1457,6,58.6761,60.2178,space,1,0.4141,,0,18,18,8,1,I,space,,,,,,,,,,
,,,,,R_9wEsfItQBeYZtML,001,2025-09-14_12h31.30.007,continuous_performance_test,2024.2.4,Win32,72.46376812,71a388a3-fda0-44b3-9591-700decbf1457,6,60.2221,62.1718,space,1,0.3928,,0,19,19,2,1,C,space,,,,,,,,,,
,,,,,R_9wEsfItQBeYZtML,001,2025-09-14_12h31.30.007,continuous_performance_test,2024.2.4,Win32,72.46376812,71a388a3-fda0-44b3-9591-700decbf1457,6,62.1753,64.0692,,1,,,0,20,20,28,1,X,,,,,,,,,,,
,,,,,R_9wEsfItQBeYZtML,001,2025-09-14_12h31.30.007,continuous_performance_test,2024.2.4,Win32,72.46376812,71a388a3-fda0-44b3-9591-700decbf1457,6,64.0731,65.7261,space,1,0.3459,,0,21,21,10,1,K,space,,,,,,,,,,
,,,,,R_9wEsfItQBeYZtML,001,2025-09-14_12h31.30.007,continuous_performance_test,2024.2.4,Win32,72.46376812,71a388a3-fda0-44b3-9591-700decbf1457,6,65.7287,67.6234,space,1,0.3641,,0,22,22,11,1,L,space,,,,,,,,,,
,,,,,R_9wEsfItQBeYZtML,001,2025-09-14_12h31.30.007,continuous_performance_test,2024.2.4,Win32,72.46376812,71a388a3-fda0-44b3-9591-700decbf1457,6,67.6267,69.3719,,1,,,0,23,23,27,1,X,,,,,,,,,,,
,,,,,R_9wEsfItQBeYZtML,001,2025-09-14_12h31.30.007,continuous_performance_test,2024.2.4,Win32,72.46376812,71a388a3-fda0-44b3-9591-700decbf1457,6,69.3749,70.9292,space,1,0.4044,,0,24,24,1,1,B,space,,,,,,,,,,
,,,,,R_9wEsfItQBeYZtML,001,2025-09-14_12h31.30.007,continuous_performance_test,2024.2.4,Win32,72.46376812,71a388a3-fda0-44b3-9591-700decbf1457,6,70.9333,72.6728,,1,,,0,25,25,26,1,X,,,,,,,,,,,
,,,,,R_9wEsfItQBeYZtML,001,2025-09-14_12h31.30.007,continuous_performance_test,2024.2.4,Win32,72.46376812,71a388a3-fda0-44b3-9591-700decbf1457,6,72.6768,74.4155,space,1,0.3959,,0,26,26,12,1,M,space,,,,,,,,,,
,,,,,R_9wEsfItQBeYZtML,001,2025-09-14_12h31.30.007,continuous_performance_test,2024.2.4,Win32,72.46376812,71a388a3-fda0-44b3-9591-700decbf1457,6,74.419,76.1709,space,1,0.4138,,0,27,27,6,1,G,space,,,,,,,,,,
,,,,,R_9wEsfItQBeYZtML,001,2025-09-14_12h31.30.007,continuous_performance_test,2024.2.4,Win32,72.46376812,71a388a3-fda0-44b3-9591-700decbf1457,6,76.1756,78.0686,space,1,0.5184,,0,28,28,15,1,P,space,,,,,,,,,,
,,,,,R_9wEsfItQBeYZtML,001,2025-09-14_12h31.30.007,continuous_performance_test,2024.2.4,Win32,72.46376812,71a388a3-fda0-44b3-9591-700decbf1457,6,78.072,79.6601,space,1,0.7297,,0,29,29,0,1,A,space,,,,,,,,,,
,,,,,R_9wEsfItQBeYZtML,001,2025-09-14_12h31.30.007,continuous_performance_test,2024.2.4,Win32,72.46376812,71a388a3-fda0-44b3-9591-700decbf1457,6,94.6668,96.2164,,0,,,0,0,0,16,1,Q,space,79.6643,94.6578,,,,,,,,
,,,,,R_9wEsfItQBeYZtML,001,2025-09-14_12h31.30.007,continuous_performance_test,2024.2.4,Win32,72.46376812,71a388a3-fda0-44b3-9591-700decbf1457,6,96.2191,98.1643,,0,,,0,1,1,21,1,V,space,,,,,,,,,,
,,,,,R_9wEsfItQBeYZtML,001,2025-09-14_12h31.30.007,continuous_performance_test,2024.2.4,Win32,72.46376812,71a388a3-fda0-44b3-9591-700decbf1457,6,98.1673,99.9139,,0,,,0,2,2,13,1,N,space,,,,,,,,,,
,,,,,R_9wEsfItQBeYZtML,001,2025-09-14_12h31.30.007,continuous_performance_test,2024.2.4,Win32,72.46376812,71a388a3-fda0-44b3-9591-700decbf1457,6,99.9177,101.7095,,0,,,0,3,3,5,1,F,space,,,,,,,,,,
,,,,,R_9wEsfItQBeYZtML,001,2025-09-14_12h31.30.007,continuous_performance_test,2024.2.4,Win32,72.46376812,71a388a3-fda0-44b3-9591-700decbf1457,6,101.7128,103.3062,space,1,0.3979,,0,4,4,8,1,I,space,,,,,,,,,,
,,,,,R_9wEsfItQBeYZtML,001,2025-09-14_12h31.30.007,continuous_performance_test,2024.2.4,Win32,72.46376812,71a388a3-fda0-44b3-9591-700decbf1457,6,103.3095,105.1094,space,1,0.8247,,0,5,5,22,1,W,space,,,,,,,,,,
,,,,,R_9wEsfItQBeYZtML,001,2025-09-14_12h31.30.007,continuous_performance_test,2024.2.4,Win32,72.46376812,71a388a3-fda0-44b3-9591-700decbf1457,6,105.1131,106.6551,space,0,0.3787,,0,6,6,27,1,X,,,,,,,,,,,
,,,,,R_9wEsfItQBeYZtML,001,2025-09-14_12h31.30.007,continuous_performance_test,2024.2.4,Win32,72.46376812,71a388a3-fda0-44b3-9591-700decbf1457,6,106.6575,108.2108,space,1,0.4829,,0,7,7,24,1,Z,space,,,,,,,,,,
,,,,,R_9wEsfItQBeYZtML,001,2025-09-14_12h31.30.007,continuous_performance_test,2024.2.4,Win32,72.46376812,71a388a3-fda0-44b3-9591-700decbf1457,6,108.2138,110.209,space,1,0.3694,,0,8,8,20,1,U,space,,,,,,,,,,
,,,,,R_9wEsfItQBeYZtML,001,2025-09-14_12h31.30.007,continuous_performance_test,2024.2.4,Win32,72.46376812,71a388a3-fda0-44b3-9591-700decbf1457,6,110.2132,111.7605,,1,,,0,9,9,25,1,X,,,,,,,,,,,
,,,,,R_9wEsfItQBeYZtML,001,2025-09-14_12h31.30.007,continuous_performance_test,2024.2.4,Win32,72.46376812,71a388a3-fda0-44b3-9591-700decbf1457,6,111.765,113.4595,,1,,,0,10,10,29,1,X,,,,,,,,,,,
,,,,,R_9wEsfItQBeYZtML,001,2025-09-14_12h31.30.007,continuous_performance_test,2024.2.4,Win32,72.46376812,71a388a3-fda0-44b3-9591-700decbf1457,6,113.4628,115.1599,space,1,0.3474,,0,11,11,1,1,B,space,,,,,,,,,,
,,,,,R_9wEsfItQBeYZtML,001,2025-09-14_12h31.30.007,continuous_performance_test,2024.2.4,Win32,72.46376812,71a388a3-fda0-44b3-9591-700decbf1457,6,115.163,117.0031,,1,,,0,12,12,28,1,X,,,,,,,,,,,
,,,,,R_9wEsfItQBeYZtML,001,2025-09-14_12h31.30.007,continuous_performance_test,2024.2.4,Win32,72.46376812,71a388a3-fda0-44b3-9591-700decbf1457,6,117.007,118.8518,space,1,0.3635,,0,13,13,9,1,J,space,,,,,,,,,,
,,,,,R_9wEsfItQBeYZtML,001,2025-09-14_12h31.30.007,continuous_performance_test,2024.2.4,Win32,72.46376812,71a388a3-fda0-44b3-9591-700decbf1457,6,118.8552,120.6049,space,1,0.4176,,0,14,14,12,1,M,space,,,,,,,,,,
,,,,,R_9wEsfItQBeYZtML,001,2025-09-14_12h31.30.007,continuous_performance_test,2024.2.4,Win32,72.46376812,71a388a3-fda0-44b3-9591-700decbf1457,6,120.6083,122.2543,space,1,0.4751,,0,15,15,14,1,O,space,,,,,,,,,,
,,,,,R_9wEsfItQBeYZtML,001,2025-09-14_12h31.30.007,continuous_performance_test,2024.2.4,Win32,72.46376812,71a388a3-fda0-44b3-9591-700decbf1457,6,122.2576,124.1532,space,1,0.4143,,0,16,16,3,1,D,space,,,,,,,,,,
,,,,,R_9wEsfItQBeYZtML,001,2025-09-14_12h31.30.007,continuous_performance_test,2024.2.4,Win32,72.46376812,71a388a3-fda0-44b3-9591-700decbf1457,6,124.1564,125.851,space,1,0.4628,,0,17,17,10,1,K,space,,,,,,,,,,
,,,,,R_9wEsfItQBeYZtML,001,2025-09-14_12h31.30.007,continuous_performance_test,2024.2.4,Win32,72.46376812,71a388a3-fda0-44b3-9591-700decbf1457,6,125.8548,127.4014,space,1,0.4436,,0,18,18,0,1,A,space,,,,,,,,,,
,,,,,R_9wEsfItQBeYZtML,001,2025-09-14_12h31.30.007,continuous_performance_test,2024.2.4,Win32,72.46376812,71a388a3-fda0-44b3-9591-700decbf1457,6,127.4048,129.1007,space,1,0.3476,,0,19,19,11,1,L,space,,,,,,,,,,
,,,,,R_9wEsfItQBeYZtML,001,2025-09-14_12h31.30.007,continuous_performance_test,2024.2.4,Win32,72.46376812,71a388a3-fda0-44b3-9591-700decbf1457,6,129.1035,130.8524,space,1,0.418,,0,20,20,7,1,H,space,,,,,,,,,,
,,,,,R_9wEsfItQBeYZtML,001,2025-09-14_12h31.30.007,continuous_performance_test,2024.2.4,Win32,72.46376812,71a388a3-fda0-44b3-9591-700decbf1457,6,130.8559,132.7502,space,1,0.4167,,0,21,21,4,1,E,space,,,,,,,,,,
,,,,,R_9wEsfItQBeYZtML,001,2025-09-14_12h31.30.007,continuous_performance_test,2024.2.4,Win32,72.46376812,71a388a3-fda0-44b3-9591-700decbf1457,6,132.7535,134.3515,space,1,0.4262,,0,22,22,6,1,G,space,,,,,,,,,,
,,,,,R_9wEsfItQBeYZtML,001,2025-09-14_12h31.30.007,continuous_performance_test,2024.2.4,Win32,72.46376812,71a388a3-fda0-44b3-9591-700decbf1457,6,134.3546,136.2004,space,1,0.3611,,0,23,23,17,1,R,space,,,,,,,,,,
,,,,,R_9wEsfItQBeYZtML,001,2025-09-14_12h31.30.007,continuous_performance_test,2024.2.4,Win32,72.46376812,71a388a3-fda0-44b3-9591-700decbf1457,6,136.204,137.8999,space,1,0.4487,,0,24,24,23,1,Y,space,,,,,,,,,,
,,,,,R_9wEsfItQBeYZtML,001,2025-09-14_12h31.30.007,continuous_performance_test,2024.2.4,Win32,72.46376812,71a388a3-fda0-44b3-9591-700decbf1457,6,137.9026,139.7997,space,1,0.4398,,0,25,25,18,1,S,space,,,,,,,,,,
,,,,,R_9wEsfItQBeYZtML,001,2025-09-14_12h31.30.007,continuous_performance_test,2024.2.4,Win32,72.46376812,71a388a3-fda0-44b3-9591-700decbf1457,6,139.8027,141.4554,space,1,0.8007,,0,26,26,19,1,T,space,,,,,,,,,,
,,,,,R_9wEsfItQBeYZtML,001,2025-09-14_12h31.30.007,continuous_performance_test,2024.2.4,Win32,72.46376812,71a388a3-fda0-44b3-9591-700decbf1457,6,141.4569,143.3024,space,1,0.8377,,0,27,27,2,1,C,space,,,,,,,,,,
,,,,,R_9wEsfItQBeYZtML,001,2025-09-14_12h31.30.007,continuous_performance_test,2024.2.4,Win32,72.46376812,71a388a3-fda0-44b3-9591-700decbf1457,6,143.3055,144.9017,,1,,,0,28,28,26,1,X,,,,,,,,,,,
,,,,,R_9wEsfItQBeYZtML,001,2025-09-14_12h31.30.007,continuous_performance_test,2024.2.4,Win32,72.46376812,71a388a3-fda0-44b3-9591-700decbf1457,6,144.9056,146.4556,space,1,0.5622,,0,29,29,15,1,P,space,,,,,,,,,,
,,,,,R_9wEsfItQBeYZtML,001,2025-09-14_12h31.30.007,continuous_performance_test,2024.2.4,Win32,72.46376812,71a388a3-fda0-44b3-9591-700decbf1457,6,150.189,151.7891,space,1,0.4935,,0,0,0,23,1,Y,space,146.4588,150.1785,space,3.7076,,,,,,
,,,,,R_9wEsfItQBeYZtML,001,2025-09-14_12h31.30.007,continuous_performance_test,2024.2.4,Win32,72.46376812,71a388a3-fda0-44b3-9591-700decbf1457,6,151.7899,153.6424,space,1,0.3407,,0,1,1,14,1,O,space,,,,,,,,,,
,,,,,R_9wEsfItQBeYZtML,001,2025-09-14_12h31.30.007,continuous_performance_test,2024.2.4,Win32,72.46376812,71a388a3-fda0-44b3-9591-700decbf1457,6,153.6433,155.5922,space,1,0.3353,,0,2,2,20,1,U,space,,,,,,,,,,
,,,,,R_9wEsfItQBeYZtML,001,2025-09-14_12h31.30.007,continuous_performance_test,2024.2.4,Win32,72.46376812,71a388a3-fda0-44b3-9591-700decbf1457,6,155.5954,157.2896,space,1,0.3555,,0,3,3,12,1,M,space,,,,,,,,,,
,,,,,R_9wEsfItQBeYZtML,001,2025-09-14_12h31.30.007,continuous_performance_test,2024.2.4,Win32,72.46376812,71a388a3-fda0-44b3-9591-700decbf1457,6,157.2917,158.9457,space,1,0.345,,0,4,4,4,1,E,space,,,,,,,,,,
,,,,,R_9wEsfItQBeYZtML,001,2025-09-14_12h31.30.007,continuous_performance_test,2024.2.4,Win32,72.46376812,71a388a3-fda0-44b3-9591-700decbf1457,6,158.9475,160.7009,space,1,0.3115,,0,5,5,10,1,K,space,,,,,,,,,,
,,,,,R_9wEsfItQBeYZtML,001,2025-09-14_12h31.30.007,continuous_performance_test,2024.2.4,Win32,72.46376812,71a388a3-fda0-44b3-9591-700decbf1457,6,160.7017,162.5997,space,1,0.3091,,0,6,6,0,1,A,space,,,,,,,,,,
,,,,,R_9wEsfItQBeYZtML,001,2025-09-14_12h31.30.007,continuous_performance_test,2024.2.4,Win32,72.46376812,71a388a3-fda0-44b3-9591-700decbf1457,6,162.6037,164.1526,space,1,0.4008,,0,7,7,16,1,Q,space,,,,,,,,,,
,,,,,R_9wEsfItQBeYZtML,001,2025-09-14_12h31.30.007,continuous_performance_test,2024.2.4,Win32,72.46376812,71a388a3-fda0-44b3-9591-700decbf1457,6,164.1554,165.7526,space,1,0.3611,,0,8,8,7,1,H,space,,,,,,,,,,
,,,,,R_9wEsfItQBeYZtML,001,2025-09-14_12h31.30.007,continuous_performance_test,2024.2.4,Win32,72.46376812,71a388a3-fda0-44b3-9591-700decbf1457,6,165.7551,167.3493,space,0,0.2857,,0,9,9,25,1,X,,,,,,,,,,,
,,,,,R_9wEsfItQBeYZtML,001,2025-09-14_12h31.30.007,continuous_performance_test,2024.2.4,Win32,72.46376812,71a388a3-fda0-44b3-9591-700decbf1457,6,167.353,168.9437,space,1,0.4601,,0,10,10,3,1,D,space,,,,,,,,,,
,,,,,R_9wEsfItQBeYZtML,001,2025-09-14_12h31.30.007,continuous_performance_test,2024.2.4,Win32,72.46376812,71a388a3-fda0-44b3-9591-700decbf1457,6,168.9464,170.8935,space,1,0.362,,0,11,11,2,1,C,space,,,,,,,,,,
,,,,,R_9wEsfItQBeYZtML,001,2025-09-14_12h31.30.007,continuous_performance_test,2024.2.4,Win32,72.46376812,71a388a3-fda0-44b3-9591-700decbf1457,6,170.8973,172.8361,space,1,0.3394,,0,12,12,21,1,V,space,,,,,,,,,,
,,,,,R_9wEsfItQBeYZtML,001,2025-09-14_12h31.30.007,continuous_performance_test,2024.2.4,Win32,72.46376812,71a388a3-fda0-44b3-9591-700decbf1457,6,172.8395,174.3898,space,0,0.3519,,0,13,13,29,1,X,,,,,,,,,,,
,,,,,R_9wEsfItQBeYZtML,001,2025-09-14_12h31.30.007,continuous_performance_test,2024.2.4,Win32,72.46376812,71a388a3-fda0-44b3-9591-700decbf1457,6,174.3927,176.3894,space,1,0.5314,,0,14,14,22,1,W,space,,,,,,,,,,
,,,,,R_9wEsfItQBeYZtML,001,2025-09-14_12h31.30.007,continuous_performance_test,2024.2.4,Win32,72.46376812,71a388a3-fda0-44b3-9591-700decbf1457,6,176.3917,178.2881,space,1,0.4114,,0,15,15,15,1,P,space,,,,,,,,,,
,,,,,R_9wEsfItQBeYZtML,001,2025-09-14_12h31.30.007,continuous_performance_test,2024.2.4,Win32,72.46376812,71a388a3-fda0-44b3-9591-700decbf1457,6,178.2915,179.9873,,1,,,0,16,16,26,1,X,,,,,,,,,,,
,,,,,R_9wEsfItQBeYZtML,001,2025-09-14_12h31.30.007,continuous_performance_test,2024.2.4,Win32,72.46376812,71a388a3-fda0-44b3-9591-700decbf1457,6,179.991,181.6824,space,1,0.3487,,0,17,17,8,1,I,space,,,,,,,,,,
,,,,,R_9wEsfItQBeYZtML,001,2025-09-14_12h31.30.007,continuous_performance_test,2024.2.4,Win32,72.46376812,71a388a3-fda0-44b3-9591-700decbf1457,6,181.6867,183.229,space,1,0.3832,,0,18,18,13,1,N,space,,,,,,,,,,
,,,,,R_9wEsfItQBeYZtML,001,2025-09-14_12h31.30.007,continuous_performance_test,2024.2.4,Win32,72.46376812,71a388a3-fda0-44b3-9591-700decbf1457,6,183.2326,185.1278,space,1,0.5112,,0,19,19,9,1,J,space,,,,,,,,,,
,,,,,R_9wEsfItQBeYZtML,001,2025-09-14_12h31.30.007,continuous_performance_test,2024.2.4,Win32,72.46376812,71a388a3-fda0-44b3-9591-700decbf1457,6,185.1314,186.8212,space,1,0.8631,,0,20,20,19,1,T,space,,,,,,,,,,
,,,,,R_9wEsfItQBeYZtML,001,2025-09-14_12h31.30.007,continuous_performance_test,2024.2.4,Win32,72.46376812,71a388a3-fda0-44b3-9591-700decbf1457,6,186.8248,188.523,space,1,0.537,,0,21,21,24,1,Z,space,,,,,,,,,,
,,,,,R_9wEsfItQBeYZtML,001,2025-09-14_12h31.30.007,continuous_performance_test,2024.2.4,Win32,72.46376812,71a388a3-fda0-44b3-9591-700decbf1457,6,188.5272,190.1761,space,1,0.5307,,0,22,22,5,1,F,space,,,,,,,,,,
,,,,,R_9wEsfItQBeYZtML,001,2025-09-14_12h31.30.007,continuous_performance_test,2024.2.4,Win32,72.46376812,71a388a3-fda0-44b3-9591-700decbf1457,6,190.1802,191.8252,space,1,0.3936,,0,23,23,18,1,S,space,,,,,,,,,,
,,,,,R_9wEsfItQBeYZtML,001,2025-09-14_12h31.30.007,continuous_performance_test,2024.2.4,Win32,72.46376812,71a388a3-fda0-44b3-9591-700decbf1457,6,191.8277,193.4747,space,0,0.8834,,0,24,24,27,1,X,,,,,,,,,,,
,,,,,R_9wEsfItQBeYZtML,001,2025-09-14_12h31.30.007,continuous_performance_test,2024.2.4,Win32,72.46376812,71a388a3-fda0-44b3-9591-700decbf1457,6,193.4774,195.4272,,1,,,0,25,25,28,1,X,,,,,,,,,,,
,,,,,R_9wEsfItQBeYZtML,001,2025-09-14_12h31.30.007,continuous_performance_test,2024.2.4,Win32,72.46376812,71a388a3-fda0-44b3-9591-700decbf1457,6,195.4308,197.3302,space,1,0.4212,,0,26,26,1,1,B,space,,,,,,,,,,
,,,,,R_9wEsfItQBeYZtML,001,2025-09-14_12h31.30.007,continuous_performance_test,2024.2.4,Win32,72.46376812,71a388a3-fda0-44b3-9591-700decbf1457,6,197.3339,199.1787,space,1,0.3744,,0,27,27,6,1,G,space,,,,,,,,,,
,,,,,R_9wEsfItQBeYZtML,001,2025-09-14_12h31.30.007,continuous_performance_test,2024.2.4,Win32,72.46376812,71a388a3-fda0-44b3-9591-700decbf1457,6,199.1822,201.1743,space,1,0.3745,,0,28,28,11,1,L,space,,,,,,,,,,
,,,,,R_9wEsfItQBeYZtML,001,2025-09-14_12h31.30.007,continuous_performance_test,2024.2.4,Win32,72.46376812,71a388a3-fda0-44b3-9591-700decbf1457,6,201.1774,203.026,space,1,0.6154,,0,29,29,17,1,R,space,,,,,,,,,,
,,,,,R_9wEsfItQBeYZtML,001,2025-09-14_12h31.30.007,continuous_performance_test,2024.2.4,Win32,72.46376812,71a388a3-fda0-44b3-9591-700decbf1457,6,214.7753,216.417,space,1,0.5983,,0,0,0,18,1,S,space,203.0285,214.7693,space,11.7258,,,,,,
,,,,,R_9wEsfItQBeYZtML,001,2025-09-14_12h31.30.007,continuous_performance_test,2024.2.4,Win32,72.46376812,71a388a3-fda0-44b3-9591-700decbf1457,6,216.4199,217.968,space,1,0.3683,,0,1,1,5,1,F,space,,,,,,,,,,
,,,,,R_9wEsfItQBeYZtML,001,2025-09-14_12h31.30.007,continuous_performance_test,2024.2.4,Win32,72.46376812,71a388a3-fda0-44b3-9591-700decbf1457,6,217.9711,219.9591,space,1,0.4532,,0,2,2,24,1,Z,space,,,,,,,,,,
,,,,,R_9wEsfItQBeYZtML,001,2025-09-14_12h31.30.007,continuous_performance_test,2024.2.4,Win32,72.46376812,71a388a3-fda0-44b3-9591-700decbf1457,6,219.9616,221.8012,space,1,0.3448,,0,3,3,0,1,A,space,,,,,,,,,,
,,,,,R_9wEsfItQBeYZtML,001,2025-09-14_12h31.30.007,continuous_performance_test,2024.2.4,Win32,72.46376812,71a388a3-fda0-44b3-9591-700decbf1457,6,221.8047,223.7486,space,1,0.4273,,0,4,4,9,1,J,space,,,,,,,,,,
,,,,,R_9wEsfItQBeYZtML,001,2025-09-14_12h31.30.007,continuous_performance_test,2024.2.4,Win32,72.46376812,71a388a3-fda0-44b3-9591-700decbf1457,6,223.7524,225.7529,space,1,0.3626,,0,5,5,7,1,H,space,,,,,,,,,,
,,,,,R_9wEsfItQBeYZtML,001,2025-09-14_12h31.30.007,continuous_performance_test,2024.2.4,Win32,72.46376812,71a388a3-fda0-44b3-9591-700decbf1457,6,225.7536,227.4994,space,1,0.287,,0,6,6,17,1,R,space,,,,,,,,,,
,,,,,R_9wEsfItQBeYZtML,001,2025-09-14_12h31.30.007,continuous_performance_test,2024.2.4,Win32,72.46376812,71a388a3-fda0-44b3-9591-700decbf1457,6,227.5028,229.4942,space,0,0.3647,,0,7,7,26,1,X,,,,,,,,,,,
,,,,,R_9wEsfItQBeYZtML,001,2025-09-14_12h31.30.007,continuous_performance_test,2024.2.4,Win32,72.46376812,71a388a3-fda0-44b3-9591-700decbf1457,6,229.4979,231.191,space,1,0.693,,0,8,8,3,1,D,space,,,,,,,,,,
,,,,,R_9wEsfItQBeYZtML,001,2025-09-14_12h31.30.007,continuous_performance_test,2024.2.4,Win32,72.46376812,71a388a3-fda0-44b3-9591-700decbf1457,6,231.1947,232.8401,space,1,0.5589,,0,9,9,13,1,N,space,,,,,,,,,,
,,,,,R_9wEsfItQBeYZtML,001,2025-09-14_12h31.30.007,continuous_performance_test,2024.2.4,Win32,72.46376812,71a388a3-fda0-44b3-9591-700decbf1457,6,232.8428,234.8382,space,1,0.3958,,0,10,10,19,1,T,space,,,,,,,,,,
,,,,,R_9wEsfItQBeYZtML,001,2025-09-14_12h31.30.007,continuous_performance_test,2024.2.4,Win32,72.46376812,71a388a3-fda0-44b3-9591-700decbf1457,6,234.8399,236.5335,space,1,0.3767,,0,11,11,20,1,U,space,,,,,,,,,,
,,,,,R_9wEsfItQBeYZtML,001,2025-09-14_12h31.30.007,continuous_performance_test,2024.2.4,Win32,72.46376812,71a388a3-fda0-44b3-9591-700decbf1457,6,236.5365,238.4379,space,1,0.3922,,0,12,12,11,1,L,space,,,,,,,,,,
,,,,,R_9wEsfItQBeYZtML,001,2025-09-14_12h31.30.007,continuous_performance_test,2024.2.4,Win32,72.46376812,71a388a3-fda0-44b3-9591-700decbf1457,6,238.4417,240.1414,,1,,,0,13,13,29,1,X,,,,,,,,,,,
,,,,,R_9wEsfItQBeYZtML,001,2025-09-14_12h31.30.007,continuous_performance_test,2024.2.4,Win32,72.46376812,71a388a3-fda0-44b3-9591-700decbf1457,6,240.145,241.838,space,1,0.4279,,0,14,14,16,1,Q,space,,,,,,,,,,
,,,,,R_9wEsfItQBeYZtML,001,2025-09-14_12h31.30.007,continuous_performance_test,2024.2.4,Win32,72.46376812,71a388a3-fda0-44b3-9591-700decbf1457,6,241.8415,243.4364,space,1,0.4603,,0,15,15,4,1,E,space,,,,,,,,,,
,,,,,R_9wEsfItQBeYZtML,001,2025-09-14_12h31.30.007,continuous_performance_test,2024.2.4,Win32,72.46376812,71a388a3-fda0-44b3-9591-700decbf1457,6,243.4395,245.2861,space,1,0.4635,,0,16,16,14,1,O,space,,,,,,,,,,
,,,,,R_9wEsfItQBeYZtML,001,2025-09-14_12h31.30.007,continuous_performance_test,2024.2.4,Win32,72.46376812,71a388a3-fda0-44b3-9591-700decbf1457,6,245.2895,247.0348,,1,,,0,17,17,27,1,X,,,,,,,,,,,
,,,,,R_9wEsfItQBeYZtML,001,2025-09-14_12h31.30.007,continuous_performance_test,2024.2.4,Win32,72.46376812,71a388a3-fda0-44b3-9591-700decbf1457,6,247.0375,248.6348,space,1,0.76,,0,18,18,23,1,Y,space,,,,,,,,,,
,,,,,R_9wEsfItQBeYZtML,001,2025-09-14_12h31.30.007,continuous_performance_test,2024.2.4,Win32,72.46376812,71a388a3-fda0-44b3-9591-700decbf1457,6,248.6384,250.2906,,1,,,0,19,19,25,1,X,,,,,,,,,,,
,,,,,R_9wEsfItQBeYZtML,001,2025-09-14_12h31.30.007,continuous_performance_test,2024.2.4,Win32,72.46376812,71a388a3-fda0-44b3-9591-700decbf1457,6,250.294,252.036,space,1,0.3497,,0,20,20,22,1,W,space,,,,,,,,,,
,,,,,R_9wEsfItQBeYZtML,001,2025-09-14_12h31.30.007,continuous_performance_test,2024.2.4,Win32,72.46376812,71a388a3-fda0-44b3-9591-700decbf1457,6,252.0395,253.7877,space,1,0.4172,,0,21,21,6,1,G,space,,,,,,,,,,
,,,,,R_9wEsfItQBeYZtML,001,2025-09-14_12h31.30.007,continuous_performance_test,2024.2.4,Win32,72.46376812,71a388a3-fda0-44b3-9591-700decbf1457,6,253.7913,255.5856,space,1,0.3583,,0,22,22,15,1,P,space,,,,,,,,,,
,,,,,R_9wEsfItQBeYZtML,001,2025-09-14_12h31.30.007,continuous_performance_test,2024.2.4,Win32,72.46376812,71a388a3-fda0-44b3-9591-700decbf1457,6,255.589,257.435,,1,,,0,23,23,28,1,X,,,,,,,,,,,
,,,,,R_9wEsfItQBeYZtML,001,2025-09-14_12h31.30.007,continuous_performance_test,2024.2.4,Win32,72.46376812,71a388a3-fda0-44b3-9591-700decbf1457,6,257.438,259.1329,space,1,0.4114,,0,24,24,21,1,V,space,,,,,,,,,,
,,,,,R_9wEsfItQBeYZtML,001,2025-09-14_12h31.30.007,continuous_performance_test,2024.2.4,Win32,72.46376812,71a388a3-fda0-44b3-9591-700decbf1457,6,259.1361,260.6813,space,1,0.4765,,0,25,25,1,1,B,space,,,,,,,,,,
,,,,,R_9wEsfItQBeYZtML,001,2025-09-14_12h31.30.007,continuous_performance_test,2024.2.4,Win32,72.46376812,71a388a3-fda0-44b3-9591-700decbf1457,6,260.6848,262.6274,space,1,0.4338,,0,26,26,12,1,M,space,,,,,,,,,,
,,,,,R_9wEsfItQBeYZtML,001,2025-09-14_12h31.30.007,continuous_performance_test,2024.2.4,Win32,72.46376812,71a388a3-fda0-44b3-9591-700decbf1457,6,262.6302,264.3757,space,1,0.4133,,0,27,27,10,1,K,space,,,,,,,,,,
,,,,,R_9wEsfItQBeYZtML,001,2025-09-14_12h31.30.007,continuous_performance_test,2024.2.4,Win32,72.46376812,71a388a3-fda0-44b3-9591-700decbf1457,6,264.3792,265.9283,space,1,0.3769,,0,28,28,2,1,C,space,,,,,,,,,,
,,,,,R_9wEsfItQBeYZtML,001,2025-09-14_12h31.30.007,continuous_performance_test,2024.2.4,Win32,72.46376812,71a388a3-fda0-44b3-9591-700decbf1457,6,265.9319,267.7212,space,1,0.3434,,0,29,29,8,1,I,space,,,,,,,,,,
,,,,,R_9wEsfItQBeYZtML,001,2025-09-14_12h31.30.007,continuous_performance_test,2024.2.4,Win32,72.46376812,71a388a3-fda0-44b3-9591-700decbf1457,6,279.5353,281.4841,space,1,0.4066,,0,0,0,10,1,K,space,267.7241,279.5263,space,11.7896,,,,,,
,,,,,R_9wEsfItQBeYZtML,001,2025-09-14_12h31.30.007,continuous_performance_test,2024.2.4,Win32,72.46376812,71a388a3-fda0-44b3-9591-700decbf1457,6,281.487,283.2366,space,1,0.3189,,0,1,1,17,1,R,space,,,,,,,,,,
,,,,,R_9wEsfItQBeYZtML,001,2025-09-14_12h31.30.007,continuous_performance_test,2024.2.4,Win32,72.46376812,71a388a3-fda0-44b3-9591-700decbf1457,6,283.2398,284.9891,space,1,0.31,,0,2,2,13,1,N,space,,,,,,,,,,
,,,,,R_9wEsfItQBeYZtML,001,2025-09-14_12h31.30.007,continuous_performance_test,2024.2.4,Win32,72.46376812,71a388a3-fda0-44b3-9591-700decbf1457,6,284.9925,286.9388,space,1,0.3324,,0,3,3,14,1,O,space,,,,,,,,,,
,,,,,R_9wEsfItQBeYZtML,001,2025-09-14_12h31.30.007,continuous_performance_test,2024.2.4,Win32,72.46376812,71a388a3-fda0-44b3-9591-700decbf1457,6,286.9417,288.5942,space,1,0.3091,,0,4,4,0,1,A,space,,,,,,,,,,
,,,,,R_9wEsfItQBeYZtML,001,2025-09-14_12h31.30.007,continuous_performance_test,2024.2.4,Win32,72.46376812,71a388a3-fda0-44b3-9591-700decbf1457,6,288.5966,290.545,space,1,0.2849,,0,5,5,3,1,D,space,,,,,,,,,,
,,,,,R_9wEsfItQBeYZtML,001,2025-09-14_12h31.30.007,continuous_performance_test,2024.2.4,Win32,72.46376812,71a388a3-fda0-44b3-9591-700decbf1457,6,290.5478,292.2466,space,1,0.326,,0,6,6,8,1,I,space,,,,,,,,,,
,,,,,R_9wEsfItQBeYZtML,001,2025-09-14_12h31.30.007,continuous_performance_test,2024.2.4,Win32,72.46376812,71a388a3-fda0-44b3-9591-700decbf1457,6,292.2494,294.1423,space,1,0.3638,,0,7,7,22,1,W,space,,,,,,,,,,
,,,,,R_9wEsfItQBeYZtML,001,2025-09-14_12h31.30.007,continuous_performance_test,2024.2.4,Win32,72.46376812,71a388a3-fda0-44b3-9591-700decbf1457,6,294.1457,295.7975,space,0,0.3735,,0,8,8,27,1,X,,,,,,,,,,,
,,,,,R_9wEsfItQBeYZtML,001,2025-09-14_12h31.30.007,continuous_performance_test,2024.2.4,Win32,72.46376812,71a388a3-fda0-44b3-9591-700decbf1457,6,295.8005,297.396,space,1,0.407,,0,9,9,19,1,T,space,,,,,,,,,,
,,,,,R_9wEsfItQBeYZtML,001,2025-09-14_12h31.30.007,continuous_performance_test,2024.2.4,Win32,72.46376812,71a388a3-fda0-44b3-9591-700decbf1457,6,297.3992,299.3961,space,1,0.396,,0,10,10,7,1,H,space,,,,,,,,,,
,,,,,R_9wEsfItQBeYZtML,001,2025-09-14_12h31.30.007,continuous_performance_test,2024.2.4,Win32,72.46376812,71a388a3-fda0-44b3-9591-700decbf1457,6,299.3999,301.2414,space,1,0.3788,,0,11,11,21,1,V,space,,,,,,,,,,
,,,,,R_9wEsfItQBeYZtML,001,2025-09-14_12h31.30.007,continuous_performance_test,2024.2.4,Win32,72.46376812,71a388a3-fda0-44b3-9591-700decbf1457,6,301.2445,303.0923,space,1,0.3933,,0,12,12,24,1,Z,space,,,,,,,,,,
,,,,,R_9wEsfItQBeYZtML,001,2025-09-14_12h31.30.007,continuous_performance_test,2024.2.4,Win32,72.46376812,71a388a3-fda0-44b3-9591-700decbf1457,6,303.0944,304.9437,space,1,0.3958,,0,13,13,23,1,Y,space,,,,,,,,,,
,,,,,R_9wEsfItQBeYZtML,001,2025-09-14_12h31.30.007,continuous_performance_test,2024.2.4,Win32,72.46376812,71a388a3-fda0-44b3-9591-700decbf1457,6,304.9472,306.5434,,1,,,0,14,14,25,1,X,,,,,,,,,,,
,,,,,R_9wEsfItQBeYZtML,001,2025-09-14_12h31.30.007,continuous_performance_test,2024.2.4,Win32,72.46376812,71a388a3-fda0-44b3-9591-700decbf1457,6,306.5471,308.4484,space,1,0.376,,0,15,15,16,1,Q,space,,,,,,,,,,
,,,,,R_9wEsfItQBeYZtML,001,2025-09-14_12h31.30.007,continuous_performance_test,2024.2.4,Win32,72.46376812,71a388a3-fda0-44b3-9591-700decbf1457,6,308.4514,309.9948,space,1,0.5276,,0,16,16,4,1,E,space,,,,,,,,,,
,,,,,R_9wEsfItQBeYZtML,001,2025-09-14_12h31.30.007,continuous_performance_test,2024.2.4,Win32,72.46376812,71a388a3-fda0-44b3-9591-700decbf1457,6,309.9986,311.9941,space,1,0.4347,,0,17,17,11,1,L,space,,,,,,,,,,
,,,,,R_9wEsfItQBeYZtML,001,2025-09-14_12h31.30.007,continuous_performance_test,2024.2.4,Win32,72.46376812,71a388a3-fda0-44b3-9591-700decbf1457,6,311.9976,313.8466,space,1,0.4151,,0,18,18,5,1,F,space,,,,,,,,,,
,,,,,R_9wEsfItQBeYZtML,001,2025-09-14_12h31.30.007,continuous_performance_test,2024.2.4,Win32,72.46376812,71a388a3-fda0-44b3-9591-700decbf1457,6,313.8502,315.7999,space,1,0.4032,,0,19,19,12,1,M,space,,,,,,,,,,
,,,,,R_9wEsfItQBeYZtML,001,2025-09-14_12h31.30.007,continuous_performance_test,2024.2.4,Win32,72.46376812,71a388a3-fda0-44b3-9591-700decbf1457,6,315.8033,317.5478,space,1,0.4658,,0,20,20,2,1,C,space,,,,,,,,,,
,,,,,R_9wEsfItQBeYZtML,001,2025-09-14_12h31.30.007,continuous_performance_test,2024.2.4,Win32,72.46376812,71a388a3-fda0-44b3-9591-700decbf1457,6,317.5512,319.2432,space,0,0.3535,,0,21,21,28,1,X,,,,,,,,,,,
,,,,,R_9wEsfItQBeYZtML,001,2025-09-14_12h31.30.007,continuous_performance_test,2024.2.4,Win32,72.46376812,71a388a3-fda0-44b3-9591-700decbf1457,6,319.2476,320.9934,space,1,0.4099,,0,22,22,6,1,G,space,,,,,,,,,,
,,,,,R_9wEsfItQBeYZtML,001,2025-09-14_12h31.30.007,continuous_performance_test,2024.2.4,Win32,72.46376812,71a388a3-fda0-44b3-9591-700decbf1457,6,320.9969,322.7469,space,1,0.3987,,0,23,23,1,1,B,space,,,,,,,,,,
,,,,,R_9wEsfItQBeYZtML,001,2025-09-14_12h31.30.007,continuous_performance_test,2024.2.4,Win32,72.46376812,71a388a3-fda0-44b3-9591-700decbf1457,6,322.7497,324.3987,,1,,,0,24,24,26,1,X,,,,,,,,,,,
,,,,,R_9wEsfItQBeYZtML,001,2025-09-14_12h31.30.007,continuous_performance_test,2024.2.4,Win32,72.46376812,71a388a3-fda0-44b3-9591-700decbf1457,6,324.4026,325.948,space,1,0.4089,,0,25,25,20,1,U,space,,,,,,,,,,
,,,,,R_9wEsfItQBeYZtML,001,2025-09-14_12h31.30.007,continuous_performance_test,2024.2.4,Win32,72.46376812,71a388a3-fda0-44b3-9591-700decbf1457,6,325.9515,327.6984,,1,,,0,26,26,29,1,X,,,,,,,,,,,
,,,,,R_9wEsfItQBeYZtML,001,2025-09-14_12h31.30.007,continuous_performance_test,2024.2.4,Win32,72.46376812,71a388a3-fda0-44b3-9591-700decbf1457,6,327.7028,329.4521,,0,,,0,27,27,18,1,S,space,,,,,,,,,,
,,,,,R_9wEsfItQBeYZtML,001,2025-09-14_12h31.30.007,continuous_performance_test,2024.2.4,Win32,72.46376812,71a388a3-fda0-44b3-9591-700decbf1457,6,329.4557,331.1489,space,1,0.4627,,0,28,28,15,1,P,space,,,,,,,,,,
,,,,,R_9wEsfItQBeYZtML,001,2025-09-14_12h31.30.007,continuous_performance_test,2024.2.4,Win32,72.46376812,71a388a3-fda0-44b3-9591-700decbf1457,6,331.1513,332.9017,space,1,0.4639,,0,29,29,9,1,J,space,,,,,,,,,,
,,,,,R_9wEsfItQBeYZtML,001,2025-09-14_12h31.30.007,continuous_performance_test,2024.2.4,Win32,72.46376812,71a388a3-fda0-44b3-9591-700decbf1457,6,340.8982,342.5961,,1,,,0,0,0,26,1,X,,332.9042,340.8884,space,7.9704,,,,,,
,,,,,R_9wEsfItQBeYZtML,001,2025-09-14_12h31.30.007,continuous_performance_test,2024.2.4,Win32,72.46376812,71a388a3-fda0-44b3-9591-700decbf1457,6,342.5996,344.5933,space,1,0.4518,,0,1,1,10,1,K,space,,,,,,,,,,
,,,,,R_9wEsfItQBeYZtML,001,2025-09-14_12h31.30.007,continuous_performance_test,2024.2.4,Win32,72.46376812,71a388a3-fda0-44b3-9591-700decbf1457,6,344.5969,346.3515,space,1,0.3596,,0,2,2,11,1,L,space,,,,,,,,,,
,,,,,R_9wEsfItQBeYZtML,001,2025-09-14_12h31.30.007,continuous_performance_test,2024.2.4,Win32,72.46376812,71a388a3-fda0-44b3-9591-700decbf1457,6,346.3524,348.0493,space,1,0.3269,,0,3,3,24,1,Z,space,,,,,,,,,,
,,,,,R_9wEsfItQBeYZtML,001,2025-09-14_12h31.30.007,continuous_performance_test,2024.2.4,Win32,72.46376812,71a388a3-fda0-44b3-9591-700decbf1457,6,348.0532,349.7993,space,1,0.3087,,0,4,4,3,1,D,space,,,,,,,,,,
,,,,,R_9wEsfItQBeYZtML,001,2025-09-14_12h31.30.007,continuous_performance_test,2024.2.4,Win32,72.46376812,71a388a3-fda0-44b3-9591-700decbf1457,6,349.8001,351.7479,space,1,0.3791,,0,5,5,21,1,V,space,,,,,,,,,,
,,,,,R_9wEsfItQBeYZtML,001,2025-09-14_12h31.30.007,continuous_performance_test,2024.2.4,Win32,72.46376812,71a388a3-fda0-44b3-9591-700decbf1457,6,351.7527,353.3471,space,1,0.4209,,0,6,6,23,1,Y,space,,,,,,,,,,
,,,,,R_9wEsfItQBeYZtML,001,2025-09-14_12h31.30.007,continuous_performance_test,2024.2.4,Win32,72.46376812,71a388a3-fda0-44b3-9591-700decbf1457,6,353.3524,354.9402,space,1,0.5373,,0,7,7,15,1,P,space,,,,,,,,,,
,,,,,R_9wEsfItQBeYZtML,001,2025-09-14_12h31.30.007,continuous_performance_test,2024.2.4,Win32,72.46376812,71a388a3-fda0-44b3-9591-700decbf1457,6,354.9444,356.6412,space,1,0.493,,0,8,8,14,1,O,space,,,,,,,,,,
,,,,,R_9wEsfItQBeYZtML,001,2025-09-14_12h31.30.007,continuous_performance_test,2024.2.4,Win32,72.46376812,71a388a3-fda0-44b3-9591-700decbf1457,6,356.6446,358.34,space,0,0.4487,,0,9,9,25,1,X,,,,,,,,,,,
,,,,,R_9wEsfItQBeYZtML,001,2025-09-14_12h31.30.007,continuous_performance_test,2024.2.4,Win32,72.46376812,71a388a3-fda0-44b3-9591-700decbf1457,6,358.3433,360.138,,1,,,0,10,10,29,1,X,,,,,,,,,,,
,,,,,R_9wEsfItQBeYZtML,001,2025-09-14_12h31.30.007,continuous_performance_test,2024.2.4,Win32,72.46376812,71a388a3-fda0-44b3-9591-700decbf1457,6,360.1414,361.7416,space,1,0.5819,,0,11,11,16,1,Q,space,,,,,,,,,,
,,,,,R_9wEsfItQBeYZtML,001,2025-09-14_12h31.30.007,continuous_performance_test,2024.2.4,Win32,72.46376812,71a388a3-fda0-44b3-9591-700decbf1457,6,361.7436,363.5857,space,1,0.4939,,0,12,12,5,1,F,space,,,,,,,,,,
,,,,,R_9wEsfItQBeYZtML,001,2025-09-14_12h31.30.007,continuous_performance_test,2024.2.4,Win32,72.46376812,71a388a3-fda0-44b3-9591-700decbf1457,6,363.5898,365.5869,space,1,0.4048,,0,13,13,22,1,W,space,,,,,,,,,,
,,,,,R_9wEsfItQBeYZtML,001,2025-09-14_12h31.30.007,continuous_performance_test,2024.2.4,Win32,72.46376812,71a388a3-fda0-44b3-9591-700decbf1457,6,365.5904,367.4902,space,1,0.4295,,0,14,14,9,1,J,space,,,,,,,,,,
,,,,,R_9wEsfItQBeYZtML,001,2025-09-14_12h31.30.007,continuous_performance_test,2024.2.4,Win32,72.46376812,71a388a3-fda0-44b3-9591-700decbf1457,6,367.493,369.4394,space,1,0.3133,,0,15,15,8,1,I,space,,,,,,,,,,
,,,,,R_9wEsfItQBeYZtML,001,2025-09-14_12h31.30.007,continuous_performance_test,2024.2.4,Win32,72.46376812,71a388a3-fda0-44b3-9591-700decbf1457,6,369.442,371.0934,space,1,0.3142,,0,16,16,4,1,E,space,,,,,,,,,,
,,,,,R_9wEsfItQBeYZtML,001,2025-09-14_12h31.30.007,continuous_performance_test,2024.2.4,Win32,72.46376812,71a388a3-fda0-44b3-9591-700decbf1457,6,371.097,373.0899,space,1,0.2624,,0,17,17,7,1,H,space,,,,,,,,,,
,,,,,R_9wEsfItQBeYZtML,001,2025-09-14_12h31.30.007,continuous_performance_test,2024.2.4,Win32,72.46376812,71a388a3-fda0-44b3-9591-700decbf1457,6,373.0932,374.8376,,1,,,0,18,18,27,1,X,,,,,,,,,,,
,,,,,R_9wEsfItQBeYZtML,001,2025-09-14_12h31.30.007,continuous_performance_test,2024.2.4,Win32,72.46376812,71a388a3-fda0-44b3-9591-700decbf1457,6,374.8404,376.8318,space,1,0.4101,,0,19,19,6,1,G,space,,,,,,,,,,
,,,,,R_9wEsfItQBeYZtML,001,2025-09-14_12h31.30.007,continuous_performance_test,2024.2.4,Win32,72.46376812,71a388a3-fda0-44b3-9591-700decbf1457,6,376.8355,378.3848,,1,,,0,20,20,28,1,X,,,,,,,,,,,
,,,,,R_9wEsfItQBeYZtML,001,2025-09-14_12h31.30.007,continuous_performance_test,2024.2.4,Win32,72.46376812,71a388a3-fda0-44b3-9591-700decbf1457,6,378.3868,380.234,space,1,0.3882,,0,21,21,12,1,M,space,,,,,,,,,,
,,,,,R_9wEsfItQBeYZtML,001,2025-09-14_12h31.30.007,continuous_performance_test,2024.2.4,Win32,72.46376812,71a388a3-fda0-44b3-9591-700decbf1457,6,380.2382,381.9836,space,1,0.5069,,0,22,22,2,1,C,space,,,,,,,,,,
,,,,,R_9wEsfItQBeYZtML,001,2025-09-14_12h31.30.007,continuous_performance_test,2024.2.4,Win32,72.46376812,71a388a3-fda0-44b3-9591-700decbf1457,6,381.9867,383.9376,space,1,0.4088,,0,23,23,13,1,N,space,,,,,,,,,,
,,,,,R_9wEsfItQBeYZtML,001,2025-09-14_12h31.30.007,continuous_performance_test,2024.2.4,Win32,72.46376812,71a388a3-fda0-44b3-9591-700decbf1457,6,383.941,385.6892,space,1,0.3691,,0,24,24,0,1,A,space,,,,,,,,,,
,,,,,R_9wEsfItQBeYZtML,001,2025-09-14_12h31.30.007,continuous_performance_test,2024.2.4,Win32,72.46376812,71a388a3-fda0-44b3-9591-700decbf1457,6,385.692,387.6405,space,1,0.3153,,0,25,25,20,1,U,space,,,,,,,,,,
,,,,,R_9wEsfItQBeYZtML,001,2025-09-14_12h31.30.007,continuous_performance_test,2024.2.4,Win32,72.46376812,71a388a3-fda0-44b3-9591-700decbf1457,6,387.6436,389.2452,space,1,0.3924,,0,26,26,19,1,T,space,,,,,,,,,,
,,,,,R_9wEsfItQBeYZtML,001,2025-09-14_12h31.30.007,continuous_performance_test,2024.2.4,Win32,72.46376812,71a388a3-fda0-44b3-9591-700decbf1457,6,389.2478,390.9439,space,1,0.3622,,0,27,27,18,1,S,space,,,,,,,,,,
,,,,,R_9wEsfItQBeYZtML,001,2025-09-14_12h31.30.007,continuous_performance_test,2024.2.4,Win32,72.46376812,71a388a3-fda0-44b3-9591-700decbf1457,6,390.9466,392.6449,space,1,0.3585,,0,28,28,1,1,B,space,,,,,,,,,,
,,,,,R_9wEsfItQBeYZtML,001,2025-09-14_12h31.30.007,continuous_performance_test,2024.2.4,Win32,72.46376812,71a388a3-fda0-44b3-9591-700decbf1457,6,392.6481,394.5439,space,1,0.3037,,0,29,29,17,1,R,space,,,,,,,,,,
,,,,,R_9wEsfItQBeYZtML,001,2025-09-14_12h31.30.007,continuous_performance_test,2024.2.4,Win32,72.46376812,71a388a3-fda0-44b3-9591-700decbf1457,6,396.1446,398.0413,,1,,,0,0,0,27,1,X,,394.5465,396.1373,space,1.5777,,,,,,
,,,,,R_9wEsfItQBeYZtML,001,2025-09-14_12h31.30.007,continuous_performance_test,2024.2.4,Win32,72.46376812,71a388a3-fda0-44b3-9591-700decbf1457,6,398.0449,400.0363,space,1,0.4244,,0,1,1,24,1,Z,space,,,,,,,,,,
,,,,,R_9wEsfItQBeYZtML,001,2025-09-14_12h31.30.007,continuous_performance_test,2024.2.4,Win32,72.46376812,71a388a3-fda0-44b3-9591-700decbf1457,6,400.0404,401.7869,space,1,0.3583,,0,2,2,3,1,D,space,,,,,,,,,,
,,,,,R_9wEsfItQBeYZtML,001,2025-09-14_12h31.30.007,continuous_performance_test,2024.2.4,Win32,72.46376812,71a388a3-fda0-44b3-9591-700decbf1457,6,401.7892,403.4369,space,1,0.393,,0,3,3,12,1,M,space,,,,,,,,,,
,,,,,R_9wEsfItQBeYZtML,001,2025-09-14_12h31.30.007,continuous_performance_test,2024.2.4,Win32,72.46376812,71a388a3-fda0-44b3-9591-700decbf1457,6,403.4401,405.236,space,0,0.2793,,0,4,4,25,1,X,,,,,,,,,,,
,,,,,R_9wEsfItQBeYZtML,001,2025-09-14_12h31.30.007,continuous_performance_test,2024.2.4,Win32,72.46376812,71a388a3-fda0-44b3-9591-700decbf1457,6,405.237,406.9856,space,1,0.4721,,0,5,5,23,1,Y,space,,,,,,,,,,
,,,,,R_9wEsfItQBeYZtML,001,2025-09-14_12h31.30.007,continuous_performance_test,2024.2.4,Win32,72.46376812,71a388a3-fda0-44b3-9591-700decbf1457,6,406.9861,408.6826,space,1,0.3238,,0,6,6,20,1,U,space,,,,,,,,,,
,,,,,R_9wEsfItQBeYZtML,001,2025-09-14_12h31.30.007,continuous_performance_test,2024.2.4,Win32,72.46376812,71a388a3-fda0-44b3-9591-700decbf1457,6,408.6849,410.4824,space,1,0.3507,,0,7,7,7,1,H,space,,,,,,,,,,
,,,,,R_9wEsfItQBeYZtML,001,2025-09-14_12h31.30.007,continuous_performance_test,2024.2.4,Win32,72.46376812,71a388a3-fda0-44b3-9591-700decbf1457,6,410.4857,412.0299,space,1,0.6156,,0,8,8,8,1,I,space,,,,,,,,,,
,,,,,R_9wEsfItQBeYZtML,001,2025-09-14_12h31.30.007,continuous_performance_test,2024.2.4,Win32,72.46376812,71a388a3-fda0-44b3-9591-700decbf1457,6,412.0331,413.5851,space,1,0.4597,,0,9,9,4,1,E,space,,,,,,,,,,
,,,,,R_9wEsfItQBeYZtML,001,2025-09-14_12h31.30.007,continuous_performance_test,2024.2.4,Win32,72.46376812,71a388a3-fda0-44b3-9591-700decbf1457,6,413.5876,415.2344,space,1,0.3743,,0,10,10,13,1,N,space,,,,,,,,,,
,,,,,R_9wEsfItQBeYZtML,001,2025-09-14_12h31.30.007,continuous_performance_test,2024.2.4,Win32,72.46376812,71a388a3-fda0-44b3-9591-700decbf1457,6,415.2384,416.7818,space,1,0.3863,,0,11,11,21,1,V,space,,,,,,,,,,
,,,,,R_9wEsfItQBeYZtML,001,2025-09-14_12h31.30.007,continuous_performance_test,2024.2.4,Win32,72.46376812,71a388a3-fda0-44b3-9591-700decbf1457,6,416.7848,418.3754,space,1,0.392,,0,12,12,22,1,W,space,,,,,,,,,,
,,,,,R_9wEsfItQBeYZtML,001,2025-09-14_12h31.30.007,continuous_performance_test,2024.2.4,Win32,72.46376812,71a388a3-fda0-44b3-9591-700decbf1457,6,418.3763,419.9761,,1,,,0,13,13,28,1,X,,,,,,,,,,,
,,,,,R_9wEsfItQBeYZtML,001,2025-09-14_12h31.30.007,continuous_performance_test,2024.2.4,Win32,72.46376812,71a388a3-fda0-44b3-9591-700decbf1457,6,419.9793,421.719,space,1,0.5144,,0,14,14,5,1,F,space,,,,,,,,,,
,,,,,R_9wEsfItQBeYZtML,001,2025-09-14_12h31.30.007,continuous_performance_test,2024.2.4,Win32,72.46376812,71a388a3-fda0-44b3-9591-700decbf1457,6,421.7226,423.6689,space,1,0.332,,0,15,15,6,1,G,space,,,,,,,,,,
,,,,,R_9wEsfItQBeYZtML,001,2025-09-14_12h31.30.007,continuous_performance_test,2024.2.4,Win32,72.46376812,71a388a3-fda0-44b3-9591-700decbf1457,6,423.672,425.3696,space,1,0.3792,,0,16,16,18,1,S,space,,,,,,,,,,
,,,,,R_9wEsfItQBeYZtML,001,2025-09-14_12h31.30.007,continuous_performance_test,2024.2.4,Win32,72.46376812,71a388a3-fda0-44b3-9591-700decbf1457,6,425.3812,427.2236,space,1,0.3798,,0,17,17,17,1,R,space,,,,,,,,,,
,,,,,R_9wEsfItQBeYZtML,001,2025-09-14_12h31.30.007,continuous_performance_test,2024.2.4,Win32,72.46376812,71a388a3-fda0-44b3-9591-700decbf1457,6,427.2267,429.1266,space,1,0.3446,,0,18,18,9,1,J,space,,,,,,,,,,
,,,,,R_9wEsfItQBeYZtML,001,2025-09-14_12h31.30.007,continuous_performance_test,2024.2.4,Win32,72.46376812,71a388a3-fda0-44b3-9591-700decbf1457,6,429.13,430.9778,space,1,0.3793,,0,19,19,16,1,Q,space,,,,,,,,,,
,,,,,R_9wEsfItQBeYZtML,001,2025-09-14_12h31.30.007,continuous_performance_test,2024.2.4,Win32,72.46376812,71a388a3-fda0-44b3-9591-700decbf1457,6,430.9812,432.5298,space,1,0.5809,,0,20,20,1,1,B,space,,,,,,,,,,
,,,,,R_9wEsfItQBeYZtML,001,2025-09-14_12h31.30.007,continuous_performance_test,2024.2.4,Win32,72.46376812,71a388a3-fda0-44b3-9591-700decbf1457,6,432.532,434.4755,space,0,0.3651,,0,21,21,26,1,X,,,,,,,,,,,
,,,,,R_9wEsfItQBeYZtML,001,2025-09-14_12h31.30.007,continuous_performance_test,2024.2.4,Win32,72.46376812,71a388a3-fda0-44b3-9591-700decbf1457,6,434.4793,436.0281,space,1,0.4008,,0,22,22,0,1,A,space,,,,,,,,,,
,,,,,R_9wEsfItQBeYZtML,001,2025-09-14_12h31.30.007,continuous_performance_test,2024.2.4,Win32,72.46376812,71a388a3-fda0-44b3-9591-700decbf1457,6,436.0306,437.7826,space,1,0.3784,,0,23,23,15,1,P,space,,,,,,,,,,
,,,,,R_9wEsfItQBeYZtML,001,2025-09-14_12h31.30.007,continuous_performance_test,2024.2.4,Win32,72.46376812,71a388a3-fda0-44b3-9591-700decbf1457,6,437.7861,439.6813,,1,,,0,24,24,29,1,X,,,,,,,,,,,
,,,,,R_9wEsfItQBeYZtML,001,2025-09-14_12h31.30.007,continuous_performance_test,2024.2.4,Win32,72.46376812,71a388a3-fda0-44b3-9591-700decbf1457,6,439.6845,441.3363,space,1,0.3353,,0,25,25,10,1,K,space,,,,,,,,,,
,,,,,R_9wEsfItQBeYZtML,001,2025-09-14_12h31.30.007,continuous_performance_test,2024.2.4,Win32,72.46376812,71a388a3-fda0-44b3-9591-700decbf1457,6,441.3383,443.2811,space,1,0.3345,,0,26,26,2,1,C,space,,,,,,,,,,
,,,,,R_9wEsfItQBeYZtML,001,2025-09-14_12h31.30.007,continuous_performance_test,2024.2.4,Win32,72.46376812,71a388a3-fda0-44b3-9591-700decbf1457,6,443.2839,445.1305,space,1,0.3162,,0,27,27,14,1,O,space,,,,,,,,,,
,,,,,R_9wEsfItQBeYZtML,001,2025-09-14_12h31.30.007,continuous_performance_test,2024.2.4,Win32,72.46376812,71a388a3-fda0-44b3-9591-700decbf1457,6,445.1346,446.687,space,1,0.2938,,0,28,28,11,1,L,space,,,,,,,,,,
,,,,,R_9wEsfItQBeYZtML,001,2025-09-14_12h31.30.007,continuous_performance_test,2024.2.4,Win32,72.46376812,71a388a3-fda0-44b3-9591-700decbf1457,6,446.6916,448.5843,space,1,0.3461,,0,29,29,19,1,T,space,,,,,,,,,,
,,,,,R_9wEsfItQBeYZtML,001,2025-09-14_12h31.30.007,continuous_performance_test,2024.2.4,Win32,72.46376812,71a388a3-fda0-44b3-9591-700decbf1457,6,449.656,451.5095,space,1,0.4748,,0,0,0,11,1,L,space,448.5866,449.6477,space,1.0477,,,,,,
,,,,,R_9wEsfItQBeYZtML,001,2025-09-14_12h31.30.007,continuous_performance_test,2024.2.4,Win32,72.46376812,71a388a3-fda0-44b3-9591-700decbf1457,6,451.5118,453.3104,space,1,0.3758,,0,1,1,1,1,B,space,,,,,,,,,,
,,,,,R_9wEsfItQBeYZtML,001,2025-09-14_12h31.30.007,continuous_performance_test,2024.2.4,Win32,72.46376812,71a388a3-fda0-44b3-9591-700decbf1457,6,453.3141,455.2607,space,1,0.3452,,0,2,2,10,1,K,space,,,,,,,,,,
,,,,,R_9wEsfItQBeYZtML,001,2025-09-14_12h31.30.007,continuous_performance_test,2024.2.4,Win32,72.46376812,71a388a3-fda0-44b3-9591-700decbf1457,6,455.2643,457.0623,space,1,0.3884,,0,3,3,14,1,O,space,,,,,,,,,,
,,,,,R_9wEsfItQBeYZtML,001,2025-09-14_12h31.30.007,continuous_performance_test,2024.2.4,Win32,72.46376812,71a388a3-fda0-44b3-9591-700decbf1457,6,457.0652,459.0596,,1,,,0,4,4,25,1,X,,,,,,,,,,,
,,,,,R_9wEsfItQBeYZtML,001,2025-09-14_12h31.30.007,continuous_performance_test,2024.2.4,Win32,72.46376812,71a388a3-fda0-44b3-9591-700decbf1457,6,459.0634,460.6571,space,1,0.4199,,0,5,5,4,1,E,space,,,,,,,,,,
,,,,,R_9wEsfItQBeYZtML,001,2025-09-14_12h31.30.007,continuous_performance_test,2024.2.4,Win32,72.46376812,71a388a3-fda0-44b3-9591-700decbf1457,6,460.6607,462.207,space,1,0.4527,,0,6,6,24,1,Z,space,,,,,,,,,,
,,,,,R_9wEsfItQBeYZtML,001,2025-09-14_12h31.30.007,continuous_performance_test,2024.2.4,Win32,72.46376812,71a388a3-fda0-44b3-9591-700decbf1457,6,462.2104,464.0534,space,1,0.3357,,0,7,7,16,1,Q,space,,,,,,,,,,
,,,,,R_9wEsfItQBeYZtML,001,2025-09-14_12h31.30.007,continuous_performance_test,2024.2.4,Win32,72.46376812,71a388a3-fda0-44b3-9591-700decbf1457,6,464.0566,465.6549,space,1,0.4031,,0,8,8,20,1,U,space,,,,,,,,,,
,,,,,R_9wEsfItQBeYZtML,001,2025-09-14_12h31.30.007,continuous_performance_test,2024.2.4,Win32,72.46376812,71a388a3-fda0-44b3-9591-700decbf1457,6,465.658,467.2035,space,1,0.5034,,0,9,9,22,1,W,space,,,,,,,,,,
,,,,,R_9wEsfItQBeYZtML,001,2025-09-14_12h31.30.007,continuous_performance_test,2024.2.4,Win32,72.46376812,71a388a3-fda0-44b3-9591-700decbf1457,6,467.2057,469.0528,space,1,0.4114,,0,10,10,23,1,Y,space,,,,,,,,,,
,,,,,R_9wEsfItQBeYZtML,001,2025-09-14_12h31.30.007,continuous_performance_test,2024.2.4,Win32,72.46376812,71a388a3-fda0-44b3-9591-700decbf1457,6,469.056,470.7565,space,1,0.3801,,0,11,11,0,1,A,space,,,,,,,,,,
,,,,,R_9wEsfItQBeYZtML,001,2025-09-14_12h31.30.007,continuous_performance_test,2024.2.4,Win32,72.46376812,71a388a3-fda0-44b3-9591-700decbf1457,6,470.7597,472.6042,space,1,0.3329,,0,12,12,2,1,C,space,,,,,,,,,,
,,,,,R_9wEsfItQBeYZtML,001,2025-09-14_12h31.30.007,continuous_performance_test,2024.2.4,Win32,72.46376812,71a388a3-fda0-44b3-9591-700decbf1457,6,472.6064,474.4047,space,1,0.3616,,0,13,13,18,1,S,space,,,,,,,,,,
,,,,,R_9wEsfItQBeYZtML,001,2025-09-14_12h31.30.007,continuous_performance_test,2024.2.4,Win32,72.46376812,71a388a3-fda0-44b3-9591-700decbf1457,6,474.4088,476.3568,space,0,0.4422,,0,14,14,28,1,X,,,,,,,,,,,
,,,,,R_9wEsfItQBeYZtML,001,2025-09-14_12h31.30.007,continuous_performance_test,2024.2.4,Win32,72.46376812,71a388a3-fda0-44b3-9591-700decbf1457,6,476.3609,478.3056,space,1,0.3321,,0,15,15,19,1,T,space,,,,,,,,,,
,,,,,R_9wEsfItQBeYZtML,001,2025-09-14_12h31.30.007,continuous_performance_test,2024.2.4,Win32,72.46376812,71a388a3-fda0-44b3-9591-700decbf1457,6,478.3081,479.9036,space,0,0.2759,,0,16,16,29,1,X,,,,,,,,,,,
,,,,,R_9wEsfItQBeYZtML,001,2025-09-14_12h31.30.007,continuous_performance_test,2024.2.4,Win32,72.46376812,71a388a3-fda0-44b3-9591-700decbf1457,6,479.9068,481.6011,space,1,0.3991,,0,17,17,21,1,V,space,,,,,,,,,,
,,,,,R_9wEsfItQBeYZtML,001,2025-09-14_12h31.30.007,continuous_performance_test,2024.2.4,Win32,72.46376812,71a388a3-fda0-44b3-9591-700decbf1457,6,481.6045,483.4035,space,1,0.4706,,0,18,18,17,1,R,space,,,,,,,,,,
,,,,,R_9wEsfItQBeYZtML,001,2025-09-14_12h31.30.007,continuous_performance_test,2024.2.4,Win32,72.46376812,71a388a3-fda0-44b3-9591-700decbf1457,6,483.4057,485.2572,space,0,0.2803,,0,19,19,26,1,X,,,,,,,,,,,
,,,,,R_9wEsfItQBeYZtML,001,2025-09-14_12h31.30.007,continuous_performance_test,2024.2.4,Win32,72.46376812,71a388a3-fda0-44b3-9591-700decbf1457,6,485.2594,487.1038,,1,,,0,20,20,27,1,X,,,,,,,,,,,
,,,,,R_9wEsfItQBeYZtML,001,2025-09-14_12h31.30.007,continuous_performance_test,2024.2.4,Win32,72.46376812,71a388a3-fda0-44b3-9591-700decbf1457,6,487.1065,488.7056,space,1,0.4427,,0,21,21,8,1,I,space,,,,,,,,,,
,,,,,R_9wEsfItQBeYZtML,001,2025-09-14_12h31.30.007,continuous_performance_test,2024.2.4,Win32,72.46376812,71a388a3-fda0-44b3-9591-700decbf1457,6,488.7073,490.71,space,1,0.5697,,0,22,22,15,1,P,space,,,,,,,,,,
,,,,,R_9wEsfItQBeYZtML,001,2025-09-14_12h31.30.007,continuous_performance_test,2024.2.4,Win32,72.46376812,71a388a3-fda0-44b3-9591-700decbf1457,6,490.7145,492.7086,space,1,0.4552,,0,23,23,12,1,M,space,,,,,,,,,,
,,,,,R_9wEsfItQBeYZtML,001,2025-09-14_12h31.30.007,continuous_performance_test,2024.2.4,Win32,72.46376812,71a388a3-fda0-44b3-9591-700decbf1457,6,492.7111,494.3083,space,1,0.3856,,0,24,24,6,1,G,space,,,,,,,,,,
,,,,,R_9wEsfItQBeYZtML,001,2025-09-14_12h31.30.007,continuous_performance_test,2024.2.4,Win32,72.46376812,71a388a3-fda0-44b3-9591-700decbf1457,6,494.3119,496.0516,space,1,0.4364,,0,25,25,13,1,N,space,,,,,,,,,,
,,,,,R_9wEsfItQBeYZtML,001,2025-09-14_12h31.30.007,continuous_performance_test,2024.2.4,Win32,72.46376812,71a388a3-fda0-44b3-9591-700decbf1457,6,496.0564,497.6524,space,1,0.3751,,0,26,26,5,1,F,space,,,,,,,,,,
,,,,,R_9wEsfItQBeYZtML,001,2025-09-14_12h31.30.007,continuous_performance_test,2024.2.4,Win32,72.46376812,71a388a3-fda0-44b3-9591-700decbf1457,6,497.655,499.2566,space,1,0.515,,0,27,27,3,1,D,space,,,,,,,,,,
,,,,,R_9wEsfItQBeYZtML,001,2025-09-14_12h31.30.007,continuous_performance_test,2024.2.4,Win32,72.46376812,71a388a3-fda0-44b3-9591-700decbf1457,6,499.26,501.2606,space,1,0.381,,0,28,28,7,1,H,space,,,,,,,,,,
,,,,,R_9wEsfItQBeYZtML,001,2025-09-14_12h31.30.007,continuous_performance_test,2024.2.4,Win32,72.46376812,71a388a3-fda0-44b3-9591-700decbf1457,6,501.2622,503.214,space,1,0.3429,,0,29,29,9,1,J,space,,,,,,,,,,
,,,,,R_9wEsfItQBeYZtML,001,2025-09-14_12h31.30.007,continuous_performance_test,2024.2.4,Win32,72.46376812,71a388a3-fda0-44b3-9591-700decbf1457,6,504.1729,506.1753,,0,,,0,0,0,8,1,I,space,503.2167,504.1653,space,0.9327,,,,,,
,,,,,R_9wEsfItQBeYZtML,001,2025-09-14_12h31.30.007,continuous_performance_test,2024.2.4,Win32,72.46376812,71a388a3-fda0-44b3-9591-700decbf1457,6,506.1782,508.0223,space,1,0.2841,,0,1,1,16,1,Q,space,,,,,,,,,,
,,,,,R_9wEsfItQBeYZtML,001,2025-09-14_12h31.30.007,continuous_performance_test,2024.2.4,Win32,72.46376812,71a388a3-fda0-44b3-9591-700decbf1457,6,508.0259,509.6212,space,1,0.3316,,0,2,2,10,1,K,space,,,,,,,,,,
,,,,,R_9wEsfItQBeYZtML,001,2025-09-14_12h31.30.007,continuous_performance_test,2024.2.4,Win32,72.46376812,71a388a3-fda0-44b3-9591-700decbf1457,6,509.625,511.3753,space,0,0.3253,,0,3,3,28,1,X,,,,,,,,,,,
,,,,,R_9wEsfItQBeYZtML,001,2025-09-14_12h31.30.007,continuous_performance_test,2024.2.4,Win32,72.46376812,71a388a3-fda0-44b3-9591-700decbf1457,6,511.3785,513.1285,space,1,0.4624,,0,4,4,18,1,S,space,,,,,,,,,,
,,,,,R_9wEsfItQBeYZtML,001,2025-09-14_12h31.30.007,continuous_performance_test,2024.2.4,Win32,72.46376812,71a388a3-fda0-44b3-9591-700decbf1457,6,513.1318,514.7776,space,1,0.3435,,0,5,5,23,1,Y,space,,,,,,,,,,
,,,,,R_9wEsfItQBeYZtML,001,2025-09-14_12h31.30.007,continuous_performance_test,2024.2.4,Win32,72.46376812,71a388a3-fda0-44b3-9591-700decbf1457,6,514.7796,516.6268,space,1,0.3313,,0,6,6,21,1,V,space,,,,,,,,,,
,,,,,R_9wEsfItQBeYZtML,001,2025-09-14_12h31.30.007,continuous_performance_test,2024.2.4,Win32,72.46376812,71a388a3-fda0-44b3-9591-700decbf1457,6,516.631,518.2288,,0,,,0,7,7,0,1,A,space,,,,,,,,,,
,,,,,R_9wEsfItQBeYZtML,001,2025-09-14_12h31.30.007,continuous_performance_test,2024.2.4,Win32,72.46376812,71a388a3-fda0-44b3-9591-700decbf1457,6,518.2313,519.8788,space,1,0.3039,,0,8,8,4,1,E,space,,,,,,,,,,
,,,,,R_9wEsfItQBeYZtML,001,2025-09-14_12h31.30.007,continuous_performance_test,2024.2.4,Win32,72.46376812,71a388a3-fda0-44b3-9591-700decbf1457,6,519.883,521.8799,,1,,,0,9,9,29,1,X,,,,,,,,,,,
,,,,,R_9wEsfItQBeYZtML,001,2025-09-14_12h31.30.007,continuous_performance_test,2024.2.4,Win32,72.46376812,71a388a3-fda0-44b3-9591-700decbf1457,6,521.8835,523.4777,space,1,0.4264,,0,10,10,17,1,R,space,,,,,,,,,,
,,,,,R_9wEsfItQBeYZtML,001,2025-09-14_12h31.30.007,continuous_performance_test,2024.2.4,Win32,72.46376812,71a388a3-fda0-44b3-9591-700decbf1457,6,523.4804,525.4268,space,1,0.3566,,0,11,11,3,1,D,space,,,,,,,,,,
,,,,,R_9wEsfItQBeYZtML,001,2025-09-14_12h31.30.007,continuous_performance_test,2024.2.4,Win32,72.46376812,71a388a3-fda0-44b3-9591-700decbf1457,6,525.4303,527.3251,space,1,0.3709,,0,12,12,15,1,P,space,,,,,,,,,,
,,,,,R_9wEsfItQBeYZtML,001,2025-09-14_12h31.30.007,continuous_performance_test,2024.2.4,Win32,72.46376812,71a388a3-fda0-44b3-9591-700decbf1457,6,527.3282,528.9232,,1,,,0,13,13,26,1,X,,,,,,,,,,,
,,,,,R_9wEsfItQBeYZtML,001,2025-09-14_12h31.30.007,continuous_performance_test,2024.2.4,Win32,72.46376812,71a388a3-fda0-44b3-9591-700decbf1457,6,528.9278,530.6244,space,1,0.4419,,0,14,14,5,1,F,space,,,,,,,,,,
,,,,,R_9wEsfItQBeYZtML,001,2025-09-14_12h31.30.007,continuous_performance_test,2024.2.4,Win32,72.46376812,71a388a3-fda0-44b3-9591-700decbf1457,6,530.6268,532.3234,space,1,0.4418,,0,15,15,19,1,T,space,,,,,,,,,,
,,,,,R_9wEsfItQBeYZtML,001,2025-09-14_12h31.30.007,continuous_performance_test,2024.2.4,Win32,72.46376812,71a388a3-fda0-44b3-9591-700decbf1457,6,532.3269,533.9199,space,1,0.562,,0,16,16,2,1,C,space,,,,,,,,,,
,,,,,R_9wEsfItQBeYZtML,001,2025-09-14_12h31.30.007,continuous_performance_test,2024.2.4,Win32,72.46376812,71a388a3-fda0-44b3-9591-700decbf1457,6,533.9231,535.7174,space,1,0.5452,,0,17,17,11,1,L,space,,,,,,,,,,
,,,,,R_9wEsfItQBeYZtML,001,2025-09-14_12h31.30.007,continuous_performance_test,2024.2.4,Win32,72.46376812,71a388a3-fda0-44b3-9591-700decbf1457,6,535.7209,537.2656,space,1,0.4481,,0,18,18,20,1,U,space,,,,,,,,,,
,,,,,R_9wEsfItQBeYZtML,001,2025-09-14_12h31.30.007,continuous_performance_test,2024.2.4,Win32,72.46376812,71a388a3-fda0-44b3-9591-700decbf1457,6,537.2684,539.1212,,1,,,0,19,19,27,1,X,,,,,,,,,,,
,,,,,R_9wEsfItQBeYZtML,001,2025-09-14_12h31.30.007,continuous_performance_test,2024.2.4,Win32,72.46376812,71a388a3-fda0-44b3-9591-700decbf1457,6,539.1247,540.7205,space,1,0.5586,,0,20,20,13,1,N,space,,,,,,,,,,
,,,,,R_9wEsfItQBeYZtML,001,2025-09-14_12h31.30.007,continuous_performance_test,2024.2.4,Win32,72.46376812,71a388a3-fda0-44b3-9591-700decbf1457,6,540.7218,542.3213,space,1,0.4118,,0,21,21,24,1,Z,space,,,,,,,,,,
,,,,,R_9wEsfItQBeYZtML,001,2025-09-14_12h31.30.007,continuous_performance_test,2024.2.4,Win32,72.46376812,71a388a3-fda0-44b3-9591-700decbf1457,6,542.3248,544.2682,space,1,0.6798,,0,22,22,22,1,W,space,,,,,,,,,,
,,,,,R_9wEsfItQBeYZtML,001,2025-09-14_12h31.30.007,continuous_performance_test,2024.2.4,Win32,72.46376812,71a388a3-fda0-44b3-9591-700decbf1457,6,544.2716,546.2166,space,1,0.4305,,0,23,23,9,1,J,space,,,,,,,,,,
,,,,,R_9wEsfItQBeYZtML,001,2025-09-14_12h31.30.007,continuous_performance_test,2024.2.4,Win32,72.46376812,71a388a3-fda0-44b3-9591-700decbf1457,6,546.2206,548.0163,space,1,0.3911,,0,24,24,12,1,M,space,,,,,,,,,,
,,,,,R_9wEsfItQBeYZtML,001,2025-09-14_12h31.30.007,continuous_performance_test,2024.2.4,Win32,72.46376812,71a388a3-fda0-44b3-9591-700decbf1457,6,548.02,549.7197,,1,,,0,25,25,25,1,X,,,,,,,,,,,
,,,,,R_9wEsfItQBeYZtML,001,2025-09-14_12h31.30.007,continuous_performance_test,2024.2.4,Win32,72.46376812,71a388a3-fda0-44b3-9591-700decbf1457,6,549.7232,551.6178,space,1,0.3264,,0,26,26,7,1,H,space,,,,,,,,,,
,,,,,R_9wEsfItQBeYZtML,001,2025-09-14_12h31.30.007,continuous_performance_test,2024.2.4,Win32,72.46376812,71a388a3-fda0-44b3-9591-700decbf1457,6,551.6206,553.5697,space,1,0.3172,,0,27,27,6,1,G,space,,,,,,,,,,
,,,,,R_9wEsfItQBeYZtML,001,2025-09-14_12h31.30.007,continuous_performance_test,2024.2.4,Win32,72.46376812,71a388a3-fda0-44b3-9591-700decbf1457,6,553.5742,555.2188,space,1,0.305,,0,28,28,14,1,O,space,,,,,,,,,,
,,,,,R_9wEsfItQBeYZtML,001,2025-09-14_12h31.30.007,continuous_performance_test,2024.2.4,Win32,72.46376812,71a388a3-fda0-44b3-9591-700decbf1457,6,555.2213,557.0626,space,1,0.2447,,0,29,29,1,1,B,space,,,,,,,,,,
,,,,,R_9wEsfItQBeYZtML,001,2025-09-14_12h31.30.007,continuous_performance_test,2024.2.4,Win32,72.46376812,71a388a3-fda0-44b3-9591-700decbf1457,6,557.6532,559.6557,,0,,,0,0,0,8,1,I,space,557.0654,557.6439,space,0.5664,,,,,,
,,,,,R_9wEsfItQBeYZtML,001,2025-09-14_12h31.30.007,continuous_performance_test,2024.2.4,Win32,72.46376812,71a388a3-fda0-44b3-9591-700decbf1457,6,559.6564,561.4037,space,1,0.2994,,0,1,1,21,1,V,space,,,,,,,,,,
,,,,,R_9wEsfItQBeYZtML,001,2025-09-14_12h31.30.007,continuous_performance_test,2024.2.4,Win32,72.46376812,71a388a3-fda0-44b3-9591-700decbf1457,6,561.4077,563.0481,,1,,,0,2,2,28,1,X,,,,,,,,,,,
,,,,,R_9wEsfItQBeYZtML,001,2025-09-14_12h31.30.007,continuous_performance_test,2024.2.4,Win32,72.46376812,71a388a3-fda0-44b3-9591-700decbf1457,6,563.0512,564.5973,space,1,0.3976,,0,3,3,6,1,G,space,,,,,,,,,,
,,,,,R_9wEsfItQBeYZtML,001,2025-09-14_12h31.30.007,continuous_performance_test,2024.2.4,Win32,72.46376812,71a388a3-fda0-44b3-9591-700decbf1457,6,564.5996,566.3508,space,1,0.3252,,0,4,4,22,1,W,space,,,,,,,,,,
,,,,,R_9wEsfItQBeYZtML,001,2025-09-14_12h31.30.007,continuous_performance_test,2024.2.4,Win32,72.46376812,71a388a3-fda0-44b3-9591-700decbf1457,6,566.3544,568.3,space,0,0.3389,,0,5,5,26,1,X,,,,,,,,,,,
,,,,,R_9wEsfItQBeYZtML,001,2025-09-14_12h31.30.007,continuous_performance_test,2024.2.4,Win32,72.46376812,71a388a3-fda0-44b3-9591-700decbf1457,6,568.3043,570.2939,space,1,0.3808,,0,6,6,18,1,S,space,,,,,,,,,,
,,,,,R_9wEsfItQBeYZtML,001,2025-09-14_12h31.30.007,continuous_performance_test,2024.2.4,Win32,72.46376812,71a388a3-fda0-44b3-9591-700decbf1457,6,570.2975,572.2487,,1,,,0,7,7,27,1,X,,,,,,,,,,,
,,,,,R_9wEsfItQBeYZtML,001,2025-09-14_12h31.30.007,continuous_performance_test,2024.2.4,Win32,72.46376812,71a388a3-fda0-44b3-9591-700decbf1457,6,572.2507,573.897,space,1,0.4234,,0,8,8,9,1,J,space,,,,,,,,,,
,,,,,R_9wEsfItQBeYZtML,001,2025-09-14_12h31.30.007,continuous_performance_test,2024.2.4,Win32,72.46376812,71a388a3-fda0-44b3-9591-700decbf1457,6,573.9006,575.5957,space,1,0.271,,0,9,9,20,1,U,space,,,,,,,,,,
,,,,,R_9wEsfItQBeYZtML,001,2025-09-14_12h31.30.007,continuous_performance_test,2024.2.4,Win32,72.46376812,71a388a3-fda0-44b3-9591-700decbf1457,6,575.6001,577.189,space,1,0.3309,,0,10,10,2,1,C,space,,,,,,,,,,
,,,,,R_9wEsfItQBeYZtML,001,2025-09-14_12h31.30.007,continuous_performance_test,2024.2.4,Win32,72.46376812,71a388a3-fda0-44b3-9591-700decbf1457,6,577.1934,578.8353,space,1,0.4062,,0,11,11,5,1,F,space,,,,,,,,,,
,,,,,R_9wEsfItQBeYZtML,001,2025-09-14_12h31.30.007,continuous_performance_test,2024.2.4,Win32,72.46376812,71a388a3-fda0-44b3-9591-700decbf1457,6,578.8386,580.8329,space,1,0.3868,,0,12,12,1,1,B,space,,,,,,,,,,
,,,,,R_9wEsfItQBeYZtML,001,2025-09-14_12h31.30.007,continuous_performance_test,2024.2.4,Win32,72.46376812,71a388a3-fda0-44b3-9591-700decbf1457,6,580.8353,582.8244,space,1,0.33,,0,13,13,11,1,L,space,,,,,,,,,,
,,,,,R_9wEsfItQBeYZtML,001,2025-09-14_12h31.30.007,continuous_performance_test,2024.2.4,Win32,72.46376812,71a388a3-fda0-44b3-9591-700decbf1457,6,582.8255,584.3709,space,1,0.3198,,0,14,14,23,1,Y,space,,,,,,,,,,
,,,,,R_9wEsfItQBeYZtML,001,2025-09-14_12h31.30.007,continuous_performance_test,2024.2.4,Win32,72.46376812,71a388a3-fda0-44b3-9591-700decbf1457,6,584.3741,586.168,space,1,0.2979,,0,15,15,13,1,N,space,,,,,,,,,,
,,,,,R_9wEsfItQBeYZtML,001,2025-09-14_12h31.30.007,continuous_performance_test,2024.2.4,Win32,72.46376812,71a388a3-fda0-44b3-9591-700decbf1457,6,586.172,588.0678,space,1,0.2881,,0,16,16,15,1,P,space,,,,,,,,,,
,,,,,R_9wEsfItQBeYZtML,001,2025-09-14_12h31.30.007,continuous_performance_test,2024.2.4,Win32,72.46376812,71a388a3-fda0-44b3-9591-700decbf1457,6,588.0708,589.6144,space,1,0.4013,,0,17,17,0,1,A,space,,,,,,,,,,
,,,,,R_9wEsfItQBeYZtML,001,2025-09-14_12h31.30.007,continuous_performance_test,2024.2.4,Win32,72.46376812,71a388a3-fda0-44b3-9591-700decbf1457,6,589.6177,591.2589,space,1,0.4003,,0,18,18,4,1,E,space,,,,,,,,,,
,,,,,R_9wEsfItQBeYZtML,001,2025-09-14_12h31.30.007,continuous_performance_test,2024.2.4,Win32,72.46376812,71a388a3-fda0-44b3-9591-700decbf1457,6,591.262,593.0118,space,1,0.3706,,0,19,19,3,1,D,space,,,,,,,,,,
,,,,,R_9wEsfItQBeYZtML,001,2025-09-14_12h31.30.007,continuous_performance_test,2024.2.4,Win32,72.46376812,71a388a3-fda0-44b3-9591-700decbf1457,6,593.0146,594.8654,space,1,0.3745,,0,20,20,7,1,H,space,,,,,,,,,,
,,,,,R_9wEsfItQBeYZtML,001,2025-09-14_12h31.30.007,continuous_performance_test,2024.2.4,Win32,72.46376812,71a388a3-fda0-44b3-9591-700decbf1457,6,594.8683,596.6626,space,1,0.3904,,0,21,21,10,1,K,space,,,,,,,,,,
,,,,,R_9wEsfItQBeYZtML,001,2025-09-14_12h31.30.007,continuous_performance_test,2024.2.4,Win32,72.46376812,71a388a3-fda0-44b3-9591-700decbf1457,6,596.6661,598.5667,space,1,0.2936,,0,22,22,12,1,M,space,,,,,,,,,,
,,,,,R_9wEsfItQBeYZtML,001,2025-09-14_12h31.30.007,continuous_performance_test,2024.2.4,Win32,72.46376812,71a388a3-fda0-44b3-9591-700decbf1457,6,598.5699,600.5167,space,1,0.3701,,0,23,23,16,1,Q,space,,,,,,,,,,
,,,,,R_9wEsfItQBeYZtML,001,2025-09-14_12h31.30.007,continuous_performance_test,2024.2.4,Win32,72.46376812,71a388a3-fda0-44b3-9591-700decbf1457,6,600.5196,602.2708,space,1,0.3892,,0,24,24,24,1,Z,space,,,,,,,,,,
,,,,,R_9wEsfItQBeYZtML,001,2025-09-14_12h31.30.007,continuous_performance_test,2024.2.4,Win32,72.46376812,71a388a3-fda0-44b3-9591-700decbf1457,6,602.2739,603.9198,space,1,0.3665,,0,25,25,17,1,R,space,,,,,,,,,,
,,,,,R_9wEsfItQBeYZtML,001,2025-09-14_12h31.30.007,continuous_performance_test,2024.2.4,Win32,72.46376812,71a388a3-fda0-44b3-9591-700decbf1457,6,603.923,605.4659,,1,,,0,26,26,29,1,X,,,,,,,,,,,
,,,,,R_9wEsfItQBeYZtML,001,2025-09-14_12h31.30.007,continuous_performance_test,2024.2.4,Win32,72.46376812,71a388a3-fda0-44b3-9591-700decbf1457,6,605.4693,607.0646,,1,,,0,27,27,25,1,X,,,,,,,,,,,
,,,,,R_9wEsfItQBeYZtML,001,2025-09-14_12h31.30.007,continuous_performance_test,2024.2.4,Win32,72.46376812,71a388a3-fda0-44b3-9591-700decbf1457,6,607.0675,608.9187,space,1,0.5902,,0,28,28,19,1,T,space,,,,,,,,,,
,,,,,R_9wEsfItQBeYZtML,001,2025-09-14_12h31.30.007,continuous_performance_test,2024.2.4,Win32,72.46376812,71a388a3-fda0-44b3-9591-700decbf1457,6,608.9208,610.7645,space,1,0.5014,,0,29,29,14,1,O,space,,,,,,,,,,
,,,,,R_9wEsfItQBeYZtML,001,2025-09-14_12h31.30.007,continuous_performance_test,2024.2.4,Win32,72.46376812,71a388a3-fda0-44b3-9591-700decbf1457,6,,,,,,,,,,,,,,610.7679,610.7686,,,,610.7777,672.9723,space,62.1741,
