Instructions.started,Instructions.stopped,key_resp.keys,key_resp.rt,key_resp.duration,participant,session,date,expName,psychopyVersion,OS,frameRate,realeye-tester-id,realeye-tester-quality_grade,Trial_noX.started,Trial_noX.stopped,response.keys,response.corr,response.rt,response.duration,trials_noX.thisRepN,trials_noX.thisTrialN,trials_noX.thisN,trials_noX.thisIndex,trials_noX.ran,letter,corrAns,BlockBreak.started,BlockBreak.stopped,key_instruct.keys,key_instruct.rt,key_instruct.duration,End_NoX.started,End_NoX.stopped,key_resp_end_noX.keys,key_resp_end_noX.rt,key_resp_end_noX.duration
0.0003,8.2082,space,8.2032,,R_9X0AtJe5QW5khxy,001,2025-08-11_11h03.47.919,continuous_performance_test,2024.2.4,MacIntel,60.24096386,f8804269-8d87-4f1a-9ad2-fee9c18acd99,6,,,,,,,,,,,,,,,,,,,,,,,
,,,,,R_9X0AtJe5QW5khxy,001,2025-08-11_11h03.47.919,continuous_performance_test,2024.2.4,MacIntel,60.24096386,f8804269-8d87-4f1a-9ad2-fee9c18acd99,6,8.2188,10.2191,space,1,0.8732,,0,0,0,16,1,Q,space,,,,,,,,,,
,,,,,R_9X0AtJe5QW5khxy,001,2025-08-11_11h03.47.919,continuous_performance_test,2024.2.4,MacIntel,60.24096386,f8804269-8d87-4f1a-9ad2-fee9c18acd99,6,10.2197,11.9124,space,1,0.3752,,0,1,1,18,1,S,space,,,,,,,,,,
,,,,,R_9X0AtJe5QW5khxy,001,2025-08-11_11h03.47.919,continuous_performance_test,2024.2.4,MacIntel,60.24096386,f8804269-8d87-4f1a-9ad2-fee9c18acd99,6,11.9131,13.7124,space,1,0.3403,,0,2,2,21,1,V,space,,,,,,,,,,
,,,,,R_9X0AtJe5QW5khxy,001,2025-08-11_11h03.47.919,continuous_performance_test,2024.2.4,MacIntel,60.24096386,f8804269-8d87-4f1a-9ad2-fee9c18acd99,6,13.713,15.6638,space,1,0.3641,,0,3,3,15,1,P,space,,,,,,,,,,
,,,,,R_9X0AtJe5QW5khxy,001,2025-08-11_11h03.47.919,continuous_performance_test,2024.2.4,MacIntel,60.24096386,f8804269-8d87-4f1a-9ad2-fee9c18acd99,6,15.6645,17.6533,space,0,0.3283,,0,4,4,29,1,X,,,,,,,,,,,
,,,,,R_9X0AtJe5QW5khxy,001,2025-08-11_11h03.47.919,continuous_performance_test,2024.2.4,MacIntel,60.24096386,f8804269-8d87-4f1a-9ad2-fee9c18acd99,6,17.6539,19.2573,space,1,0.3373,,0,5,5,24,1,Z,space,,,,,,,,,,
,,,,,R_9X0AtJe5QW5khxy,001,2025-08-11_11h03.47.919,continuous_performance_test,2024.2.4,MacIntel,60.24096386,f8804269-8d87-4f1a-9ad2-fee9c18acd99,6,19.2579,21.2525,space,1,0.3683,,0,6,6,23,1,Y,space,,,,,,,,,,
,,,,,R_9X0AtJe5QW5khxy,001,2025-08-11_11h03.47.919,continuous_performance_test,2024.2.4,MacIntel,60.24096386,f8804269-8d87-4f1a-9ad2-fee9c18acd99,6,21.2532,23.2528,space,1,0.3519,,0,7,7,7,1,H,space,,,,,,,,,,
,,,,,R_9X0AtJe5QW5khxy,001,2025-08-11_11h03.47.919,continuous_performance_test,2024.2.4,MacIntel,60.24096386,f8804269-8d87-4f1a-9ad2-fee9c18acd99,6,23.2533,25.149,space,1,0.3724,,0,8,8,6,1,G,space,,,,,,,,,,
,,,,,R_9X0AtJe5QW5khxy,001,2025-08-11_11h03.47.919,continuous_performance_test,2024.2.4,MacIntel,60.24096386,f8804269-8d87-4f1a-9ad2-fee9c18acd99,6,25.1496,26.989,space,1,0.3592,,0,9,9,19,1,T,space,,,,,,,,,,
,,,,,R_9X0AtJe5QW5khxy,001,2025-08-11_11h03.47.919,continuous_performance_test,2024.2.4,MacIntel,60.24096386,f8804269-8d87-4f1a-9ad2-fee9c18acd99,6,26.9896,28.9857,space,1,0.3348,,0,10,10,20,1,U,space,,,,,,,,,,
,,,,,R_9X0AtJe5QW5khxy,001,2025-08-11_11h03.47.919,continuous_performance_test,2024.2.4,MacIntel,60.24096386,f8804269-8d87-4f1a-9ad2-fee9c18acd99,6,28.9863,30.8331,space,1,0.3737,,0,11,11,3,1,D,space,,,,,,,,,,
,,,,,R_9X0AtJe5QW5khxy,001,2025-08-11_11h03.47.919,continuous_performance_test,2024.2.4,MacIntel,60.24096386,f8804269-8d87-4f1a-9ad2-fee9c18acd99,6,30.8337,32.4856,space,1,0.3409,,0,12,12,22,1,W,space,,,,,,,,,,
,,,,,R_9X0AtJe5QW5khxy,001,2025-08-11_11h03.47.919,continuous_performance_test,2024.2.4,MacIntel,60.24096386,f8804269-8d87-4f1a-9ad2-fee9c18acd99,6,32.4861,34.0321,space,1,0.372,,0,13,13,4,1,E,space,,,,,,,,,,
,,,,,R_9X0AtJe5QW5khxy,001,2025-08-11_11h03.47.919,continuous_performance_test,2024.2.4,MacIntel,60.24096386,f8804269-8d87-4f1a-9ad2-fee9c18acd99,6,34.0326,35.5787,space,0,0.3678,,0,14,14,28,1,X,,,,,,,,,,,
,,,,,R_9X0AtJe5QW5khxy,001,2025-08-11_11h03.47.919,continuous_performance_test,2024.2.4,MacIntel,60.24096386,f8804269-8d87-4f1a-9ad2-fee9c18acd99,6,35.5792,37.4313,space,1,0.3409,,0,15,15,0,1,A,space,,,,,,,,,,
,,,,,R_9X0AtJe5QW5khxy,001,2025-08-11_11h03.47.919,continuous_performance_test,2024.2.4,MacIntel,60.24096386,f8804269-8d87-4f1a-9ad2-fee9c18acd99,6,37.432,39.1731,space,1,0.3513,,0,16,16,14,1,O,space,,,,,,,,,,
,,,,,R_9X0AtJe5QW5khxy,001,2025-08-11_11h03.47.919,continuous_performance_test,2024.2.4,MacIntel,60.24096386,f8804269-8d87-4f1a-9ad2-fee9c18acd99,6,39.1735,40.7658,space,1,0.3372,,0,17,17,12,1,M,space,,,,,,,,,,
,,,,,R_9X0AtJe5QW5khxy,001,2025-08-11_11h03.47.919,continuous_performance_test,2024.2.4,MacIntel,60.24096386,f8804269-8d87-4f1a-9ad2-fee9c18acd99,6,40.7664,42.5076,space,1,0.3011,,0,18,18,5,1,F,space,,,,,,,,,,
,,,,,R_9X0AtJe5QW5khxy,001,2025-08-11_11h03.47.919,continuous_performance_test,2024.2.4,MacIntel,60.24096386,f8804269-8d87-4f1a-9ad2-fee9c18acd99,6,42.508,44.1956,space,0,0.2681,,0,19,19,25,1,X,,,,,,,,,,,
,,,,,R_9X0AtJe5QW5khxy,001,2025-08-11_11h03.47.919,continuous_performance_test,2024.2.4,MacIntel,60.24096386,f8804269-8d87-4f1a-9ad2-fee9c18acd99,6,44.1961,45.7914,space,1,0.3652,,0,20,20,8,1,I,space,,,,,,,,,,
,,,,,R_9X0AtJe5QW5khxy,001,2025-08-11_11h03.47.919,continuous_performance_test,2024.2.4,MacIntel,60.24096386,f8804269-8d87-4f1a-9ad2-fee9c18acd99,6,45.7918,47.6849,space,1,0.4032,,0,21,21,9,1,J,space,,,,,,,,,,
,,,,,R_9X0AtJe5QW5khxy,001,2025-08-11_11h03.47.919,continuous_performance_test,2024.2.4,MacIntel,60.24096386,f8804269-8d87-4f1a-9ad2-fee9c18acd99,6,47.6854,49.6789,,1,,,0,22,22,27,1,X,,,,,,,,,,,
,,,,,R_9X0AtJe5QW5khxy,001,2025-08-11_11h03.47.919,continuous_performance_test,2024.2.4,MacIntel,60.24096386,f8804269-8d87-4f1a-9ad2-fee9c18acd99,6,49.6796,51.5289,space,1,0.6136,,0,23,23,17,1,R,space,,,,,,,,,,
,,,,,R_9X0AtJe5QW5khxy,001,2025-08-11_11h03.47.919,continuous_performance_test,2024.2.4,MacIntel,60.24096386,f8804269-8d87-4f1a-9ad2-fee9c18acd99,6,51.5297,53.5289,space,1,0.3971,,0,24,24,10,1,K,space,,,,,,,,,,
,,,,,R_9X0AtJe5QW5khxy,001,2025-08-11_11h03.47.919,continuous_performance_test,2024.2.4,MacIntel,60.24096386,f8804269-8d87-4f1a-9ad2-fee9c18acd99,6,53.5295,55.0789,space,1,0.5811,,0,25,25,1,1,B,space,,,,,,,,,,
,,,,,R_9X0AtJe5QW5khxy,001,2025-08-11_11h03.47.919,continuous_performance_test,2024.2.4,MacIntel,60.24096386,f8804269-8d87-4f1a-9ad2-fee9c18acd99,6,55.0797,56.9789,space,1,0.3976,,0,26,26,11,1,L,space,,,,,,,,,,
,,,,,R_9X0AtJe5QW5khxy,001,2025-08-11_11h03.47.919,continuous_performance_test,2024.2.4,MacIntel,60.24096386,f8804269-8d87-4f1a-9ad2-fee9c18acd99,6,56.9797,58.8288,space,1,0.3303,,0,27,27,2,1,C,space,,,,,,,,,,
,,,,,R_9X0AtJe5QW5khxy,001,2025-08-11_11h03.47.919,continuous_performance_test,2024.2.4,MacIntel,60.24096386,f8804269-8d87-4f1a-9ad2-fee9c18acd99,6,58.8294,60.379,,1,,,0,28,28,26,1,X,,,,,,,,,,,
,,,,,R_9X0AtJe5QW5khxy,001,2025-08-11_11h03.47.919,continuous_performance_test,2024.2.4,MacIntel,60.24096386,f8804269-8d87-4f1a-9ad2-fee9c18acd99,6,60.3798,62.028,space,1,0.3971,,0,29,29,13,1,N,space,,,,,,,,,,
,,,,,R_9X0AtJe5QW5khxy,001,2025-08-11_11h03.47.919,continuous_performance_test,2024.2.4,MacIntel,60.24096386,f8804269-8d87-4f1a-9ad2-fee9c18acd99,6,64.5165,66.2622,space,1,0.3983,,0,0,0,1,1,B,space,62.0285,64.5125,space,2.4806,,,,,,
,,,,,R_9X0AtJe5QW5khxy,001,2025-08-11_11h03.47.919,continuous_performance_test,2024.2.4,MacIntel,60.24096386,f8804269-8d87-4f1a-9ad2-fee9c18acd99,6,66.263,67.8617,space,1,0.3305,,0,1,1,14,1,O,space,,,,,,,,,,
,,,,,R_9X0AtJe5QW5khxy,001,2025-08-11_11h03.47.919,continuous_performance_test,2024.2.4,MacIntel,60.24096386,f8804269-8d87-4f1a-9ad2-fee9c18acd99,6,67.8626,69.5623,space,1,0.3959,,0,2,2,6,1,G,space,,,,,,,,,,
,,,,,R_9X0AtJe5QW5khxy,001,2025-08-11_11h03.47.919,continuous_performance_test,2024.2.4,MacIntel,60.24096386,f8804269-8d87-4f1a-9ad2-fee9c18acd99,6,69.563,71.1122,space,1,0.4133,,0,3,3,0,1,A,space,,,,,,,,,,
,,,,,R_9X0AtJe5QW5khxy,001,2025-08-11_11h03.47.919,continuous_performance_test,2024.2.4,MacIntel,60.24096386,f8804269-8d87-4f1a-9ad2-fee9c18acd99,6,71.1128,73.1117,space,1,0.3805,,0,4,4,2,1,C,space,,,,,,,,,,
,,,,,R_9X0AtJe5QW5khxy,001,2025-08-11_11h03.47.919,continuous_performance_test,2024.2.4,MacIntel,60.24096386,f8804269-8d87-4f1a-9ad2-fee9c18acd99,6,73.1122,74.8613,space,1,0.3808,,0,5,5,18,1,S,space,,,,,,,,,,
,,,,,R_9X0AtJe5QW5khxy,001,2025-08-11_11h03.47.919,continuous_performance_test,2024.2.4,MacIntel,60.24096386,f8804269-8d87-4f1a-9ad2-fee9c18acd99,6,74.8624,76.8621,space,1,0.3641,,0,6,6,16,1,Q,space,,,,,,,,,,
,,,,,R_9X0AtJe5QW5khxy,001,2025-08-11_11h03.47.919,continuous_performance_test,2024.2.4,MacIntel,60.24096386,f8804269-8d87-4f1a-9ad2-fee9c18acd99,6,76.8629,78.5621,space,1,0.3643,,0,7,7,17,1,R,space,,,,,,,,,,
,,,,,R_9X0AtJe5QW5khxy,001,2025-08-11_11h03.47.919,continuous_performance_test,2024.2.4,MacIntel,60.24096386,f8804269-8d87-4f1a-9ad2-fee9c18acd99,6,78.5627,80.4621,space,1,0.597,,0,8,8,24,1,Z,space,,,,,,,,,,
,,,,,R_9X0AtJe5QW5khxy,001,2025-08-11_11h03.47.919,continuous_performance_test,2024.2.4,MacIntel,60.24096386,f8804269-8d87-4f1a-9ad2-fee9c18acd99,6,80.4628,82.1621,space,1,0.3653,,0,9,9,4,1,E,space,,,,,,,,,,
,,,,,R_9X0AtJe5QW5khxy,001,2025-08-11_11h03.47.919,continuous_performance_test,2024.2.4,MacIntel,60.24096386,f8804269-8d87-4f1a-9ad2-fee9c18acd99,6,82.1627,83.8122,space,1,0.379,,0,10,10,9,1,J,space,,,,,,,,,,
,,,,,R_9X0AtJe5QW5khxy,001,2025-08-11_11h03.47.919,continuous_performance_test,2024.2.4,MacIntel,60.24096386,f8804269-8d87-4f1a-9ad2-fee9c18acd99,6,83.8126,85.8121,space,0,0.3128,,0,11,11,28,1,X,,,,,,,,,,,
,,,,,R_9X0AtJe5QW5khxy,001,2025-08-11_11h03.47.919,continuous_performance_test,2024.2.4,MacIntel,60.24096386,f8804269-8d87-4f1a-9ad2-fee9c18acd99,6,85.8126,87.6617,space,1,0.2961,,0,12,12,7,1,H,space,,,,,,,,,,
,,,,,R_9X0AtJe5QW5khxy,001,2025-08-11_11h03.47.919,continuous_performance_test,2024.2.4,MacIntel,60.24096386,f8804269-8d87-4f1a-9ad2-fee9c18acd99,6,87.6623,89.2121,space,1,0.4142,,0,13,13,15,1,P,space,,,,,,,,,,
,,,,,R_9X0AtJe5QW5khxy,001,2025-08-11_11h03.47.919,continuous_performance_test,2024.2.4,MacIntel,60.24096386,f8804269-8d87-4f1a-9ad2-fee9c18acd99,6,89.2126,91.162,space,1,0.381,,0,14,14,13,1,N,space,,,,,,,,,,
,,,,,R_9X0AtJe5QW5khxy,001,2025-08-11_11h03.47.919,continuous_performance_test,2024.2.4,MacIntel,60.24096386,f8804269-8d87-4f1a-9ad2-fee9c18acd99,6,91.1628,92.9121,space,1,0.2969,,0,15,15,5,1,F,space,,,,,,,,,,
,,,,,R_9X0AtJe5QW5khxy,001,2025-08-11_11h03.47.919,continuous_performance_test,2024.2.4,MacIntel,60.24096386,f8804269-8d87-4f1a-9ad2-fee9c18acd99,6,92.9127,94.7621,space,1,0.3304,,0,16,16,19,1,T,space,,,,,,,,,,
,,,,,R_9X0AtJe5QW5khxy,001,2025-08-11_11h03.47.919,continuous_performance_test,2024.2.4,MacIntel,60.24096386,f8804269-8d87-4f1a-9ad2-fee9c18acd99,6,94.7628,96.4621,space,1,0.3804,,0,17,17,3,1,D,space,,,,,,,,,,
,,,,,R_9X0AtJe5QW5khxy,001,2025-08-11_11h03.47.919,continuous_performance_test,2024.2.4,MacIntel,60.24096386,f8804269-8d87-4f1a-9ad2-fee9c18acd99,6,96.4626,98.4121,,1,,,0,18,18,29,1,X,,,,,,,,,,,
,,,,,R_9X0AtJe5QW5khxy,001,2025-08-11_11h03.47.919,continuous_performance_test,2024.2.4,MacIntel,60.24096386,f8804269-8d87-4f1a-9ad2-fee9c18acd99,6,98.4128,99.9621,space,1,0.4148,,0,19,19,23,1,Y,space,,,,,,,,,,
,,,,,R_9X0AtJe5QW5khxy,001,2025-08-11_11h03.47.919,continuous_performance_test,2024.2.4,MacIntel,60.24096386,f8804269-8d87-4f1a-9ad2-fee9c18acd99,6,99.9629,101.5121,space,1,0.3802,,0,20,20,8,1,I,space,,,,,,,,,,
,,,,,R_9X0AtJe5QW5khxy,001,2025-08-11_11h03.47.919,continuous_performance_test,2024.2.4,MacIntel,60.24096386,f8804269-8d87-4f1a-9ad2-fee9c18acd99,6,101.5128,103.4621,space,1,0.3466,,0,21,21,20,1,U,space,,,,,,,,,,
,,,,,R_9X0AtJe5QW5khxy,001,2025-08-11_11h03.47.919,continuous_performance_test,2024.2.4,MacIntel,60.24096386,f8804269-8d87-4f1a-9ad2-fee9c18acd99,6,103.4627,105.4621,,1,,,0,22,22,26,1,X,,,,,,,,,,,
,,,,,R_9X0AtJe5QW5khxy,001,2025-08-11_11h03.47.919,continuous_performance_test,2024.2.4,MacIntel,60.24096386,f8804269-8d87-4f1a-9ad2-fee9c18acd99,6,105.4628,107.062,space,1,0.3469,,0,23,23,10,1,K,space,,,,,,,,,,
,,,,,R_9X0AtJe5QW5khxy,001,2025-08-11_11h03.47.919,continuous_performance_test,2024.2.4,MacIntel,60.24096386,f8804269-8d87-4f1a-9ad2-fee9c18acd99,6,107.0626,108.6618,space,1,0.4967,,0,24,24,12,1,M,space,,,,,,,,,,
,,,,,R_9X0AtJe5QW5khxy,001,2025-08-11_11h03.47.919,continuous_performance_test,2024.2.4,MacIntel,60.24096386,f8804269-8d87-4f1a-9ad2-fee9c18acd99,6,108.6626,110.3121,space,1,0.4969,,0,25,25,22,1,W,space,,,,,,,,,,
,,,,,R_9X0AtJe5QW5khxy,001,2025-08-11_11h03.47.919,continuous_performance_test,2024.2.4,MacIntel,60.24096386,f8804269-8d87-4f1a-9ad2-fee9c18acd99,6,110.3128,112.1121,,1,,,0,26,26,25,1,X,,,,,,,,,,,
,,,,,R_9X0AtJe5QW5khxy,001,2025-08-11_11h03.47.919,continuous_performance_test,2024.2.4,MacIntel,60.24096386,f8804269-8d87-4f1a-9ad2-fee9c18acd99,6,112.1128,113.8621,space,1,0.397,,0,27,27,11,1,L,space,,,,,,,,,,
,,,,,R_9X0AtJe5QW5khxy,001,2025-08-11_11h03.47.919,continuous_performance_test,2024.2.4,MacIntel,60.24096386,f8804269-8d87-4f1a-9ad2-fee9c18acd99,6,113.8626,115.762,,1,,,0,28,28,27,1,X,,,,,,,,,,,
,,,,,R_9X0AtJe5QW5khxy,001,2025-08-11_11h03.47.919,continuous_performance_test,2024.2.4,MacIntel,60.24096386,f8804269-8d87-4f1a-9ad2-fee9c18acd99,6,115.7627,117.562,space,1,0.3306,,0,29,29,21,1,V,space,,,,,,,,,,
,,,,,R_9X0AtJe5QW5khxy,001,2025-08-11_11h03.47.919,continuous_performance_test,2024.2.4,MacIntel,60.24096386,f8804269-8d87-4f1a-9ad2-fee9c18acd99,6,121.6145,123.5121,space,1,0.5152,,0,0,0,24,1,Z,space,117.5625,121.612,space,4.0441,,,,,,
,,,,,R_9X0AtJe5QW5khxy,001,2025-08-11_11h03.47.919,continuous_performance_test,2024.2.4,MacIntel,60.24096386,f8804269-8d87-4f1a-9ad2-fee9c18acd99,6,123.5127,125.062,space,1,0.3642,,0,1,1,8,1,I,space,,,,,,,,,,
,,,,,R_9X0AtJe5QW5khxy,001,2025-08-11_11h03.47.919,continuous_performance_test,2024.2.4,MacIntel,60.24096386,f8804269-8d87-4f1a-9ad2-fee9c18acd99,6,125.0629,126.8621,space,1,0.3641,,0,2,2,6,1,G,space,,,,,,,,,,
,,,,,R_9X0AtJe5QW5khxy,001,2025-08-11_11h03.47.919,continuous_performance_test,2024.2.4,MacIntel,60.24096386,f8804269-8d87-4f1a-9ad2-fee9c18acd99,6,126.8629,128.712,space,0,0.3302,,0,3,3,29,1,X,,,,,,,,,,,
,,,,,R_9X0AtJe5QW5khxy,001,2025-08-11_11h03.47.919,continuous_performance_test,2024.2.4,MacIntel,60.24096386,f8804269-8d87-4f1a-9ad2-fee9c18acd99,6,128.7127,130.3119,space,1,0.43,,0,4,4,18,1,S,space,,,,,,,,,,
,,,,,R_9X0AtJe5QW5khxy,001,2025-08-11_11h03.47.919,continuous_performance_test,2024.2.4,MacIntel,60.24096386,f8804269-8d87-4f1a-9ad2-fee9c18acd99,6,130.3129,132.012,space,1,0.3816,,0,5,5,15,1,P,space,,,,,,,,,,
,,,,,R_9X0AtJe5QW5khxy,001,2025-08-11_11h03.47.919,continuous_performance_test,2024.2.4,MacIntel,60.24096386,f8804269-8d87-4f1a-9ad2-fee9c18acd99,6,132.0128,133.7119,space,1,0.364,,0,6,6,23,1,Y,space,,,,,,,,,,
,,,,,R_9X0AtJe5QW5khxy,001,2025-08-11_11h03.47.919,continuous_performance_test,2024.2.4,MacIntel,60.24096386,f8804269-8d87-4f1a-9ad2-fee9c18acd99,6,133.7126,135.5619,space,1,0.3804,,0,7,7,10,1,K,space,,,,,,,,,,
,,,,,R_9X0AtJe5QW5khxy,001,2025-08-11_11h03.47.919,continuous_performance_test,2024.2.4,MacIntel,60.24096386,f8804269-8d87-4f1a-9ad2-fee9c18acd99,6,135.5627,137.212,space,1,0.3631,,0,8,8,20,1,U,space,,,,,,,,,,
,,,,,R_9X0AtJe5QW5khxy,001,2025-08-11_11h03.47.919,continuous_performance_test,2024.2.4,MacIntel,60.24096386,f8804269-8d87-4f1a-9ad2-fee9c18acd99,6,137.2127,139.112,space,1,0.3968,,0,9,9,9,1,J,space,,,,,,,,,,
,,,,,R_9X0AtJe5QW5khxy,001,2025-08-11_11h03.47.919,continuous_performance_test,2024.2.4,MacIntel,60.24096386,f8804269-8d87-4f1a-9ad2-fee9c18acd99,6,139.1127,140.7619,space,1,0.4143,,0,10,10,21,1,V,space,,,,,,,,,,
,,,,,R_9X0AtJe5QW5khxy,001,2025-08-11_11h03.47.919,continuous_performance_test,2024.2.4,MacIntel,60.24096386,f8804269-8d87-4f1a-9ad2-fee9c18acd99,6,140.7626,142.4119,space,1,0.581,,0,11,11,12,1,M,space,,,,,,,,,,
,,,,,R_9X0AtJe5QW5khxy,001,2025-08-11_11h03.47.919,continuous_performance_test,2024.2.4,MacIntel,60.24096386,f8804269-8d87-4f1a-9ad2-fee9c18acd99,6,142.4125,144.4119,space,1,0.3971,,0,12,12,3,1,D,space,,,,,,,,,,
,,,,,R_9X0AtJe5QW5khxy,001,2025-08-11_11h03.47.919,continuous_performance_test,2024.2.4,MacIntel,60.24096386,f8804269-8d87-4f1a-9ad2-fee9c18acd99,6,144.4126,146.1119,space,1,0.6135,,0,13,13,19,1,T,space,,,,,,,,,,
,,,,,R_9X0AtJe5QW5khxy,001,2025-08-11_11h03.47.919,continuous_performance_test,2024.2.4,MacIntel,60.24096386,f8804269-8d87-4f1a-9ad2-fee9c18acd99,6,146.1126,147.9119,space,1,0.3968,,0,14,14,11,1,L,space,,,,,,,,,,
,,,,,R_9X0AtJe5QW5khxy,001,2025-08-11_11h03.47.919,continuous_performance_test,2024.2.4,MacIntel,60.24096386,f8804269-8d87-4f1a-9ad2-fee9c18acd99,6,147.9127,149.8619,space,0,0.316,,0,15,15,27,1,X,,,,,,,,,,,
,,,,,R_9X0AtJe5QW5khxy,001,2025-08-11_11h03.47.919,continuous_performance_test,2024.2.4,MacIntel,60.24096386,f8804269-8d87-4f1a-9ad2-fee9c18acd99,6,149.8624,151.5119,,1,,,0,16,16,25,1,X,,,,,,,,,,,
,,,,,R_9X0AtJe5QW5khxy,001,2025-08-11_11h03.47.919,continuous_performance_test,2024.2.4,MacIntel,60.24096386,f8804269-8d87-4f1a-9ad2-fee9c18acd99,6,151.5126,153.4119,space,1,0.3644,,0,17,17,4,1,E,space,,,,,,,,,,
,,,,,R_9X0AtJe5QW5khxy,001,2025-08-11_11h03.47.919,continuous_performance_test,2024.2.4,MacIntel,60.24096386,f8804269-8d87-4f1a-9ad2-fee9c18acd99,6,153.4123,155.411,,1,,,0,18,18,26,1,X,,,,,,,,,,,
,,,,,R_9X0AtJe5QW5khxy,001,2025-08-11_11h03.47.919,continuous_performance_test,2024.2.4,MacIntel,60.24096386,f8804269-8d87-4f1a-9ad2-fee9c18acd99,6,155.4115,157.2113,space,1,0.313,,0,19,19,0,1,A,space,,,,,,,,,,
,,,,,R_9X0AtJe5QW5khxy,001,2025-08-11_11h03.47.919,continuous_performance_test,2024.2.4,MacIntel,60.24096386,f8804269-8d87-4f1a-9ad2-fee9c18acd99,6,157.2118,159.2119,space,1,0.4972,,0,20,20,22,1,W,space,,,,,,,,,,
,,,,,R_9X0AtJe5QW5khxy,001,2025-08-11_11h03.47.919,continuous_performance_test,2024.2.4,MacIntel,60.24096386,f8804269-8d87-4f1a-9ad2-fee9c18acd99,6,159.2125,161.2118,space,1,0.4479,,0,21,21,14,1,O,space,,,,,,,,,,
,,,,,R_9X0AtJe5QW5khxy,001,2025-08-11_11h03.47.919,continuous_performance_test,2024.2.4,MacIntel,60.24096386,f8804269-8d87-4f1a-9ad2-fee9c18acd99,6,161.2126,162.9117,space,1,0.3971,,0,22,22,17,1,R,space,,,,,,,,,,
,,,,,R_9X0AtJe5QW5khxy,001,2025-08-11_11h03.47.919,continuous_performance_test,2024.2.4,MacIntel,60.24096386,f8804269-8d87-4f1a-9ad2-fee9c18acd99,6,162.9125,164.9119,space,1,0.3158,,0,23,23,1,1,B,space,,,,,,,,,,
,,,,,R_9X0AtJe5QW5khxy,001,2025-08-11_11h03.47.919,continuous_performance_test,2024.2.4,MacIntel,60.24096386,f8804269-8d87-4f1a-9ad2-fee9c18acd99,6,164.9125,166.7619,space,1,0.414,,0,24,24,16,1,Q,space,,,,,,,,,,
,,,,,R_9X0AtJe5QW5khxy,001,2025-08-11_11h03.47.919,continuous_performance_test,2024.2.4,MacIntel,60.24096386,f8804269-8d87-4f1a-9ad2-fee9c18acd99,6,166.7625,168.3119,space,1,0.5471,,0,25,25,5,1,F,space,,,,,,,,,,
,,,,,R_9X0AtJe5QW5khxy,001,2025-08-11_11h03.47.919,continuous_performance_test,2024.2.4,MacIntel,60.24096386,f8804269-8d87-4f1a-9ad2-fee9c18acd99,6,168.3126,170.0118,space,1,0.4971,,0,26,26,2,1,C,space,,,,,,,,,,
,,,,,R_9X0AtJe5QW5khxy,001,2025-08-11_11h03.47.919,continuous_performance_test,2024.2.4,MacIntel,60.24096386,f8804269-8d87-4f1a-9ad2-fee9c18acd99,6,170.0126,171.9618,space,1,0.297,,0,27,27,13,1,N,space,,,,,,,,,,
,,,,,R_9X0AtJe5QW5khxy,001,2025-08-11_11h03.47.919,continuous_performance_test,2024.2.4,MacIntel,60.24096386,f8804269-8d87-4f1a-9ad2-fee9c18acd99,6,171.9625,173.9618,space,1,0.4472,,0,28,28,7,1,H,space,,,,,,,,,,
,,,,,R_9X0AtJe5QW5khxy,001,2025-08-11_11h03.47.919,continuous_performance_test,2024.2.4,MacIntel,60.24096386,f8804269-8d87-4f1a-9ad2-fee9c18acd99,6,173.9626,175.7119,space,0,0.3633,,0,29,29,28,1,X,,,,,,,,,,,
,,,,,R_9X0AtJe5QW5khxy,001,2025-08-11_11h03.47.919,continuous_performance_test,2024.2.4,MacIntel,60.24096386,f8804269-8d87-4f1a-9ad2-fee9c18acd99,6,177.9139,179.9119,space,1,0.3445,,0,0,0,17,1,R,space,175.7123,177.9119,space,2.1963,,,,,,
,,,,,R_9X0AtJe5QW5khxy,001,2025-08-11_11h03.47.919,continuous_performance_test,2024.2.4,MacIntel,60.24096386,f8804269-8d87-4f1a-9ad2-fee9c18acd99,6,179.9123,181.4618,space,1,0.5452,,0,1,1,7,1,H,space,,,,,,,,,,
,,,,,R_9X0AtJe5QW5khxy,001,2025-08-11_11h03.47.919,continuous_performance_test,2024.2.4,MacIntel,60.24096386,f8804269-8d87-4f1a-9ad2-fee9c18acd99,6,181.4622,183.2618,space,1,0.412,,0,2,2,6,1,G,space,,,,,,,,,,
,,,,,R_9X0AtJe5QW5khxy,001,2025-08-11_11h03.47.919,continuous_performance_test,2024.2.4,MacIntel,60.24096386,f8804269-8d87-4f1a-9ad2-fee9c18acd99,6,183.2623,185.2618,,1,,,0,3,3,27,1,X,,,,,,,,,,,
,,,,,R_9X0AtJe5QW5khxy,001,2025-08-11_11h03.47.919,continuous_performance_test,2024.2.4,MacIntel,60.24096386,f8804269-8d87-4f1a-9ad2-fee9c18acd99,6,185.2622,186.9618,,1,,,0,4,4,25,1,X,,,,,,,,,,,
,,,,,R_9X0AtJe5QW5khxy,001,2025-08-11_11h03.47.919,continuous_performance_test,2024.2.4,MacIntel,60.24096386,f8804269-8d87-4f1a-9ad2-fee9c18acd99,6,186.9622,188.6618,space,1,0.4121,,0,5,5,15,1,P,space,,,,,,,,,,
,,,,,R_9X0AtJe5QW5khxy,001,2025-08-11_11h03.47.919,continuous_performance_test,2024.2.4,MacIntel,60.24096386,f8804269-8d87-4f1a-9ad2-fee9c18acd99,6,188.6623,190.5618,,1,,,0,6,6,29,1,X,,,,,,,,,,,
,,,,,R_9X0AtJe5QW5khxy,001,2025-08-11_11h03.47.919,continuous_performance_test,2024.2.4,MacIntel,60.24096386,f8804269-8d87-4f1a-9ad2-fee9c18acd99,6,190.5623,192.1618,space,1,0.3648,,0,7,7,3,1,D,space,,,,,,,,,,
,,,,,R_9X0AtJe5QW5khxy,001,2025-08-11_11h03.47.919,continuous_performance_test,2024.2.4,MacIntel,60.24096386,f8804269-8d87-4f1a-9ad2-fee9c18acd99,6,192.1622,194.1118,space,1,0.3285,,0,8,8,22,1,W,space,,,,,,,,,,
,,,,,R_9X0AtJe5QW5khxy,001,2025-08-11_11h03.47.919,continuous_performance_test,2024.2.4,MacIntel,60.24096386,f8804269-8d87-4f1a-9ad2-fee9c18acd99,6,194.1122,195.8609,space,1,0.4459,,0,9,9,23,1,Y,space,,,,,,,,,,
,,,,,R_9X0AtJe5QW5khxy,001,2025-08-11_11h03.47.919,continuous_performance_test,2024.2.4,MacIntel,60.24096386,f8804269-8d87-4f1a-9ad2-fee9c18acd99,6,195.8614,197.6609,space,1,0.3785,,0,10,10,2,1,C,space,,,,,,,,,,
,,,,,R_9X0AtJe5QW5khxy,001,2025-08-11_11h03.47.919,continuous_performance_test,2024.2.4,MacIntel,60.24096386,f8804269-8d87-4f1a-9ad2-fee9c18acd99,6,197.6614,199.3618,space,1,0.3618,,0,11,11,8,1,I,space,,,,,,,,,,
,,,,,R_9X0AtJe5QW5khxy,001,2025-08-11_11h03.47.919,continuous_performance_test,2024.2.4,MacIntel,60.24096386,f8804269-8d87-4f1a-9ad2-fee9c18acd99,6,199.3622,201.2609,space,1,0.3457,,0,12,12,5,1,F,space,,,,,,,,,,
,,,,,R_9X0AtJe5QW5khxy,001,2025-08-11_11h03.47.919,continuous_performance_test,2024.2.4,MacIntel,60.24096386,f8804269-8d87-4f1a-9ad2-fee9c18acd99,6,201.2613,203.2108,space,1,0.2805,,0,13,13,21,1,V,space,,,,,,,,,,
,,,,,R_9X0AtJe5QW5khxy,001,2025-08-11_11h03.47.919,continuous_performance_test,2024.2.4,MacIntel,60.24096386,f8804269-8d87-4f1a-9ad2-fee9c18acd99,6,203.2112,205.2118,space,1,0.2785,,0,14,14,16,1,Q,space,,,,,,,,,,
,,,,,R_9X0AtJe5QW5khxy,001,2025-08-11_11h03.47.919,continuous_performance_test,2024.2.4,MacIntel,60.24096386,f8804269-8d87-4f1a-9ad2-fee9c18acd99,6,205.2122,207.1617,space,1,0.3286,,0,15,15,0,1,A,space,,,,,,,,,,
,,,,,R_9X0AtJe5QW5khxy,001,2025-08-11_11h03.47.919,continuous_performance_test,2024.2.4,MacIntel,60.24096386,f8804269-8d87-4f1a-9ad2-fee9c18acd99,6,207.1622,208.9618,space,1,0.2796,,0,16,16,4,1,E,space,,,,,,,,,,
,,,,,R_9X0AtJe5QW5khxy,001,2025-08-11_11h03.47.919,continuous_performance_test,2024.2.4,MacIntel,60.24096386,f8804269-8d87-4f1a-9ad2-fee9c18acd99,6,208.9622,210.5117,space,1,0.2952,,0,17,17,14,1,O,space,,,,,,,,,,
,,,,,R_9X0AtJe5QW5khxy,001,2025-08-11_11h03.47.919,continuous_performance_test,2024.2.4,MacIntel,60.24096386,f8804269-8d87-4f1a-9ad2-fee9c18acd99,6,210.5122,212.1118,space,1,0.3118,,0,18,18,20,1,U,space,,,,,,,,,,
,,,,,R_9X0AtJe5QW5khxy,001,2025-08-11_11h03.47.919,continuous_performance_test,2024.2.4,MacIntel,60.24096386,f8804269-8d87-4f1a-9ad2-fee9c18acd99,6,212.1122,213.7117,space,1,0.2952,,0,19,19,9,1,J,space,,,,,,,,,,
,,,,,R_9X0AtJe5QW5khxy,001,2025-08-11_11h03.47.919,continuous_performance_test,2024.2.4,MacIntel,60.24096386,f8804269-8d87-4f1a-9ad2-fee9c18acd99,6,213.7122,215.6617,space,1,0.2643,,0,20,20,24,1,Z,space,,,,,,,,,,
,,,,,R_9X0AtJe5QW5khxy,001,2025-08-11_11h03.47.919,continuous_performance_test,2024.2.4,MacIntel,60.24096386,f8804269-8d87-4f1a-9ad2-fee9c18acd99,6,215.6622,217.5617,,1,,,0,21,21,26,1,X,,,,,,,,,,,
,,,,,R_9X0AtJe5QW5khxy,001,2025-08-11_11h03.47.919,continuous_performance_test,2024.2.4,MacIntel,60.24096386,f8804269-8d87-4f1a-9ad2-fee9c18acd99,6,217.5622,219.5117,,1,,,0,22,22,28,1,X,,,,,,,,,,,
,,,,,R_9X0AtJe5QW5khxy,001,2025-08-11_11h03.47.919,continuous_performance_test,2024.2.4,MacIntel,60.24096386,f8804269-8d87-4f1a-9ad2-fee9c18acd99,6,219.5122,221.1117,space,1,0.4619,,0,23,23,10,1,K,space,,,,,,,,,,
,,,,,R_9X0AtJe5QW5khxy,001,2025-08-11_11h03.47.919,continuous_performance_test,2024.2.4,MacIntel,60.24096386,f8804269-8d87-4f1a-9ad2-fee9c18acd99,6,221.1121,222.8608,space,1,0.3285,,0,24,24,12,1,M,space,,,,,,,,,,
,,,,,R_9X0AtJe5QW5khxy,001,2025-08-11_11h03.47.919,continuous_performance_test,2024.2.4,MacIntel,60.24096386,f8804269-8d87-4f1a-9ad2-fee9c18acd99,6,222.8613,224.4608,space,1,0.3286,,0,25,25,13,1,N,space,,,,,,,,,,
,,,,,R_9X0AtJe5QW5khxy,001,2025-08-11_11h03.47.919,continuous_performance_test,2024.2.4,MacIntel,60.24096386,f8804269-8d87-4f1a-9ad2-fee9c18acd99,6,224.4613,226.3617,space,1,0.2803,,0,26,26,18,1,S,space,,,,,,,,,,
,,,,,R_9X0AtJe5QW5khxy,001,2025-08-11_11h03.47.919,continuous_performance_test,2024.2.4,MacIntel,60.24096386,f8804269-8d87-4f1a-9ad2-fee9c18acd99,6,226.3621,228.3617,space,1,0.2619,,0,27,27,1,1,B,space,,,,,,,,,,
,,,,,R_9X0AtJe5QW5khxy,001,2025-08-11_11h03.47.919,continuous_performance_test,2024.2.4,MacIntel,60.24096386,f8804269-8d87-4f1a-9ad2-fee9c18acd99,6,228.362,230.0117,space,1,0.2795,,0,28,28,11,1,L,space,,,,,,,,,,
,,,,,R_9X0AtJe5QW5khxy,001,2025-08-11_11h03.47.919,continuous_performance_test,2024.2.4,MacIntel,60.24096386,f8804269-8d87-4f1a-9ad2-fee9c18acd99,6,230.0122,231.8608,space,1,0.2786,,0,29,29,19,1,T,space,,,,,,,,,,
,,,,,R_9X0AtJe5QW5khxy,001,2025-08-11_11h03.47.919,continuous_performance_test,2024.2.4,MacIntel,60.24096386,f8804269-8d87-4f1a-9ad2-fee9c18acd99,6,234.7804,236.6284,space,1,0.4619,,0,0,0,16,1,Q,space,231.8612,234.7784,space,2.9114,,,,,,
,,,,,R_9X0AtJe5QW5khxy,001,2025-08-11_11h03.47.919,continuous_performance_test,2024.2.4,MacIntel,60.24096386,f8804269-8d87-4f1a-9ad2-fee9c18acd99,6,236.6289,238.3275,space,1,0.3952,,0,1,1,22,1,W,space,,,,,,,,,,
,,,,,R_9X0AtJe5QW5khxy,001,2025-08-11_11h03.47.919,continuous_performance_test,2024.2.4,MacIntel,60.24096386,f8804269-8d87-4f1a-9ad2-fee9c18acd99,6,238.3279,239.9783,space,1,0.3453,,0,2,2,0,1,A,space,,,,,,,,,,
,,,,,R_9X0AtJe5QW5khxy,001,2025-08-11_11h03.47.919,continuous_performance_test,2024.2.4,MacIntel,60.24096386,f8804269-8d87-4f1a-9ad2-fee9c18acd99,6,239.9788,241.5283,,1,,,0,3,3,25,1,X,,,,,,,,,,,
,,,,,R_9X0AtJe5QW5khxy,001,2025-08-11_11h03.47.919,continuous_performance_test,2024.2.4,MacIntel,60.24096386,f8804269-8d87-4f1a-9ad2-fee9c18acd99,6,241.5288,243.2283,space,1,0.2952,,0,4,4,9,1,J,space,,,,,,,,,,
,,,,,R_9X0AtJe5QW5khxy,001,2025-08-11_11h03.47.919,continuous_performance_test,2024.2.4,MacIntel,60.24096386,f8804269-8d87-4f1a-9ad2-fee9c18acd99,6,243.2288,245.0283,space,1,0.3134,,0,5,5,12,1,M,space,,,,,,,,,,
,,,,,R_9X0AtJe5QW5khxy,001,2025-08-11_11h03.47.919,continuous_performance_test,2024.2.4,MacIntel,60.24096386,f8804269-8d87-4f1a-9ad2-fee9c18acd99,6,245.0288,246.5783,space,1,0.3278,,0,6,6,10,1,K,space,,,,,,,,,,
,,,,,R_9X0AtJe5QW5khxy,001,2025-08-11_11h03.47.919,continuous_performance_test,2024.2.4,MacIntel,60.24096386,f8804269-8d87-4f1a-9ad2-fee9c18acd99,6,246.5788,248.3783,space,1,0.2653,,0,7,7,24,1,Z,space,,,,,,,,,,
,,,,,R_9X0AtJe5QW5khxy,001,2025-08-11_11h03.47.919,continuous_performance_test,2024.2.4,MacIntel,60.24096386,f8804269-8d87-4f1a-9ad2-fee9c18acd99,6,248.3787,250.3783,space,1,0.3119,,0,8,8,13,1,N,space,,,,,,,,,,
,,,,,R_9X0AtJe5QW5khxy,001,2025-08-11_11h03.47.919,continuous_performance_test,2024.2.4,MacIntel,60.24096386,f8804269-8d87-4f1a-9ad2-fee9c18acd99,6,250.3787,252.0783,space,0,0.4786,,0,9,9,28,1,X,,,,,,,,,,,
,,,,,R_9X0AtJe5QW5khxy,001,2025-08-11_11h03.47.919,continuous_performance_test,2024.2.4,MacIntel,60.24096386,f8804269-8d87-4f1a-9ad2-fee9c18acd99,6,252.0788,254.0283,space,1,0.3823,,0,10,10,15,1,P,space,,,,,,,,,,
,,,,,R_9X0AtJe5QW5khxy,001,2025-08-11_11h03.47.919,continuous_performance_test,2024.2.4,MacIntel,60.24096386,f8804269-8d87-4f1a-9ad2-fee9c18acd99,6,254.0288,255.8783,,1,,,0,11,11,26,1,X,,,,,,,,,,,
,,,,,R_9X0AtJe5QW5khxy,001,2025-08-11_11h03.47.919,continuous_performance_test,2024.2.4,MacIntel,60.24096386,f8804269-8d87-4f1a-9ad2-fee9c18acd99,6,255.8788,257.6283,space,1,0.3449,,0,12,12,5,1,F,space,,,,,,,,,,
,,,,,R_9X0AtJe5QW5khxy,001,2025-08-11_11h03.47.919,continuous_performance_test,2024.2.4,MacIntel,60.24096386,f8804269-8d87-4f1a-9ad2-fee9c18acd99,6,257.6288,259.3282,space,1,0.5802,,0,13,13,14,1,O,space,,,,,,,,,,
,,,,,R_9X0AtJe5QW5khxy,001,2025-08-11_11h03.47.919,continuous_performance_test,2024.2.4,MacIntel,60.24096386,f8804269-8d87-4f1a-9ad2-fee9c18acd99,6,259.3286,260.9283,space,1,0.4278,,0,14,14,7,1,H,space,,,,,,,,,,
,,,,,R_9X0AtJe5QW5khxy,001,2025-08-11_11h03.47.919,continuous_performance_test,2024.2.4,MacIntel,60.24096386,f8804269-8d87-4f1a-9ad2-fee9c18acd99,6,260.9288,262.5283,space,1,0.3303,,0,15,15,17,1,R,space,,,,,,,,,,
,,,,,R_9X0AtJe5QW5khxy,001,2025-08-11_11h03.47.919,continuous_performance_test,2024.2.4,MacIntel,60.24096386,f8804269-8d87-4f1a-9ad2-fee9c18acd99,6,262.5288,264.5282,space,0,0.4454,,0,16,16,27,1,X,,,,,,,,,,,
,,,,,R_9X0AtJe5QW5khxy,001,2025-08-11_11h03.47.919,continuous_performance_test,2024.2.4,MacIntel,60.24096386,f8804269-8d87-4f1a-9ad2-fee9c18acd99,6,264.5286,266.4282,space,1,0.3453,,0,17,17,4,1,E,space,,,,,,,,,,
,,,,,R_9X0AtJe5QW5khxy,001,2025-08-11_11h03.47.919,continuous_performance_test,2024.2.4,MacIntel,60.24096386,f8804269-8d87-4f1a-9ad2-fee9c18acd99,6,266.4288,267.9783,space,1,0.4611,,0,18,18,20,1,U,space,,,,,,,,,,
,,,,,R_9X0AtJe5QW5khxy,001,2025-08-11_11h03.47.919,continuous_performance_test,2024.2.4,MacIntel,60.24096386,f8804269-8d87-4f1a-9ad2-fee9c18acd99,6,267.9787,269.8783,space,1,0.3287,,0,19,19,11,1,L,space,,,,,,,,,,
,,,,,R_9X0AtJe5QW5khxy,001,2025-08-11_11h03.47.919,continuous_performance_test,2024.2.4,MacIntel,60.24096386,f8804269-8d87-4f1a-9ad2-fee9c18acd99,6,269.8787,271.6783,space,1,0.4453,,0,20,20,6,1,G,space,,,,,,,,,,
,,,,,R_9X0AtJe5QW5khxy,001,2025-08-11_11h03.47.919,continuous_performance_test,2024.2.4,MacIntel,60.24096386,f8804269-8d87-4f1a-9ad2-fee9c18acd99,6,271.6787,273.6282,space,1,0.3795,,0,21,21,8,1,I,space,,,,,,,,,,
,,,,,R_9X0AtJe5QW5khxy,001,2025-08-11_11h03.47.919,continuous_performance_test,2024.2.4,MacIntel,60.24096386,f8804269-8d87-4f1a-9ad2-fee9c18acd99,6,273.6288,275.4782,space,1,0.3955,,0,22,22,21,1,V,space,,,,,,,,,,
,,,,,R_9X0AtJe5QW5khxy,001,2025-08-11_11h03.47.919,continuous_performance_test,2024.2.4,MacIntel,60.24096386,f8804269-8d87-4f1a-9ad2-fee9c18acd99,6,275.4787,277.3782,space,1,0.3118,,0,23,23,18,1,S,space,,,,,,,,,,
,,,,,R_9X0AtJe5QW5khxy,001,2025-08-11_11h03.47.919,continuous_performance_test,2024.2.4,MacIntel,60.24096386,f8804269-8d87-4f1a-9ad2-fee9c18acd99,6,277.3787,279.2779,space,0,0.2786,,0,24,24,29,1,X,,,,,,,,,,,
,,,,,R_9X0AtJe5QW5khxy,001,2025-08-11_11h03.47.919,continuous_performance_test,2024.2.4,MacIntel,60.24096386,f8804269-8d87-4f1a-9ad2-fee9c18acd99,6,279.2784,280.9282,space,1,0.4119,,0,25,25,3,1,D,space,,,,,,,,,,
,,,,,R_9X0AtJe5QW5khxy,001,2025-08-11_11h03.47.919,continuous_performance_test,2024.2.4,MacIntel,60.24096386,f8804269-8d87-4f1a-9ad2-fee9c18acd99,6,280.9286,282.8283,space,1,0.2952,,0,26,26,1,1,B,space,,,,,,,,,,
,,,,,R_9X0AtJe5QW5khxy,001,2025-08-11_11h03.47.919,continuous_performance_test,2024.2.4,MacIntel,60.24096386,f8804269-8d87-4f1a-9ad2-fee9c18acd99,6,282.8286,284.6282,space,1,0.2778,,0,27,27,2,1,C,space,,,,,,,,,,
,,,,,R_9X0AtJe5QW5khxy,001,2025-08-11_11h03.47.919,continuous_performance_test,2024.2.4,MacIntel,60.24096386,f8804269-8d87-4f1a-9ad2-fee9c18acd99,6,284.6287,286.3282,space,1,0.312,,0,28,28,19,1,T,space,,,,,,,,,,
,,,,,R_9X0AtJe5QW5khxy,001,2025-08-11_11h03.47.919,continuous_performance_test,2024.2.4,MacIntel,60.24096386,f8804269-8d87-4f1a-9ad2-fee9c18acd99,6,286.3287,288.0782,space,1,0.5453,,0,29,29,23,1,Y,space,,,,,,,,,,
,,,,,R_9X0AtJe5QW5khxy,001,2025-08-11_11h03.47.919,continuous_performance_test,2024.2.4,MacIntel,60.24096386,f8804269-8d87-4f1a-9ad2-fee9c18acd99,6,299.1972,301.1449,space,1,0.3663,,0,0,0,23,1,Y,space,288.0786,299.1949,space,11.1108,,,,,,
,,,,,R_9X0AtJe5QW5khxy,001,2025-08-11_11h03.47.919,continuous_performance_test,2024.2.4,MacIntel,60.24096386,f8804269-8d87-4f1a-9ad2-fee9c18acd99,6,301.1453,303.1448,space,0,0.2952,,0,1,1,28,1,X,,,,,,,,,,,
,,,,,R_9X0AtJe5QW5khxy,001,2025-08-11_11h03.47.919,continuous_performance_test,2024.2.4,MacIntel,60.24096386,f8804269-8d87-4f1a-9ad2-fee9c18acd99,6,303.1453,304.6949,space,1,0.3452,,0,2,2,6,1,G,space,,,,,,,,,,
,,,,,R_9X0AtJe5QW5khxy,001,2025-08-11_11h03.47.919,continuous_performance_test,2024.2.4,MacIntel,60.24096386,f8804269-8d87-4f1a-9ad2-fee9c18acd99,6,304.6953,306.5949,space,1,0.3953,,0,3,3,10,1,K,space,,,,,,,,,,
,,,,,R_9X0AtJe5QW5khxy,001,2025-08-11_11h03.47.919,continuous_performance_test,2024.2.4,MacIntel,60.24096386,f8804269-8d87-4f1a-9ad2-fee9c18acd99,6,306.5953,308.3449,space,1,0.3286,,0,4,4,8,1,I,space,,,,,,,,,,
,,,,,R_9X0AtJe5QW5khxy,001,2025-08-11_11h03.47.919,continuous_performance_test,2024.2.4,MacIntel,60.24096386,f8804269-8d87-4f1a-9ad2-fee9c18acd99,6,308.3453,309.9448,space,1,0.3122,,0,5,5,24,1,Z,space,,,,,,,,,,
,,,,,R_9X0AtJe5QW5khxy,001,2025-08-11_11h03.47.919,continuous_performance_test,2024.2.4,MacIntel,60.24096386,f8804269-8d87-4f1a-9ad2-fee9c18acd99,6,309.9453,311.8448,,1,,,0,6,6,25,1,X,,,,,,,,,,,
,,,,,R_9X0AtJe5QW5khxy,001,2025-08-11_11h03.47.919,continuous_performance_test,2024.2.4,MacIntel,60.24096386,f8804269-8d87-4f1a-9ad2-fee9c18acd99,6,311.8452,313.6949,space,1,0.2952,,0,7,7,17,1,R,space,,,,,,,,,,
,,,,,R_9X0AtJe5QW5khxy,001,2025-08-11_11h03.47.919,continuous_performance_test,2024.2.4,MacIntel,60.24096386,f8804269-8d87-4f1a-9ad2-fee9c18acd99,6,313.6953,315.6449,space,1,0.4453,,0,8,8,3,1,D,space,,,,,,,,,,
,,,,,R_9X0AtJe5QW5khxy,001,2025-08-11_11h03.47.919,continuous_performance_test,2024.2.4,MacIntel,60.24096386,f8804269-8d87-4f1a-9ad2-fee9c18acd99,6,315.6453,317.5449,space,1,0.462,,0,9,9,21,1,V,space,,,,,,,,,,
,,,,,R_9X0AtJe5QW5khxy,001,2025-08-11_11h03.47.919,continuous_performance_test,2024.2.4,MacIntel,60.24096386,f8804269-8d87-4f1a-9ad2-fee9c18acd99,6,317.5453,319.1948,space,1,0.4286,,0,10,10,18,1,S,space,,,,,,,,,,
,,,,,R_9X0AtJe5QW5khxy,001,2025-08-11_11h03.47.919,continuous_performance_test,2024.2.4,MacIntel,60.24096386,f8804269-8d87-4f1a-9ad2-fee9c18acd99,6,319.1953,320.7949,space,1,0.3786,,0,11,11,14,1,O,space,,,,,,,,,,
,,,,,R_9X0AtJe5QW5khxy,001,2025-08-11_11h03.47.919,continuous_performance_test,2024.2.4,MacIntel,60.24096386,f8804269-8d87-4f1a-9ad2-fee9c18acd99,6,320.7953,322.5948,space,1,0.3113,,0,12,12,16,1,Q,space,,,,,,,,,,
,,,,,R_9X0AtJe5QW5khxy,001,2025-08-11_11h03.47.919,continuous_performance_test,2024.2.4,MacIntel,60.24096386,f8804269-8d87-4f1a-9ad2-fee9c18acd99,6,322.5952,324.2948,,1,,,0,13,13,26,1,X,,,,,,,,,,,
,,,,,R_9X0AtJe5QW5khxy,001,2025-08-11_11h03.47.919,continuous_performance_test,2024.2.4,MacIntel,60.24096386,f8804269-8d87-4f1a-9ad2-fee9c18acd99,6,324.2952,325.8948,space,1,0.3787,,0,14,14,13,1,N,space,,,,,,,,,,
,,,,,R_9X0AtJe5QW5khxy,001,2025-08-11_11h03.47.919,continuous_performance_test,2024.2.4,MacIntel,60.24096386,f8804269-8d87-4f1a-9ad2-fee9c18acd99,6,325.8952,327.5447,space,1,0.4285,,0,15,15,0,1,A,space,,,,,,,,,,
,,,,,R_9X0AtJe5QW5khxy,001,2025-08-11_11h03.47.919,continuous_performance_test,2024.2.4,MacIntel,60.24096386,f8804269-8d87-4f1a-9ad2-fee9c18acd99,6,327.5452,329.2448,space,1,0.3619,,0,16,16,11,1,L,space,,,,,,,,,,
,,,,,R_9X0AtJe5QW5khxy,001,2025-08-11_11h03.47.919,continuous_performance_test,2024.2.4,MacIntel,60.24096386,f8804269-8d87-4f1a-9ad2-fee9c18acd99,6,329.2452,330.8948,space,1,0.2952,,0,17,17,1,1,B,space,,,,,,,,,,
,,,,,R_9X0AtJe5QW5khxy,001,2025-08-11_11h03.47.919,continuous_performance_test,2024.2.4,MacIntel,60.24096386,f8804269-8d87-4f1a-9ad2-fee9c18acd99,6,330.8952,332.4939,space,1,0.3956,,0,18,18,5,1,F,space,,,,,,,,,,
,,,,,R_9X0AtJe5QW5khxy,001,2025-08-11_11h03.47.919,continuous_performance_test,2024.2.4,MacIntel,60.24096386,f8804269-8d87-4f1a-9ad2-fee9c18acd99,6,332.4943,334.4448,space,1,0.3451,,0,19,19,2,1,C,space,,,,,,,,,,
,,,,,R_9X0AtJe5QW5khxy,001,2025-08-11_11h03.47.919,continuous_performance_test,2024.2.4,MacIntel,60.24096386,f8804269-8d87-4f1a-9ad2-fee9c18acd99,6,334.4452,335.9948,space,1,0.4613,,0,20,20,9,1,J,space,,,,,,,,,,
,,,,,R_9X0AtJe5QW5khxy,001,2025-08-11_11h03.47.919,continuous_performance_test,2024.2.4,MacIntel,60.24096386,f8804269-8d87-4f1a-9ad2-fee9c18acd99,6,335.9952,337.9447,space,1,0.2953,,0,21,21,19,1,T,space,,,,,,,,,,
,,,,,R_9X0AtJe5QW5khxy,001,2025-08-11_11h03.47.919,continuous_performance_test,2024.2.4,MacIntel,60.24096386,f8804269-8d87-4f1a-9ad2-fee9c18acd99,6,337.9452,339.7947,space,0,0.3162,,0,22,22,29,1,X,,,,,,,,,,,
,,,,,R_9X0AtJe5QW5khxy,001,2025-08-11_11h03.47.919,continuous_performance_test,2024.2.4,MacIntel,60.24096386,f8804269-8d87-4f1a-9ad2-fee9c18acd99,6,339.7952,341.3447,space,1,0.4644,,0,23,23,20,1,U,space,,,,,,,,,,
,,,,,R_9X0AtJe5QW5khxy,001,2025-08-11_11h03.47.919,continuous_performance_test,2024.2.4,MacIntel,60.24096386,f8804269-8d87-4f1a-9ad2-fee9c18acd99,6,341.3452,343.0948,space,1,0.3293,,0,24,24,22,1,W,space,,,,,,,,,,
,,,,,R_9X0AtJe5QW5khxy,001,2025-08-11_11h03.47.919,continuous_performance_test,2024.2.4,MacIntel,60.24096386,f8804269-8d87-4f1a-9ad2-fee9c18acd99,6,343.0952,344.9947,space,1,0.3286,,0,25,25,7,1,H,space,,,,,,,,,,
,,,,,R_9X0AtJe5QW5khxy,001,2025-08-11_11h03.47.919,continuous_performance_test,2024.2.4,MacIntel,60.24096386,f8804269-8d87-4f1a-9ad2-fee9c18acd99,6,344.9951,346.9448,space,1,0.2786,,0,26,26,4,1,E,space,,,,,,,,,,
,,,,,R_9X0AtJe5QW5khxy,001,2025-08-11_11h03.47.919,continuous_performance_test,2024.2.4,MacIntel,60.24096386,f8804269-8d87-4f1a-9ad2-fee9c18acd99,6,346.9452,348.8939,space,1,0.4322,,0,27,27,12,1,M,space,,,,,,,,,,
,,,,,R_9X0AtJe5QW5khxy,001,2025-08-11_11h03.47.919,continuous_performance_test,2024.2.4,MacIntel,60.24096386,f8804269-8d87-4f1a-9ad2-fee9c18acd99,6,348.8943,350.7948,space,1,0.3777,,0,28,28,15,1,P,space,,,,,,,,,,
,,,,,R_9X0AtJe5QW5khxy,001,2025-08-11_11h03.47.919,continuous_performance_test,2024.2.4,MacIntel,60.24096386,f8804269-8d87-4f1a-9ad2-fee9c18acd99,6,350.7952,352.5947,,1,,,0,29,29,27,1,X,,,,,,,,,,,
,,,,,R_9X0AtJe5QW5khxy,001,2025-08-11_11h03.47.919,continuous_performance_test,2024.2.4,MacIntel,60.24096386,f8804269-8d87-4f1a-9ad2-fee9c18acd99,6,354.4466,356.1948,space,1,0.4785,,0,0,0,22,1,W,space,352.595,354.4448,space,1.8442,,,,,,
,,,,,R_9X0AtJe5QW5khxy,001,2025-08-11_11h03.47.919,continuous_performance_test,2024.2.4,MacIntel,60.24096386,f8804269-8d87-4f1a-9ad2-fee9c18acd99,6,356.1953,357.8447,space,1,0.4118,,0,1,1,9,1,J,space,,,,,,,,,,
,,,,,R_9X0AtJe5QW5khxy,001,2025-08-11_11h03.47.919,continuous_performance_test,2024.2.4,MacIntel,60.24096386,f8804269-8d87-4f1a-9ad2-fee9c18acd99,6,357.8452,359.5947,space,1,0.4119,,0,2,2,8,1,I,space,,,,,,,,,,
,,,,,R_9X0AtJe5QW5khxy,001,2025-08-11_11h03.47.919,continuous_performance_test,2024.2.4,MacIntel,60.24096386,f8804269-8d87-4f1a-9ad2-fee9c18acd99,6,359.5952,361.2947,,1,,,0,3,3,25,1,X,,,,,,,,,,,
,,,,,R_9X0AtJe5QW5khxy,001,2025-08-11_11h03.47.919,continuous_performance_test,2024.2.4,MacIntel,60.24096386,f8804269-8d87-4f1a-9ad2-fee9c18acd99,6,361.2952,363.2447,space,1,0.4952,,0,4,4,1,1,B,space,,,,,,,,,,
,,,,,R_9X0AtJe5QW5khxy,001,2025-08-11_11h03.47.919,continuous_performance_test,2024.2.4,MacIntel,60.24096386,f8804269-8d87-4f1a-9ad2-fee9c18acd99,6,363.2451,365.1447,space,1,0.3286,,0,5,5,6,1,G,space,,,,,,,,,,
,,,,,R_9X0AtJe5QW5khxy,001,2025-08-11_11h03.47.919,continuous_performance_test,2024.2.4,MacIntel,60.24096386,f8804269-8d87-4f1a-9ad2-fee9c18acd99,6,365.1451,366.9447,space,1,0.2793,,0,6,6,20,1,U,space,,,,,,,,,,
,,,,,R_9X0AtJe5QW5khxy,001,2025-08-11_11h03.47.919,continuous_performance_test,2024.2.4,MacIntel,60.24096386,f8804269-8d87-4f1a-9ad2-fee9c18acd99,6,366.9452,368.5947,space,0,0.3119,,0,7,7,28,1,X,,,,,,,,,,,
,,,,,R_9X0AtJe5QW5khxy,001,2025-08-11_11h03.47.919,continuous_performance_test,2024.2.4,MacIntel,60.24096386,f8804269-8d87-4f1a-9ad2-fee9c18acd99,6,368.5951,370.4447,space,0,0.3124,,0,8,8,29,1,X,,,,,,,,,,,
,,,,,R_9X0AtJe5QW5khxy,001,2025-08-11_11h03.47.919,continuous_performance_test,2024.2.4,MacIntel,60.24096386,f8804269-8d87-4f1a-9ad2-fee9c18acd99,6,370.4451,372.0938,space,1,0.5451,,0,9,9,13,1,N,space,,,,,,,,,,
,,,,,R_9X0AtJe5QW5khxy,001,2025-08-11_11h03.47.919,continuous_performance_test,2024.2.4,MacIntel,60.24096386,f8804269-8d87-4f1a-9ad2-fee9c18acd99,6,372.0943,373.9446,,1,,,0,10,10,27,1,X,,,,,,,,,,,
,,,,,R_9X0AtJe5QW5khxy,001,2025-08-11_11h03.47.919,continuous_performance_test,2024.2.4,MacIntel,60.24096386,f8804269-8d87-4f1a-9ad2-fee9c18acd99,6,373.9451,375.7446,space,1,0.4286,,0,11,11,23,1,Y,space,,,,,,,,,,
,,,,,R_9X0AtJe5QW5khxy,001,2025-08-11_11h03.47.919,continuous_performance_test,2024.2.4,MacIntel,60.24096386,f8804269-8d87-4f1a-9ad2-fee9c18acd99,6,375.7451,377.3946,space,1,0.3978,,0,12,12,2,1,C,space,,,,,,,,,,
,,,,,R_9X0AtJe5QW5khxy,001,2025-08-11_11h03.47.919,continuous_performance_test,2024.2.4,MacIntel,60.24096386,f8804269-8d87-4f1a-9ad2-fee9c18acd99,6,377.3951,379.2947,space,1,0.3788,,0,13,13,18,1,S,space,,,,,,,,,,
,,,,,R_9X0AtJe5QW5khxy,001,2025-08-11_11h03.47.919,continuous_performance_test,2024.2.4,MacIntel,60.24096386,f8804269-8d87-4f1a-9ad2-fee9c18acd99,6,379.2951,381.1946,space,1,0.3455,,0,14,14,10,1,K,space,,,,,,,,,,
,,,,,R_9X0AtJe5QW5khxy,001,2025-08-11_11h03.47.919,continuous_performance_test,2024.2.4,MacIntel,60.24096386,f8804269-8d87-4f1a-9ad2-fee9c18acd99,6,381.1951,382.7946,space,1,0.5467,,0,15,15,5,1,F,space,,,,,,,,,,
,,,,,R_9X0AtJe5QW5khxy,001,2025-08-11_11h03.47.919,continuous_performance_test,2024.2.4,MacIntel,60.24096386,f8804269-8d87-4f1a-9ad2-fee9c18acd99,6,382.7951,384.3939,space,1,0.4454,,0,16,16,24,1,Z,space,,,,,,,,,,
,,,,,R_9X0AtJe5QW5khxy,001,2025-08-11_11h03.47.919,continuous_performance_test,2024.2.4,MacIntel,60.24096386,f8804269-8d87-4f1a-9ad2-fee9c18acd99,6,384.3944,386.3446,space,1,0.2954,,0,17,17,16,1,Q,space,,,,,,,,,,
,,,,,R_9X0AtJe5QW5khxy,001,2025-08-11_11h03.47.919,continuous_performance_test,2024.2.4,MacIntel,60.24096386,f8804269-8d87-4f1a-9ad2-fee9c18acd99,6,386.3451,388.1946,space,1,0.3122,,0,18,18,12,1,M,space,,,,,,,,,,
,,,,,R_9X0AtJe5QW5khxy,001,2025-08-11_11h03.47.919,continuous_performance_test,2024.2.4,MacIntel,60.24096386,f8804269-8d87-4f1a-9ad2-fee9c18acd99,6,388.1951,389.9946,space,1,0.312,,0,19,19,7,1,H,space,,,,,,,,,,
,,,,,R_9X0AtJe5QW5khxy,001,2025-08-11_11h03.47.919,continuous_performance_test,2024.2.4,MacIntel,60.24096386,f8804269-8d87-4f1a-9ad2-fee9c18acd99,6,389.995,391.8946,space,1,0.3279,,0,20,20,4,1,E,space,,,,,,,,,,
,,,,,R_9X0AtJe5QW5khxy,001,2025-08-11_11h03.47.919,continuous_performance_test,2024.2.4,MacIntel,60.24096386,f8804269-8d87-4f1a-9ad2-fee9c18acd99,6,391.8951,393.5946,space,1,0.3788,,0,21,21,11,1,L,space,,,,,,,,,,
,,,,,R_9X0AtJe5QW5khxy,001,2025-08-11_11h03.47.919,continuous_performance_test,2024.2.4,MacIntel,60.24096386,f8804269-8d87-4f1a-9ad2-fee9c18acd99,6,393.5951,395.1947,space,1,0.362,,0,22,22,21,1,V,space,,,,,,,,,,
,,,,,R_9X0AtJe5QW5khxy,001,2025-08-11_11h03.47.919,continuous_performance_test,2024.2.4,MacIntel,60.24096386,f8804269-8d87-4f1a-9ad2-fee9c18acd99,6,395.1951,396.7447,space,1,0.3786,,0,23,23,14,1,O,space,,,,,,,,,,
,,,,,R_9X0AtJe5QW5khxy,001,2025-08-11_11h03.47.919,continuous_performance_test,2024.2.4,MacIntel,60.24096386,f8804269-8d87-4f1a-9ad2-fee9c18acd99,6,396.745,398.6446,space,1,0.3962,,0,24,24,0,1,A,space,,,,,,,,,,
,,,,,R_9X0AtJe5QW5khxy,001,2025-08-11_11h03.47.919,continuous_performance_test,2024.2.4,MacIntel,60.24096386,f8804269-8d87-4f1a-9ad2-fee9c18acd99,6,398.6451,400.1946,,1,,,0,25,25,26,1,X,,,,,,,,,,,
,,,,,R_9X0AtJe5QW5khxy,001,2025-08-11_11h03.47.919,continuous_performance_test,2024.2.4,MacIntel,60.24096386,f8804269-8d87-4f1a-9ad2-fee9c18acd99,6,400.195,402.1946,space,1,0.5134,,0,26,26,19,1,T,space,,,,,,,,,,
,,,,,R_9X0AtJe5QW5khxy,001,2025-08-11_11h03.47.919,continuous_performance_test,2024.2.4,MacIntel,60.24096386,f8804269-8d87-4f1a-9ad2-fee9c18acd99,6,402.195,403.8946,space,1,0.5972,,0,27,27,3,1,D,space,,,,,,,,,,
,,,,,R_9X0AtJe5QW5khxy,001,2025-08-11_11h03.47.919,continuous_performance_test,2024.2.4,MacIntel,60.24096386,f8804269-8d87-4f1a-9ad2-fee9c18acd99,6,403.895,405.8446,space,1,0.3611,,0,28,28,15,1,P,space,,,,,,,,,,
,,,,,R_9X0AtJe5QW5khxy,001,2025-08-11_11h03.47.919,continuous_performance_test,2024.2.4,MacIntel,60.24096386,f8804269-8d87-4f1a-9ad2-fee9c18acd99,6,405.8451,407.3946,space,1,0.4618,,0,29,29,17,1,R,space,,,,,,,,,,
,,,,,R_9X0AtJe5QW5khxy,001,2025-08-11_11h03.47.919,continuous_performance_test,2024.2.4,MacIntel,60.24096386,f8804269-8d87-4f1a-9ad2-fee9c18acd99,6,413.4966,415.2446,space,1,0.3492,,0,0,0,16,1,Q,space,407.395,413.4946,space,6.0943,,,,,,
,,,,,R_9X0AtJe5QW5khxy,001,2025-08-11_11h03.47.919,continuous_performance_test,2024.2.4,MacIntel,60.24096386,f8804269-8d87-4f1a-9ad2-fee9c18acd99,6,415.245,417.0946,space,1,0.3302,,0,1,1,15,1,P,space,,,,,,,,,,
,,,,,R_9X0AtJe5QW5khxy,001,2025-08-11_11h03.47.919,continuous_performance_test,2024.2.4,MacIntel,60.24096386,f8804269-8d87-4f1a-9ad2-fee9c18acd99,6,417.095,418.9445,space,1,0.3628,,0,2,2,11,1,L,space,,,,,,,,,,
,,,,,R_9X0AtJe5QW5khxy,001,2025-08-11_11h03.47.919,continuous_performance_test,2024.2.4,MacIntel,60.24096386,f8804269-8d87-4f1a-9ad2-fee9c18acd99,6,418.945,420.7446,space,1,0.331,,0,3,3,19,1,T,space,,,,,,,,,,
,,,,,R_9X0AtJe5QW5khxy,001,2025-08-11_11h03.47.919,continuous_performance_test,2024.2.4,MacIntel,60.24096386,f8804269-8d87-4f1a-9ad2-fee9c18acd99,6,420.745,422.3446,space,1,0.3453,,0,4,4,14,1,O,space,,,,,,,,,,
,,,,,R_9X0AtJe5QW5khxy,001,2025-08-11_11h03.47.919,continuous_performance_test,2024.2.4,MacIntel,60.24096386,f8804269-8d87-4f1a-9ad2-fee9c18acd99,6,422.3449,423.9445,space,1,0.3112,,0,5,5,4,1,E,space,,,,,,,,,,
,,,,,R_9X0AtJe5QW5khxy,001,2025-08-11_11h03.47.919,continuous_performance_test,2024.2.4,MacIntel,60.24096386,f8804269-8d87-4f1a-9ad2-fee9c18acd99,6,423.945,425.7945,space,1,0.3953,,0,6,6,12,1,M,space,,,,,,,,,,
,,,,,R_9X0AtJe5QW5khxy,001,2025-08-11_11h03.47.919,continuous_performance_test,2024.2.4,MacIntel,60.24096386,f8804269-8d87-4f1a-9ad2-fee9c18acd99,6,425.795,427.4445,space,1,0.3619,,0,7,7,17,1,R,space,,,,,,,,,,
,,,,,R_9X0AtJe5QW5khxy,001,2025-08-11_11h03.47.919,continuous_performance_test,2024.2.4,MacIntel,60.24096386,f8804269-8d87-4f1a-9ad2-fee9c18acd99,6,427.445,429.1445,space,1,0.3785,,0,8,8,7,1,H,space,,,,,,,,,,
,,,,,R_9X0AtJe5QW5khxy,001,2025-08-11_11h03.47.919,continuous_performance_test,2024.2.4,MacIntel,60.24096386,f8804269-8d87-4f1a-9ad2-fee9c18acd99,6,429.145,430.9445,space,1,0.3786,,0,9,9,3,1,D,space,,,,,,,,,,
,,,,,R_9X0AtJe5QW5khxy,001,2025-08-11_11h03.47.919,continuous_performance_test,2024.2.4,MacIntel,60.24096386,f8804269-8d87-4f1a-9ad2-fee9c18acd99,6,430.9449,432.8937,space,1,0.3454,,0,10,10,5,1,F,space,,,,,,,,,,
,,,,,R_9X0AtJe5QW5khxy,001,2025-08-11_11h03.47.919,continuous_performance_test,2024.2.4,MacIntel,60.24096386,f8804269-8d87-4f1a-9ad2-fee9c18acd99,6,432.8941,434.4945,space,1,0.3655,,0,11,11,13,1,N,space,,,,,,,,,,
,,,,,R_9X0AtJe5QW5khxy,001,2025-08-11_11h03.47.919,continuous_performance_test,2024.2.4,MacIntel,60.24096386,f8804269-8d87-4f1a-9ad2-fee9c18acd99,6,434.495,436.1946,space,1,0.3629,,0,12,12,0,1,A,space,,,,,,,,,,
,,,,,R_9X0AtJe5QW5khxy,001,2025-08-11_11h03.47.919,continuous_performance_test,2024.2.4,MacIntel,60.24096386,f8804269-8d87-4f1a-9ad2-fee9c18acd99,6,436.1949,438.0945,space,1,0.362,,0,13,13,2,1,C,space,,,,,,,,,,
,,,,,R_9X0AtJe5QW5khxy,001,2025-08-11_11h03.47.919,continuous_performance_test,2024.2.4,MacIntel,60.24096386,f8804269-8d87-4f1a-9ad2-fee9c18acd99,6,438.095,440.0445,space,1,0.3451,,0,14,14,6,1,G,space,,,,,,,,,,
,,,,,R_9X0AtJe5QW5khxy,001,2025-08-11_11h03.47.919,continuous_performance_test,2024.2.4,MacIntel,60.24096386,f8804269-8d87-4f1a-9ad2-fee9c18acd99,6,440.045,441.8445,space,1,0.3618,,0,15,15,23,1,Y,space,,,,,,,,,,
,,,,,R_9X0AtJe5QW5khxy,001,2025-08-11_11h03.47.919,continuous_performance_test,2024.2.4,MacIntel,60.24096386,f8804269-8d87-4f1a-9ad2-fee9c18acd99,6,441.8449,443.5442,,1,,,0,16,16,27,1,X,,,,,,,,,,,
,,,,,R_9X0AtJe5QW5khxy,001,2025-08-11_11h03.47.919,continuous_performance_test,2024.2.4,MacIntel,60.24096386,f8804269-8d87-4f1a-9ad2-fee9c18acd99,6,443.5446,445.0945,space,1,0.5803,,0,17,17,24,1,Z,space,,,,,,,,,,
,,,,,R_9X0AtJe5QW5khxy,001,2025-08-11_11h03.47.919,continuous_performance_test,2024.2.4,MacIntel,60.24096386,f8804269-8d87-4f1a-9ad2-fee9c18acd99,6,445.0949,446.7445,space,1,0.3286,,0,18,18,9,1,J,space,,,,,,,,,,
,,,,,R_9X0AtJe5QW5khxy,001,2025-08-11_11h03.47.919,continuous_performance_test,2024.2.4,MacIntel,60.24096386,f8804269-8d87-4f1a-9ad2-fee9c18acd99,6,446.7449,448.4445,space,1,0.2789,,0,19,19,10,1,K,space,,,,,,,,,,
,,,,,R_9X0AtJe5QW5khxy,001,2025-08-11_11h03.47.919,continuous_performance_test,2024.2.4,MacIntel,60.24096386,f8804269-8d87-4f1a-9ad2-fee9c18acd99,6,448.445,450.2945,space,0,0.3119,,0,20,20,25,1,X,,,,,,,,,,,
,,,,,R_9X0AtJe5QW5khxy,001,2025-08-11_11h03.47.919,continuous_performance_test,2024.2.4,MacIntel,60.24096386,f8804269-8d87-4f1a-9ad2-fee9c18acd99,6,450.2948,451.8445,,1,,,0,21,21,28,1,X,,,,,,,,,,,
,,,,,R_9X0AtJe5QW5khxy,001,2025-08-11_11h03.47.919,continuous_performance_test,2024.2.4,MacIntel,60.24096386,f8804269-8d87-4f1a-9ad2-fee9c18acd99,6,451.845,453.8444,space,1,0.395,,0,22,22,21,1,V,space,,,,,,,,,,
,,,,,R_9X0AtJe5QW5khxy,001,2025-08-11_11h03.47.919,continuous_performance_test,2024.2.4,MacIntel,60.24096386,f8804269-8d87-4f1a-9ad2-fee9c18acd99,6,453.8448,455.6944,,1,,,0,23,23,29,1,X,,,,,,,,,,,
,,,,,R_9X0AtJe5QW5khxy,001,2025-08-11_11h03.47.919,continuous_performance_test,2024.2.4,MacIntel,60.24096386,f8804269-8d87-4f1a-9ad2-fee9c18acd99,6,455.6949,457.3444,space,1,0.3954,,0,24,24,8,1,I,space,,,,,,,,,,
,,,,,R_9X0AtJe5QW5khxy,001,2025-08-11_11h03.47.919,continuous_performance_test,2024.2.4,MacIntel,60.24096386,f8804269-8d87-4f1a-9ad2-fee9c18acd99,6,457.3449,459.0445,,1,,,0,25,25,26,1,X,,,,,,,,,,,
,,,,,R_9X0AtJe5QW5khxy,001,2025-08-11_11h03.47.919,continuous_performance_test,2024.2.4,MacIntel,60.24096386,f8804269-8d87-4f1a-9ad2-fee9c18acd99,6,459.0449,460.6945,space,1,0.3445,,0,26,26,20,1,U,space,,,,,,,,,,
,,,,,R_9X0AtJe5QW5khxy,001,2025-08-11_11h03.47.919,continuous_performance_test,2024.2.4,MacIntel,60.24096386,f8804269-8d87-4f1a-9ad2-fee9c18acd99,6,460.6949,462.6445,space,1,0.4953,,0,27,27,18,1,S,space,,,,,,,,,,
,,,,,R_9X0AtJe5QW5khxy,001,2025-08-11_11h03.47.919,continuous_performance_test,2024.2.4,MacIntel,60.24096386,f8804269-8d87-4f1a-9ad2-fee9c18acd99,6,462.6449,464.4445,space,1,0.3641,,0,28,28,1,1,B,space,,,,,,,,,,
,,,,,R_9X0AtJe5QW5khxy,001,2025-08-11_11h03.47.919,continuous_performance_test,2024.2.4,MacIntel,60.24096386,f8804269-8d87-4f1a-9ad2-fee9c18acd99,6,464.4449,466.3445,space,1,0.3952,,0,29,29,22,1,W,space,,,,,,,,,,
,,,,,R_9X0AtJe5QW5khxy,001,2025-08-11_11h03.47.919,continuous_performance_test,2024.2.4,MacIntel,60.24096386,f8804269-8d87-4f1a-9ad2-fee9c18acd99,6,467.2621,468.8112,space,1,0.4786,,0,0,0,21,1,V,space,466.3449,467.2602,space,0.9133,,,,,,
,,,,,R_9X0AtJe5QW5khxy,001,2025-08-11_11h03.47.919,continuous_performance_test,2024.2.4,MacIntel,60.24096386,f8804269-8d87-4f1a-9ad2-fee9c18acd99,6,468.8116,470.4111,space,1,0.3453,,0,1,1,13,1,N,space,,,,,,,,,,
,,,,,R_9X0AtJe5QW5khxy,001,2025-08-11_11h03.47.919,continuous_performance_test,2024.2.4,MacIntel,60.24096386,f8804269-8d87-4f1a-9ad2-fee9c18acd99,6,470.4115,472.2611,space,1,0.3451,,0,2,2,0,1,A,space,,,,,,,,,,
,,,,,R_9X0AtJe5QW5khxy,001,2025-08-11_11h03.47.919,continuous_performance_test,2024.2.4,MacIntel,60.24096386,f8804269-8d87-4f1a-9ad2-fee9c18acd99,6,472.2616,473.9111,space,1,0.3285,,0,3,3,4,1,E,space,,,,,,,,,,
,,,,,R_9X0AtJe5QW5khxy,001,2025-08-11_11h03.47.919,continuous_performance_test,2024.2.4,MacIntel,60.24096386,f8804269-8d87-4f1a-9ad2-fee9c18acd99,6,473.9115,475.5111,space,1,0.3786,,0,4,4,18,1,S,space,,,,,,,,,,
,,,,,R_9X0AtJe5QW5khxy,001,2025-08-11_11h03.47.919,continuous_performance_test,2024.2.4,MacIntel,60.24096386,f8804269-8d87-4f1a-9ad2-fee9c18acd99,6,475.5115,477.1102,space,1,0.3118,,0,5,5,9,1,J,space,,,,,,,,,,
,,,,,R_9X0AtJe5QW5khxy,001,2025-08-11_11h03.47.919,continuous_performance_test,2024.2.4,MacIntel,60.24096386,f8804269-8d87-4f1a-9ad2-fee9c18acd99,6,477.1106,478.6602,space,1,0.5778,,0,6,6,2,1,C,space,,,,,,,,,,
,,,,,R_9X0AtJe5QW5khxy,001,2025-08-11_11h03.47.919,continuous_performance_test,2024.2.4,MacIntel,60.24096386,f8804269-8d87-4f1a-9ad2-fee9c18acd99,6,478.6606,480.661,space,1,0.3284,,0,7,7,24,1,Z,space,,,,,,,,,,
,,,,,R_9X0AtJe5QW5khxy,001,2025-08-11_11h03.47.919,continuous_performance_test,2024.2.4,MacIntel,60.24096386,f8804269-8d87-4f1a-9ad2-fee9c18acd99,6,480.6615,482.2611,space,1,0.3452,,0,8,8,11,1,L,space,,,,,,,,,,
,,,,,R_9X0AtJe5QW5khxy,001,2025-08-11_11h03.47.919,continuous_performance_test,2024.2.4,MacIntel,60.24096386,f8804269-8d87-4f1a-9ad2-fee9c18acd99,6,482.2616,484.1601,space,1,0.3149,,0,9,9,12,1,M,space,,,,,,,,,,
,,,,,R_9X0AtJe5QW5khxy,001,2025-08-11_11h03.47.919,continuous_performance_test,2024.2.4,MacIntel,60.24096386,f8804269-8d87-4f1a-9ad2-fee9c18acd99,6,484.1606,485.8112,space,0,0.3452,,0,10,10,29,1,X,,,,,,,,,,,
,,,,,R_9X0AtJe5QW5khxy,001,2025-08-11_11h03.47.919,continuous_performance_test,2024.2.4,MacIntel,60.24096386,f8804269-8d87-4f1a-9ad2-fee9c18acd99,6,485.8115,487.5101,space,0,0.2789,,0,11,11,26,1,X,,,,,,,,,,,
,,,,,R_9X0AtJe5QW5khxy,001,2025-08-11_11h03.47.919,continuous_performance_test,2024.2.4,MacIntel,60.24096386,f8804269-8d87-4f1a-9ad2-fee9c18acd99,6,487.5106,489.5102,space,1,0.3451,,0,12,12,15,1,P,space,,,,,,,,,,
,,,,,R_9X0AtJe5QW5khxy,001,2025-08-11_11h03.47.919,continuous_performance_test,2024.2.4,MacIntel,60.24096386,f8804269-8d87-4f1a-9ad2-fee9c18acd99,6,489.5106,491.3601,space,1,0.3456,,0,13,13,5,1,F,space,,,,,,,,,,
,,,,,R_9X0AtJe5QW5khxy,001,2025-08-11_11h03.47.919,continuous_performance_test,2024.2.4,MacIntel,60.24096386,f8804269-8d87-4f1a-9ad2-fee9c18acd99,6,491.3605,493.161,space,1,0.2785,,0,14,14,20,1,U,space,,,,,,,,,,
,,,,,R_9X0AtJe5QW5khxy,001,2025-08-11_11h03.47.919,continuous_performance_test,2024.2.4,MacIntel,60.24096386,f8804269-8d87-4f1a-9ad2-fee9c18acd99,6,493.1615,495.011,space,1,0.3287,,0,15,15,3,1,D,space,,,,,,,,,,
,,,,,R_9X0AtJe5QW5khxy,001,2025-08-11_11h03.47.919,continuous_performance_test,2024.2.4,MacIntel,60.24096386,f8804269-8d87-4f1a-9ad2-fee9c18acd99,6,495.0115,496.661,space,1,0.3453,,0,16,16,7,1,H,space,,,,,,,,,,
,,,,,R_9X0AtJe5QW5khxy,001,2025-08-11_11h03.47.919,continuous_performance_test,2024.2.4,MacIntel,60.24096386,f8804269-8d87-4f1a-9ad2-fee9c18acd99,6,496.6614,498.5111,space,1,0.4953,,0,17,17,17,1,R,space,,,,,,,,,,
,,,,,R_9X0AtJe5QW5khxy,001,2025-08-11_11h03.47.919,continuous_performance_test,2024.2.4,MacIntel,60.24096386,f8804269-8d87-4f1a-9ad2-fee9c18acd99,6,498.5114,500.161,space,1,0.2988,,0,18,18,23,1,Y,space,,,,,,,,,,
,,,,,R_9X0AtJe5QW5khxy,001,2025-08-11_11h03.47.919,continuous_performance_test,2024.2.4,MacIntel,60.24096386,f8804269-8d87-4f1a-9ad2-fee9c18acd99,6,500.1614,501.8611,space,1,0.2619,,0,19,19,22,1,W,space,,,,,,,,,,
,,,,,R_9X0AtJe5QW5khxy,001,2025-08-11_11h03.47.919,continuous_performance_test,2024.2.4,MacIntel,60.24096386,f8804269-8d87-4f1a-9ad2-fee9c18acd99,6,501.8614,503.811,,1,,,0,20,20,25,1,X,,,,,,,,,,,
,,,,,R_9X0AtJe5QW5khxy,001,2025-08-11_11h03.47.919,continuous_performance_test,2024.2.4,MacIntel,60.24096386,f8804269-8d87-4f1a-9ad2-fee9c18acd99,6,503.8114,505.7101,space,1,0.3288,,0,21,21,10,1,K,space,,,,,,,,,,
,,,,,R_9X0AtJe5QW5khxy,001,2025-08-11_11h03.47.919,continuous_performance_test,2024.2.4,MacIntel,60.24096386,f8804269-8d87-4f1a-9ad2-fee9c18acd99,6,505.7105,507.461,space,1,0.3286,,0,22,22,16,1,Q,space,,,,,,,,,,
,,,,,R_9X0AtJe5QW5khxy,001,2025-08-11_11h03.47.919,continuous_performance_test,2024.2.4,MacIntel,60.24096386,f8804269-8d87-4f1a-9ad2-fee9c18acd99,6,507.4615,509.461,space,1,0.3786,,0,23,23,19,1,T,space,,,,,,,,,,
,,,,,R_9X0AtJe5QW5khxy,001,2025-08-11_11h03.47.919,continuous_performance_test,2024.2.4,MacIntel,60.24096386,f8804269-8d87-4f1a-9ad2-fee9c18acd99,6,509.4615,511.1609,space,1,0.3946,,0,24,24,8,1,I,space,,,,,,,,,,
,,,,,R_9X0AtJe5QW5khxy,001,2025-08-11_11h03.47.919,continuous_performance_test,2024.2.4,MacIntel,60.24096386,f8804269-8d87-4f1a-9ad2-fee9c18acd99,6,511.1614,512.911,space,1,0.3454,,0,25,25,6,1,G,space,,,,,,,,,,
,,,,,R_9X0AtJe5QW5khxy,001,2025-08-11_11h03.47.919,continuous_performance_test,2024.2.4,MacIntel,60.24096386,f8804269-8d87-4f1a-9ad2-fee9c18acd99,6,512.9114,514.761,space,1,0.2822,,0,26,26,14,1,O,space,,,,,,,,,,
,,,,,R_9X0AtJe5QW5khxy,001,2025-08-11_11h03.47.919,continuous_performance_test,2024.2.4,MacIntel,60.24096386,f8804269-8d87-4f1a-9ad2-fee9c18acd99,6,514.7615,516.611,space,1,0.3119,,0,27,27,1,1,B,space,,,,,,,,,,
,,,,,R_9X0AtJe5QW5khxy,001,2025-08-11_11h03.47.919,continuous_performance_test,2024.2.4,MacIntel,60.24096386,f8804269-8d87-4f1a-9ad2-fee9c18acd99,6,516.6114,518.4101,,1,,,0,28,28,27,1,X,,,,,,,,,,,
,,,,,R_9X0AtJe5QW5khxy,001,2025-08-11_11h03.47.919,continuous_performance_test,2024.2.4,MacIntel,60.24096386,f8804269-8d87-4f1a-9ad2-fee9c18acd99,6,518.4105,520.2611,space,0,0.283,,0,29,29,28,1,X,,,,,,,,,,,
,,,,,R_9X0AtJe5QW5khxy,001,2025-08-11_11h03.47.919,continuous_performance_test,2024.2.4,MacIntel,60.24096386,f8804269-8d87-4f1a-9ad2-fee9c18acd99,6,520.7796,522.5276,space,1,0.5452,,0,0,0,13,1,N,space,520.2613,520.7777,space,0.51,,,,,,
,,,,,R_9X0AtJe5QW5khxy,001,2025-08-11_11h03.47.919,continuous_performance_test,2024.2.4,MacIntel,60.24096386,f8804269-8d87-4f1a-9ad2-fee9c18acd99,6,522.5281,524.3776,space,1,0.3287,,0,1,1,3,1,D,space,,,,,,,,,,
,,,,,R_9X0AtJe5QW5khxy,001,2025-08-11_11h03.47.919,continuous_performance_test,2024.2.4,MacIntel,60.24096386,f8804269-8d87-4f1a-9ad2-fee9c18acd99,6,524.378,526.2276,space,1,0.2805,,0,2,2,6,1,G,space,,,,,,,,,,
,,,,,R_9X0AtJe5QW5khxy,001,2025-08-11_11h03.47.919,continuous_performance_test,2024.2.4,MacIntel,60.24096386,f8804269-8d87-4f1a-9ad2-fee9c18acd99,6,526.2281,527.9277,space,1,0.3466,,0,3,3,21,1,V,space,,,,,,,,,,
,,,,,R_9X0AtJe5QW5khxy,001,2025-08-11_11h03.47.919,continuous_performance_test,2024.2.4,MacIntel,60.24096386,f8804269-8d87-4f1a-9ad2-fee9c18acd99,6,527.9281,529.5776,,1,,,0,4,4,29,1,X,,,,,,,,,,,
,,,,,R_9X0AtJe5QW5khxy,001,2025-08-11_11h03.47.919,continuous_performance_test,2024.2.4,MacIntel,60.24096386,f8804269-8d87-4f1a-9ad2-fee9c18acd99,6,529.5781,531.2776,space,1,0.3643,,0,5,5,20,1,U,space,,,,,,,,,,
,,,,,R_9X0AtJe5QW5khxy,001,2025-08-11_11h03.47.919,continuous_performance_test,2024.2.4,MacIntel,60.24096386,f8804269-8d87-4f1a-9ad2-fee9c18acd99,6,531.278,533.1276,space,1,0.3619,,0,6,6,22,1,W,space,,,,,,,,,,
,,,,,R_9X0AtJe5QW5khxy,001,2025-08-11_11h03.47.919,continuous_performance_test,2024.2.4,MacIntel,60.24096386,f8804269-8d87-4f1a-9ad2-fee9c18acd99,6,533.128,534.6776,,1,,,0,7,7,27,1,X,,,,,,,,,,,
,,,,,R_9X0AtJe5QW5khxy,001,2025-08-11_11h03.47.919,continuous_performance_test,2024.2.4,MacIntel,60.24096386,f8804269-8d87-4f1a-9ad2-fee9c18acd99,6,534.678,536.2776,space,1,0.3286,,0,8,8,18,1,S,space,,,,,,,,,,
,,,,,R_9X0AtJe5QW5khxy,001,2025-08-11_11h03.47.919,continuous_performance_test,2024.2.4,MacIntel,60.24096386,f8804269-8d87-4f1a-9ad2-fee9c18acd99,6,536.278,538.2776,space,1,0.3452,,0,9,9,9,1,J,space,,,,,,,,,,
,,,,,R_9X0AtJe5QW5khxy,001,2025-08-11_11h03.47.919,continuous_performance_test,2024.2.4,MacIntel,60.24096386,f8804269-8d87-4f1a-9ad2-fee9c18acd99,6,538.2781,540.1276,space,1,0.2953,,0,10,10,1,1,B,space,,,,,,,,,,
,,,,,R_9X0AtJe5QW5khxy,001,2025-08-11_11h03.47.919,continuous_performance_test,2024.2.4,MacIntel,60.24096386,f8804269-8d87-4f1a-9ad2-fee9c18acd99,6,540.128,541.6776,space,1,0.3787,,0,11,11,7,1,H,space,,,,,,,,,,
,,,,,R_9X0AtJe5QW5khxy,001,2025-08-11_11h03.47.919,continuous_performance_test,2024.2.4,MacIntel,60.24096386,f8804269-8d87-4f1a-9ad2-fee9c18acd99,6,541.678,543.3275,space,1,0.3619,,0,12,12,8,1,I,space,,,,,,,,,,
,,,,,R_9X0AtJe5QW5khxy,001,2025-08-11_11h03.47.919,continuous_performance_test,2024.2.4,MacIntel,60.24096386,f8804269-8d87-4f1a-9ad2-fee9c18acd99,6,543.328,545.2276,space,1,0.262,,0,13,13,14,1,O,space,,,,,,,,,,
,,,,,R_9X0AtJe5QW5khxy,001,2025-08-11_11h03.47.919,continuous_performance_test,2024.2.4,MacIntel,60.24096386,f8804269-8d87-4f1a-9ad2-fee9c18acd99,6,545.228,546.8776,space,0,0.3286,,0,14,14,26,1,X,,,,,,,,,,,
,,,,,R_9X0AtJe5QW5khxy,001,2025-08-11_11h03.47.919,continuous_performance_test,2024.2.4,MacIntel,60.24096386,f8804269-8d87-4f1a-9ad2-fee9c18acd99,6,546.878,548.7276,space,1,0.5952,,0,15,15,11,1,L,space,,,,,,,,,,
,,,,,R_9X0AtJe5QW5khxy,001,2025-08-11_11h03.47.919,continuous_performance_test,2024.2.4,MacIntel,60.24096386,f8804269-8d87-4f1a-9ad2-fee9c18acd99,6,548.728,550.2776,space,1,0.3827,,0,16,16,5,1,F,space,,,,,,,,,,
,,,,,R_9X0AtJe5QW5khxy,001,2025-08-11_11h03.47.919,continuous_performance_test,2024.2.4,MacIntel,60.24096386,f8804269-8d87-4f1a-9ad2-fee9c18acd99,6,550.278,551.8775,space,1,0.362,,0,17,17,17,1,R,space,,,,,,,,,,
,,,,,R_9X0AtJe5QW5khxy,001,2025-08-11_11h03.47.919,continuous_performance_test,2024.2.4,MacIntel,60.24096386,f8804269-8d87-4f1a-9ad2-fee9c18acd99,6,551.8779,553.7776,,1,,,0,18,18,28,1,X,,,,,,,,,,,
,,,,,R_9X0AtJe5QW5khxy,001,2025-08-11_11h03.47.919,continuous_performance_test,2024.2.4,MacIntel,60.24096386,f8804269-8d87-4f1a-9ad2-fee9c18acd99,6,553.778,555.5276,space,1,0.3128,,0,19,19,24,1,Z,space,,,,,,,,,,
,,,,,R_9X0AtJe5QW5khxy,001,2025-08-11_11h03.47.919,continuous_performance_test,2024.2.4,MacIntel,60.24096386,f8804269-8d87-4f1a-9ad2-fee9c18acd99,6,555.528,557.5275,space,1,0.3277,,0,20,20,4,1,E,space,,,,,,,,,,
,,,,,R_9X0AtJe5QW5khxy,001,2025-08-11_11h03.47.919,continuous_performance_test,2024.2.4,MacIntel,60.24096386,f8804269-8d87-4f1a-9ad2-fee9c18acd99,6,557.528,559.5276,space,1,0.3952,,0,21,21,19,1,T,space,,,,,,,,,,
,,,,,R_9X0AtJe5QW5khxy,001,2025-08-11_11h03.47.919,continuous_performance_test,2024.2.4,MacIntel,60.24096386,f8804269-8d87-4f1a-9ad2-fee9c18acd99,6,559.528,561.5276,space,1,0.4305,,0,22,22,12,1,M,space,,,,,,,,,,
,,,,,R_9X0AtJe5QW5khxy,001,2025-08-11_11h03.47.919,continuous_performance_test,2024.2.4,MacIntel,60.24096386,f8804269-8d87-4f1a-9ad2-fee9c18acd99,6,561.528,563.1774,space,1,0.2786,,0,23,23,15,1,P,space,,,,,,,,,,
,,,,,R_9X0AtJe5QW5khxy,001,2025-08-11_11h03.47.919,continuous_performance_test,2024.2.4,MacIntel,60.24096386,f8804269-8d87-4f1a-9ad2-fee9c18acd99,6,563.1779,565.1276,space,1,0.312,,0,24,24,10,1,K,space,,,,,,,,,,
,,,,,R_9X0AtJe5QW5khxy,001,2025-08-11_11h03.47.919,continuous_performance_test,2024.2.4,MacIntel,60.24096386,f8804269-8d87-4f1a-9ad2-fee9c18acd99,6,565.1279,567.0775,space,1,0.2616,,0,25,25,0,1,A,space,,,,,,,,,,
,,,,,R_9X0AtJe5QW5khxy,001,2025-08-11_11h03.47.919,continuous_performance_test,2024.2.4,MacIntel,60.24096386,f8804269-8d87-4f1a-9ad2-fee9c18acd99,6,567.0779,568.9275,space,1,0.3128,,0,26,26,23,1,Y,space,,,,,,,,,,
,,,,,R_9X0AtJe5QW5khxy,001,2025-08-11_11h03.47.919,continuous_performance_test,2024.2.4,MacIntel,60.24096386,f8804269-8d87-4f1a-9ad2-fee9c18acd99,6,568.9279,570.7776,space,1,0.3286,,0,27,27,2,1,C,space,,,,,,,,,,
,,,,,R_9X0AtJe5QW5khxy,001,2025-08-11_11h03.47.919,continuous_performance_test,2024.2.4,MacIntel,60.24096386,f8804269-8d87-4f1a-9ad2-fee9c18acd99,6,570.778,572.6275,space,1,0.3787,,0,28,28,16,1,Q,space,,,,,,,,,,
,,,,,R_9X0AtJe5QW5khxy,001,2025-08-11_11h03.47.919,continuous_performance_test,2024.2.4,MacIntel,60.24096386,f8804269-8d87-4f1a-9ad2-fee9c18acd99,6,572.6279,574.3775,,1,,,0,29,29,25,1,X,,,,,,,,,,,
,,,,,R_9X0AtJe5QW5khxy,001,2025-08-11_11h03.47.919,continuous_performance_test,2024.2.4,MacIntel,60.24096386,f8804269-8d87-4f1a-9ad2-fee9c18acd99,6,,,,,,,,,,,,,,574.3779,574.3783,,,,574.3785,578.3276,space,3.9462,
